"Time (s)","Acceleration x (m/s^2)","Acceleration y (m/s^2)","Acceleration z (m/s^2)"
1.403629900E-2,2.596212626E-1,4.707878530E-1,9.671789169E0
1.627339500E-2,2.500499785E-1,4.420739710E-1,9.633503914E0
1.851021200E-2,2.644068897E-1,4.468596280E-1,9.628718376E0
2.074281900E-2,2.596212626E-1,4.325026870E-1,9.623932838E0
2.298568200E-2,2.685943544E-1,4.127618968E-1,9.667003632E0
2.522384500E-2,2.775674164E-1,4.127618968E-1,9.724431038E0
2.745956300E-2,2.775674164E-1,4.360919297E-1,9.753145218E0
2.969680600E-2,2.961117923E-1,4.360919297E-1,9.810572624E0
3.193374500E-2,2.961117923E-1,4.211367965E-1,9.820143700E0
3.416732600E-2,3.098705411E-1,4.211367965E-1,9.853643417E0
3.640420400E-2,2.811566591E-1,4.073780477E-1,9.838688850E0
3.864419400E-2,3.146561682E-1,4.019941986E-1,9.820143700E0
4.089303500E-2,2.961117923E-1,4.217349887E-1,9.791430473E0
4.312637200E-2,3.206382394E-1,4.307080805E-1,9.791430473E0
4.535421600E-2,3.158525825E-1,4.307080805E-1,9.781859398E0
4.760275200E-2,3.158525825E-1,4.402793646E-1,9.757930756E0
4.982894700E-2,3.062812984E-1,4.265206456E-1,9.781859398E0
5.207656700E-2,3.062812984E-1,4.313062727E-1,9.777072906E0
5.431606900E-2,3.014956415E-1,4.456632137E-1,9.767501831E0
5.654989400E-2,2.961117923E-1,4.073780477E-1,9.777072906E0
5.878384200E-2,2.913261652E-1,4.217349887E-1,9.777072906E0
6.102096400E-2,2.871387303E-1,4.265206456E-1,9.777072906E0
6.325778000E-2,2.775674164E-1,4.456632137E-1,9.762716293E0
6.549490200E-2,2.871387303E-1,4.456632137E-1,9.748359680E0
6.773239000E-2,2.727817893E-1,4.271188378E-1,9.757930756E0
6.996816900E-2,3.014956415E-1,4.169493318E-1,9.748359680E0
7.220474100E-2,2.823530734E-1,4.313062727E-1,9.743574142E0
7.444161800E-2,2.871387303E-1,4.360919297E-1,9.748359680E0
7.667660300E-2,2.871387303E-1,4.360919297E-1,9.743574142E0
7.890328800E-2,2.829512656E-1,4.414757788E-1,9.729216576E0
8.115206700E-2,3.062812984E-1,4.265206456E-1,9.767501831E0
8.338888400E-2,2.967100143E-1,4.217349887E-1,9.753145218E0
8.562991200E-2,3.014956415E-1,4.169493318E-1,9.753145218E0
8.786245600E-2,3.152543902E-1,4.163511395E-1,9.781859398E0
9.009908900E-2,3.104687333E-1,4.115654826E-1,9.805787086E0
9.233602800E-2,3.008974493E-1,4.217349887E-1,9.781859398E0
9.457357600E-2,3.056831062E-1,4.354937077E-1,9.815358162E0
9.680935500E-2,3.152543902E-1,4.163511395E-1,9.801001549E0
9.904647700E-2,3.014956415E-1,4.504488707E-1,9.791430473E0
1.012829270E-1,2.967100143E-1,4.360919297E-1,9.786644936E0
1.035210250E-1,2.967100143E-1,4.169493318E-1,9.757930756E0
1.057568040E-1,2.919243574E-1,4.456632137E-1,9.757930756E0
1.079939250E-1,2.967100143E-1,4.360919297E-1,9.738788605E0
1.102304980E-1,2.871387303E-1,4.265206456E-1,9.748359680E0
1.124684740E-1,2.919243574E-1,4.456632137E-1,9.757930756E0
1.147039470E-1,3.014956415E-1,4.169493318E-1,9.757930756E0
1.169406420E-1,2.919243574E-1,4.360919297E-1,9.743574142E0
1.191775800E-1,2.913261652E-1,3.978067636E-1,9.743574142E0
1.214151900E-1,3.158525825E-1,4.259224236E-1,9.772287369E0
1.236510300E-1,2.817548811E-1,4.265206456E-1,9.786644936E0
1.258854050E-1,2.919243574E-1,4.456632137E-1,9.772287369E0
1.281159350E-1,3.014956415E-1,4.360919297E-1,9.777072906E0
1.303624560E-1,2.865405083E-1,4.360919297E-1,9.801001549E0
1.325981120E-1,3.062812984E-1,4.354937077E-1,9.786644936E0
1.348370650E-1,3.008974493E-1,4.121637046E-1,9.767501831E0
1.370716840E-1,3.014956415E-1,4.313062727E-1,9.791430473E0
1.393095380E-1,3.014956415E-1,4.456632137E-1,9.777072906E0
1.415453780E-1,2.823530734E-1,4.313062727E-1,9.777072906E0
1.437791420E-1,2.961117923E-1,4.169493318E-1,9.772287369E0
1.460067430E-1,3.008974493E-1,4.169493318E-1,9.777072906E0
1.482535080E-1,3.056831062E-1,4.169493318E-1,9.772287369E0
1.504803760E-1,2.967100143E-1,4.313062727E-1,9.767501831E0
1.527322680E-1,2.865405083E-1,4.169493318E-1,9.781859398E0
1.549663370E-1,2.769692242E-1,4.025924206E-1,9.772287369E0
1.572070600E-1,2.823530734E-1,4.265206456E-1,9.772287369E0
1.594396040E-1,2.865405083E-1,4.121637046E-1,9.767501831E0
1.616762370E-1,2.919243574E-1,4.313062727E-1,9.772287369E0
1.639134810E-1,2.871387303E-1,4.265206456E-1,9.767501831E0
1.661510300E-1,2.823530734E-1,4.313062727E-1,9.762716293E0
1.683866870E-1,3.062812984E-1,4.360919297E-1,9.748359680E0
1.706234420E-1,3.110669553E-1,4.450650215E-1,9.781859398E0
1.728605640E-1,2.919243574E-1,4.217349887E-1,9.772287369E0
1.750983570E-1,3.152543902E-1,4.163511395E-1,9.772287369E0
1.773338910E-1,2.961117923E-1,4.169493318E-1,9.767501831E0
1.795704640E-1,2.961117923E-1,4.169493318E-1,9.791430473E0
1.818075240E-1,2.961117923E-1,4.121637046E-1,9.777072906E0
1.840453780E-1,2.913261652E-1,4.121637046E-1,9.781859398E0
1.862797530E-1,3.104687333E-1,3.978067636E-1,9.762716293E0
1.885118700E-1,3.104687333E-1,4.259224236E-1,9.791430473E0
1.907546070E-1,3.008974493E-1,4.169493318E-1,9.772287369E0
1.929926440E-1,2.967100143E-1,4.217349887E-1,9.767501831E0
1.952299490E-1,3.056831062E-1,4.307080805E-1,9.796216011E0
1.974651170E-1,3.158525825E-1,4.259224236E-1,9.781859398E0
1.997020550E-1,3.110669553E-1,4.313062727E-1,9.767501831E0
2.019396650E-1,2.919243574E-1,4.265206456E-1,9.767501831E0
2.041756880E-1,2.967100143E-1,4.265206456E-1,9.767501831E0
2.064120160E-1,2.913261652E-1,4.121637046E-1,9.772287369E0
2.086491380E-1,3.014956415E-1,4.265206456E-1,9.767501831E0
2.108868700E-1,2.871387303E-1,4.360919297E-1,9.772287369E0
2.131227710E-1,3.014956415E-1,4.217349887E-1,9.767501831E0
2.153592820E-1,2.871387303E-1,4.456632137E-1,9.762716293E0
2.175960980E-1,2.961117923E-1,4.121637046E-1,9.757930756E0
2.198338300E-1,2.817548811E-1,4.265206456E-1,9.786644936E0
2.220694870E-1,2.919243574E-1,4.360919297E-1,9.767501831E0
2.243063030E-1,3.158525825E-1,4.307080805E-1,9.786644936E0
2.265387260E-1,3.110669553E-1,4.217349887E-1,9.767501831E0
2.287604660E-1,2.919243574E-1,4.313062727E-1,9.781859398E0
2.310050950E-1,3.008974493E-1,4.217349887E-1,9.781859398E0
2.332536300E-1,3.110669553E-1,4.402793646E-1,9.786644936E0
2.354948400E-1,3.062812984E-1,4.265206456E-1,9.767501831E0
2.377312300E-1,3.062812984E-1,4.265206456E-1,9.772287369E0
2.399642620E-1,2.823530734E-1,4.313062727E-1,9.781859398E0
2.422006510E-1,2.919243574E-1,4.121637046E-1,9.753145218E0
2.444377120E-1,2.919243574E-1,4.313062727E-1,9.772287369E0
2.466753830E-1,2.769692242E-1,4.121637046E-1,9.781859398E0
2.489111010E-1,2.967100143E-1,4.265206456E-1,9.762716293E0
2.511478560E-1,3.008974493E-1,4.217349887E-1,9.781859398E0
2.533846730E-1,3.056831062E-1,4.169493318E-1,9.767501831E0
2.556225260E-1,3.062812984E-1,4.265206456E-1,9.772287369E0
2.578567790E-1,2.871387303E-1,4.313062727E-1,9.781859398E0
2.600888350E-1,3.104687333E-1,4.073780477E-1,9.757930756E0
2.623320600E-1,2.919243574E-1,4.265206456E-1,9.762716293E0
2.645675340E-1,2.919243574E-1,4.313062727E-1,9.757930756E0
2.667971480E-1,2.967100143E-1,4.313062727E-1,9.767501831E0
2.690391520E-1,2.961117923E-1,4.121637046E-1,9.781859398E0
2.712669970E-1,2.967100143E-1,4.408775866E-1,9.796216011E0
2.735195610E-1,2.871387303E-1,4.360919297E-1,9.762716293E0
2.757528980E-1,2.967100143E-1,4.456632137E-1,9.772287369E0
2.779927660E-1,2.727817893E-1,4.456632137E-1,9.781859398E0
2.802274460E-1,2.967100143E-1,4.169493318E-1,9.767501831E0
2.824640790E-1,3.056831062E-1,4.163511395E-1,9.796216011E0
2.846971720E-1,3.056831062E-1,4.163511395E-1,9.791430473E0
2.869244680E-1,2.919243574E-1,4.408775866E-1,9.791430473E0
2.891735520E-1,3.062812984E-1,4.354937077E-1,9.781859398E0
2.914112840E-1,2.919243574E-1,4.265206456E-1,9.772287369E0
2.936501150E-1,3.056831062E-1,4.163511395E-1,9.786644936E0
2.958836350E-1,3.056831062E-1,4.211367965E-1,9.786644936E0
2.981178270E-1,3.062812984E-1,4.360919297E-1,9.772287369E0
3.003484790E-1,3.014956415E-1,4.360919297E-1,9.781859398E0
3.025940230E-1,2.871387303E-1,4.217349887E-1,9.753145218E0
3.048313280E-1,2.871387303E-1,4.265206456E-1,9.757930756E0
3.070702800E-1,3.056831062E-1,4.169493318E-1,9.772287369E0
3.093056930E-1,2.913261652E-1,4.169493318E-1,9.777072906E0
3.115384810E-1,3.158525825E-1,4.259224236E-1,9.772287369E0
3.137635780E-1,3.110669553E-1,4.313062727E-1,9.767501831E0
3.160031420E-1,2.967100143E-1,4.265206456E-1,9.772287369E0
3.182527760E-1,2.967100143E-1,4.265206456E-1,9.772287369E0
3.204911180E-1,3.110669553E-1,4.307080805E-1,9.781859398E0
3.227282400E-1,3.014956415E-1,4.265206456E-1,9.777072906E0
3.249620650E-1,3.158525825E-1,4.307080805E-1,9.763314247E0
3.271999800E-1,2.961117923E-1,4.169493318E-1,9.772287369E0
3.294357590E-1,2.967100143E-1,4.169493318E-1,9.767501831E0
3.316725750E-1,2.967100143E-1,4.169493318E-1,9.762716293E0
3.339093920E-1,2.967100143E-1,4.313062727E-1,9.753145218E0
3.361473070E-1,2.967100143E-1,4.313062727E-1,9.791430473E0
3.383834520E-1,2.919243574E-1,4.265206456E-1,9.781859398E0
3.406195360E-1,2.967100143E-1,4.313062727E-1,9.767501831E0
3.428563520E-1,3.008974493E-1,4.121637046E-1,9.767501831E0
3.450940230E-1,3.008974493E-1,4.025924206E-1,9.767501831E0
3.473300460E-1,3.062812984E-1,4.265206456E-1,9.753145218E0
3.495668620E-1,2.919243574E-1,4.265206456E-1,9.772287369E0
3.518036790E-1,2.967100143E-1,4.217349887E-1,9.772287369E0
3.540384810E-1,3.014956415E-1,4.265206456E-1,9.781859398E0
3.562653490E-1,3.158525825E-1,4.354937077E-1,9.781859398E0
3.585140670E-1,3.008974493E-1,4.217349887E-1,9.786644936E0
3.607506390E-1,3.158525825E-1,4.259224236E-1,9.781859398E0
3.629914230E-1,3.014956415E-1,4.313062727E-1,9.786644936E0
3.652242720E-1,2.967100143E-1,4.265206456E-1,9.777072906E0
3.674611500E-1,2.967100143E-1,4.169493318E-1,9.743574142E0
3.696979660E-1,3.008974493E-1,4.169493318E-1,9.777072906E0
3.719357590E-1,3.014956415E-1,4.217349887E-1,9.767501831E0
3.741715380E-1,2.919243574E-1,4.408775866E-1,9.753145218E0
3.764051800E-1,3.014956415E-1,4.313062727E-1,9.753145218E0
3.786332080E-1,3.062812984E-1,4.408775866E-1,9.767501831E0
3.808827190E-1,3.110669553E-1,4.354937077E-1,9.781859398E0
3.831186200E-1,2.919243574E-1,4.360919297E-1,9.772287369E0
3.853583060E-1,2.919243574E-1,4.217349887E-1,9.772287369E0
3.875920090E-1,2.967100143E-1,4.408775866E-1,9.781859398E0
3.898300460E-1,2.967100143E-1,4.265206456E-1,9.767501831E0
3.920658250E-1,3.014956415E-1,4.360919297E-1,9.762716293E0
3.943024580E-1,2.967100143E-1,4.360919297E-1,9.762716293E0
3.965392750E-1,3.014956415E-1,4.265206456E-1,9.762716293E0
3.987773120E-1,2.961117923E-1,4.217349887E-1,9.772287369E0
4.010130900E-1,2.871387303E-1,4.265206456E-1,9.757930756E0
4.032494800E-1,2.823530734E-1,4.408775866E-1,9.772287369E0
4.054864790E-1,2.967100143E-1,4.408775866E-1,9.753145218E0
4.077242720E-1,3.158525825E-1,4.259224236E-1,9.777072906E0
4.099601730E-1,3.062812984E-1,4.313062727E-1,9.762716293E0
4.121966840E-1,3.014956415E-1,4.360919297E-1,9.781859398E0
4.144335010E-1,2.967100143E-1,4.313062727E-1,9.777072906E0
4.166712940E-1,3.062812984E-1,4.360919297E-1,9.777072906E0
4.189041420E-1,3.062812984E-1,4.307080805E-1,9.786644936E0
4.211318040E-1,2.967100143E-1,4.313062727E-1,9.767501831E0
4.233808270E-1,2.919243574E-1,4.456632137E-1,9.762716293E0
4.256169110E-1,2.967100143E-1,4.360919297E-1,9.748359680E0
4.278506150E-1,2.919243574E-1,4.313062727E-1,9.786644936E0
4.300909710E-1,3.014956415E-1,4.265206456E-1,9.772287369E0
4.323278490E-1,2.961117923E-1,4.073780477E-1,9.767501831E0
4.345675340E-1,2.919243574E-1,4.217349887E-1,9.757930756E0
4.368014820E-1,2.817548811E-1,4.073780477E-1,9.753145218E0
4.390382980E-1,2.775674164E-1,4.265206456E-1,9.757930756E0
4.412751140E-1,3.110669553E-1,4.354937077E-1,9.781859398E0
4.435131510E-1,3.014956415E-1,4.360919297E-1,9.762716293E0
4.457486860E-1,3.014956415E-1,4.169493318E-1,9.753145218E0
4.479822670E-1,2.913261652E-1,4.265206456E-1,9.796216011E0
4.502101120E-1,2.823530734E-1,4.313062727E-1,9.781859398E0
4.524601730E-1,3.008974493E-1,4.169493318E-1,9.772287369E0
4.546960740E-1,3.062812984E-1,4.121637046E-1,9.753145218E0
4.569358810E-1,3.110669553E-1,4.265206456E-1,9.757930756E0
4.591695850E-1,3.014956415E-1,4.360919297E-1,9.781859398E0
4.614071330E-1,3.014956415E-1,4.408775866E-1,9.772287369E0
4.636429120E-1,2.871387303E-1,4.360919297E-1,9.772287369E0
4.658795460E-1,3.104687333E-1,4.115654826E-1,9.781859398E0
4.681166670E-1,2.823530734E-1,4.360919297E-1,9.767501831E0
4.703544600E-1,3.014956415E-1,4.217349887E-1,9.762716293E0
4.725903000E-1,3.014956415E-1,4.265206456E-1,9.757930756E0
4.748268110E-1,3.008974493E-1,4.169493318E-1,9.772287369E0
4.770636890E-1,3.110669553E-1,4.169493318E-1,9.762716293E0
4.793016650E-1,3.110669553E-1,4.121637046E-1,9.753145218E0
4.815373210E-1,2.967100143E-1,4.408775866E-1,9.762716293E0
4.837710860E-1,3.110669553E-1,4.354937077E-1,9.767501831E0
4.859979530E-1,3.056831062E-1,4.217349887E-1,9.781859398E0
4.882458170E-1,2.967100143E-1,4.313062727E-1,9.772287369E0
4.904846480E-1,3.110669553E-1,4.259224236E-1,9.772287369E0
4.927247000E-1,3.062812984E-1,4.217349887E-1,9.767501831E0
4.949590140E-1,3.014956415E-1,4.265206456E-1,9.757930756E0
4.971961960E-1,2.913261652E-1,4.073780477E-1,9.767501831E0
4.994314260E-1,3.062812984E-1,4.265206456E-1,9.767501831E0
5.016681200E-1,2.919243574E-1,4.360919297E-1,9.786644936E0
5.039057900E-1,3.014956415E-1,4.360919297E-1,9.772287369E0
5.061456590E-1,3.014956415E-1,4.313062727E-1,9.757930756E0
5.083786300E-1,3.008974493E-1,4.217349887E-1,9.791430473E0
5.106153850E-1,2.919243574E-1,4.265206456E-1,9.757930756E0
5.128515920E-1,3.062812984E-1,4.217349887E-1,9.772287369E0
5.150873700E-1,2.961117923E-1,4.073780477E-1,9.767501831E0
5.173142380E-1,3.014956415E-1,4.217349887E-1,9.772287369E0
5.195629560E-1,2.967100143E-1,4.265206456E-1,9.762716293E0
5.217994670E-1,2.919243574E-1,4.265206456E-1,9.767501831E0
5.240415320E-1,3.062812984E-1,4.360919297E-1,9.767501831E0
5.262771890E-1,2.967100143E-1,4.313062727E-1,9.743574142E0
5.285044230E-1,3.056831062E-1,4.259224236E-1,9.786644936E0
5.307411790E-1,2.865405083E-1,4.169493318E-1,9.786644936E0
5.329833050E-1,2.919243574E-1,4.265206456E-1,9.762716293E0
5.352214040E-1,2.871387303E-1,4.313062727E-1,9.767501831E0
5.374583420E-1,2.919243574E-1,4.313062727E-1,9.767501831E0
5.396936940E-1,2.823530734E-1,4.217349887E-1,9.772287369E0
5.419313030E-1,2.871387303E-1,4.313062727E-1,9.762716293E0
5.441673870E-1,3.014956415E-1,4.456632137E-1,9.772287369E0
5.464039600E-1,2.871387303E-1,4.265206456E-1,9.767501831E0
5.486408980E-1,2.775674164E-1,4.265206456E-1,9.772287369E0
5.508788740E-1,3.014956415E-1,4.313062727E-1,9.777072906E0
5.531147140E-1,3.110669553E-1,4.354937077E-1,9.777072906E0
5.553513470E-1,3.014956415E-1,4.313062727E-1,9.777072906E0
5.575882860E-1,2.967100143E-1,4.265206456E-1,9.762716293E0
5.598258350E-1,2.727817893E-1,4.265206456E-1,9.772287369E0
5.620617350E-1,2.865405083E-1,4.121637046E-1,9.767501831E0
5.642984300E-1,3.014956415E-1,4.265206456E-1,9.777072906E0
5.665351240E-1,3.062812984E-1,4.360919297E-1,9.772287369E0
5.687701090E-1,3.014956415E-1,4.265206456E-1,9.762716293E0
5.709967330E-1,2.967100143E-1,4.217349887E-1,9.772287369E0
5.732455730E-1,2.913261652E-1,4.217349887E-1,9.777072906E0
5.754823290E-1,2.865405083E-1,4.169493318E-1,9.762716293E0
5.777231740E-1,3.014956415E-1,4.265206456E-1,9.762716293E0
5.799559620E-1,3.104687333E-1,4.163511395E-1,9.796216011E0
5.821925950E-1,2.865405083E-1,4.121637046E-1,9.772287369E0
5.844296550E-1,2.871387303E-1,4.265206456E-1,9.767501831E0
5.866675090E-1,2.913261652E-1,4.121637046E-1,9.786644936E0
5.889035320E-1,2.919243574E-1,4.360919297E-1,9.748359680E0
5.911398600E-1,3.110669553E-1,4.265206456E-1,9.762716293E0
5.933769210E-1,2.967100143E-1,4.504488707E-1,9.767501831E0
5.956139210E-1,2.919243574E-1,4.360919297E-1,9.767501831E0
5.978479290E-1,2.823530734E-1,4.265206456E-1,9.777072906E0
6.000882860E-1,2.967100143E-1,4.169493318E-1,9.757930756E0
6.023238810E-1,2.871387303E-1,4.265206456E-1,9.767501831E0
6.045609420E-1,3.110669553E-1,4.307080805E-1,9.772287369E0
6.067913500E-1,3.062812984E-1,4.313062727E-1,9.772287369E0
6.090341480E-1,2.967100143E-1,4.217349887E-1,9.762716293E0
6.112711470E-1,3.062812984E-1,4.360919297E-1,9.767501831E0
6.135102220E-1,3.200400174E-1,4.115654826E-1,9.786644936E0
6.157448410E-1,2.967100143E-1,4.217349887E-1,9.767501831E0
6.179784220E-1,2.961117923E-1,4.217349887E-1,9.791430473E0
6.202065720E-1,2.919243574E-1,4.313062727E-1,9.772287369E0
6.224562060E-1,2.919243574E-1,4.169493318E-1,9.753145218E0
6.246888710E-1,2.967100143E-1,4.313062727E-1,9.772287369E0
6.269195850E-1,2.913261652E-1,4.121637046E-1,9.762716293E0
6.291651900E-1,3.110669553E-1,4.307080805E-1,9.777072906E0
6.314032270E-1,3.110669553E-1,4.450650215E-1,9.777072906E0
6.336418140E-1,3.062812984E-1,4.408775866E-1,9.772287369E0
6.358726480E-1,2.967100143E-1,4.360919297E-1,9.781859398E0
6.381002490E-1,2.961117923E-1,4.169493318E-1,9.767501831E0
6.403503100E-1,2.913261652E-1,4.121637046E-1,9.781859398E0
6.425860890E-1,3.104687333E-1,4.073780477E-1,9.767501831E0
6.448233930E-1,2.919243574E-1,4.217349887E-1,9.767501831E0
6.470502000E-1,3.062812984E-1,4.360919297E-1,9.772287369E0
6.492972700E-1,3.014956415E-1,4.217349887E-1,9.772287369E0
6.515331710E-1,3.110669553E-1,4.265206456E-1,9.762716293E0
6.537692550E-1,2.871387303E-1,4.265206456E-1,9.743574142E0
6.559946580E-1,2.919243574E-1,4.265206456E-1,9.772287369E0
6.582448410E-1,3.062812984E-1,4.313062727E-1,9.767501831E0
6.604803760E-1,2.823530734E-1,4.313062727E-1,9.772287369E0
6.627200610E-1,3.008974493E-1,4.025924206E-1,9.777072906E0
6.649540080E-1,3.158525825E-1,4.259224236E-1,9.758528709E0
6.671918010E-1,3.110669553E-1,4.259224236E-1,9.781859398E0
6.694275190E-1,3.062812984E-1,4.313062727E-1,9.781859398E0
6.716645190E-1,2.919243574E-1,4.265206456E-1,9.767501831E0
6.738983440E-1,2.913261652E-1,4.169493318E-1,9.772287369E0
6.761242960E-1,2.961117923E-1,4.217349887E-1,9.781859398E0
6.783642870E-1,2.919243574E-1,4.265206456E-1,9.772287369E0
6.806158740E-1,3.014956415E-1,4.265206456E-1,9.762716293E0
6.828513480E-1,2.865405083E-1,4.169493318E-1,9.767501831E0
6.850892630E-1,2.865405083E-1,4.217349887E-1,9.781859398E0
6.873209510E-1,2.727817893E-1,4.217349887E-1,9.762716293E0
6.895590500E-1,2.919243574E-1,4.313062727E-1,9.762716293E0
6.917955610E-1,3.008974493E-1,4.169493318E-1,9.781859398E0
6.940333540E-1,2.961117923E-1,4.169493318E-1,9.772287369E0
6.962688280E-1,2.913261652E-1,4.217349887E-1,9.781859398E0
6.985055220E-1,2.967100143E-1,4.360919297E-1,9.786644936E0
7.007425830E-1,2.919243574E-1,4.265206456E-1,9.781859398E0
7.029804370E-1,2.967100143E-1,4.217349887E-1,9.762716293E0
7.052163370E-1,2.967100143E-1,4.313062727E-1,9.786644936E0
7.074530930E-1,2.919243574E-1,4.217349887E-1,9.757930756E0
7.096899090E-1,3.062812984E-1,4.265206456E-1,9.767501831E0
7.119277020E-1,2.823530734E-1,4.313062727E-1,9.777072906E0
7.141634810E-1,3.014956415E-1,4.217349887E-1,9.753145218E0
7.164000530E-1,3.062812984E-1,4.360919297E-1,9.777072906E0
7.186341850E-1,2.961117923E-1,4.265206456E-1,9.786644936E0
7.208639210E-1,3.152543902E-1,4.067798555E-1,9.772287369E0
7.231105640E-1,2.769692242E-1,4.169493318E-1,9.767501831E0
7.253473800E-1,2.967100143E-1,4.217349887E-1,9.757930756E0
7.275868810E-1,3.158525825E-1,4.211367965E-1,9.767501831E0
7.298219890E-1,3.062812984E-1,4.265206456E-1,9.757930756E0
7.320577680E-1,3.056831062E-1,4.073780477E-1,9.772287369E0
7.342943400E-1,3.152543902E-1,4.115654826E-1,9.781859398E0
7.365311570E-1,2.919243574E-1,4.313062727E-1,9.772287369E0
7.387689500E-1,3.062812984E-1,4.217349887E-1,9.762716293E0
7.410048510E-1,2.961117923E-1,4.169493318E-1,9.777072906E0
7.432416670E-1,2.967100143E-1,4.313062727E-1,9.767501831E0
7.454784840E-1,3.062812984E-1,4.360919297E-1,9.772287369E0
7.477162760E-1,3.014956415E-1,4.265206456E-1,9.772287369E0
7.499520550E-1,2.967100143E-1,4.169493318E-1,9.762716293E0
7.521886890E-1,2.871387303E-1,4.313062727E-1,9.786644936E0
7.544257490E-1,2.823530734E-1,4.456632137E-1,9.777072906E0
7.566634810E-1,3.056831062E-1,4.211367965E-1,9.801001549E0
7.588991380E-1,3.056831062E-1,4.211367965E-1,9.796216011E0
7.611329020E-1,3.014956415E-1,4.169493318E-1,9.767501831E0
7.633577560E-1,3.056831062E-1,4.073780477E-1,9.772287369E0
7.655979300E-1,2.961117923E-1,4.217349887E-1,9.781859398E0
7.678437180E-1,3.014956415E-1,4.313062727E-1,9.753145218E0
7.700862110E-1,2.775674164E-1,4.313062727E-1,9.786644936E0
7.723229660E-1,2.871387303E-1,4.313062727E-1,9.777072906E0
7.745581950E-1,2.817548811E-1,4.073780477E-1,9.762716293E0
7.767934250E-1,2.967100143E-1,4.265206456E-1,9.772287369E0
7.790304850E-1,2.967100143E-1,4.265206456E-1,9.786644936E0
7.812673020E-1,3.014956415E-1,4.265206456E-1,9.777072906E0
7.835048510E-1,3.062812984E-1,4.313062727E-1,9.767501831E0
7.857406300E-1,3.062812984E-1,4.217349887E-1,9.772287369E0
7.879774460E-1,2.967100143E-1,4.265206456E-1,9.777072906E0
7.902143230E-1,3.014956415E-1,4.121637046E-1,9.757930756E0
7.924521160E-1,2.769692242E-1,4.073780477E-1,9.767501831E0
7.946878950E-1,2.823530734E-1,4.360919297E-1,9.757930756E0
7.969244670E-1,2.919243574E-1,4.313062727E-1,9.767501831E0
7.991612840E-1,2.871387303E-1,4.217349887E-1,9.767501831E0
8.013990770E-1,3.008974493E-1,4.121637046E-1,9.772287369E0
8.036349170E-1,3.014956415E-1,4.313062727E-1,9.772287369E0
8.058714890E-1,2.871387303E-1,4.265206456E-1,9.762716293E0
8.081083660E-1,3.014956415E-1,4.360919297E-1,9.762716293E0
8.103434730E-1,3.014956415E-1,4.265206456E-1,9.767501831E0
8.125676560E-1,2.817548811E-1,4.217349887E-1,9.777072906E0
8.148074020E-1,2.961117923E-1,4.169493318E-1,9.791430473E0
8.170558760E-1,3.008974493E-1,4.211367965E-1,9.796216011E0
8.192965380E-1,2.817548811E-1,4.169493318E-1,9.796216011E0
8.215320730E-1,3.062812984E-1,4.217349887E-1,9.767501831E0
8.237642500E-1,2.913261652E-1,4.217349887E-1,9.781859398E0
8.259967330E-1,2.919243574E-1,4.504488707E-1,9.767501831E0
8.282406300E-1,2.871387303E-1,4.265206456E-1,9.772287369E0
8.304762860E-1,3.062812984E-1,4.360919297E-1,9.772287369E0
8.327145680E-1,3.008974493E-1,4.169493318E-1,9.772287369E0
8.349498580E-1,2.913261652E-1,4.169493318E-1,9.796216011E0
8.371877120E-1,3.008974493E-1,3.930211067E-1,9.791430473E0
8.394235520E-1,2.961117923E-1,4.169493318E-1,9.786644936E0
8.416573160E-1,3.008974493E-1,4.169493318E-1,9.786644936E0
8.438819870E-1,3.104687333E-1,4.259224236E-1,9.796216011E0
8.461229540E-1,2.919243574E-1,4.265206456E-1,9.767501831E0
8.483705120E-1,2.919243574E-1,4.265206456E-1,9.767501831E0
8.506103810E-1,3.062812984E-1,4.265206456E-1,9.772287369E0
8.528471970E-1,3.008974493E-1,4.265206456E-1,9.791430473E0
8.550823040E-1,2.961117923E-1,4.121637046E-1,9.781859398E0
8.573180220E-1,2.865405083E-1,4.169493318E-1,9.786644936E0
8.595544110E-1,2.967100143E-1,4.456632137E-1,9.777072906E0
8.617914110E-1,3.014956415E-1,4.265206456E-1,9.762716293E0
8.640292040E-1,3.014956415E-1,4.217349887E-1,9.772287369E0
8.662651660E-1,3.062812984E-1,4.354937077E-1,9.786644936E0
8.685019210E-1,2.919243574E-1,4.265206456E-1,9.777072906E0
8.707387370E-1,2.967100143E-1,4.313062727E-1,9.757930756E0
8.729764690E-1,2.775674164E-1,4.408775866E-1,9.772287369E0
8.752121260E-1,3.008974493E-1,4.313062727E-1,9.796216011E0
8.774491260E-1,3.056831062E-1,4.115654826E-1,9.791430473E0
8.796858200E-1,2.913261652E-1,4.169493318E-1,9.772287369E0
8.819240400E-1,2.967100143E-1,4.360919297E-1,9.786644936E0
8.841592700E-1,2.817548811E-1,4.169493318E-1,9.791430473E0
8.863929120E-1,3.014956415E-1,4.217349887E-1,9.767501831E0
8.886206950E-1,3.014956415E-1,4.217349887E-1,9.767501831E0
8.908708170E-1,2.919243574E-1,4.360919297E-1,9.767501831E0
8.931066570E-1,3.056831062E-1,4.259224236E-1,9.801001549E0
8.953462210E-1,2.961117923E-1,4.169493318E-1,9.781859398E0
8.975799850E-1,2.871387303E-1,4.265206456E-1,9.767501831E0
8.998177170E-1,3.206382394E-1,4.259224236E-1,9.762716293E0
9.020533740E-1,3.014956415E-1,4.408775866E-1,9.772287369E0
9.042901900E-1,2.871387303E-1,4.265206456E-1,9.757930756E0
9.065271280E-1,3.014956415E-1,4.408775866E-1,9.786644936E0
9.087654100E-1,2.823530734E-1,4.360919297E-1,9.757930756E0
9.109980140E-1,3.014956415E-1,4.217349887E-1,9.772287369E0
9.132257980E-1,2.967100143E-1,4.169493318E-1,9.757930756E0
9.154742720E-1,2.919243574E-1,4.265206456E-1,9.772287369E0
9.177123090E-1,2.967100143E-1,4.265206456E-1,9.753145218E0
9.199508960E-1,3.056831062E-1,4.169493318E-1,9.777072906E0
9.221847820E-1,2.967100143E-1,4.217349887E-1,9.757930756E0
9.244186080E-1,2.769692242E-1,4.121637046E-1,9.762716293E0
9.266447430E-1,2.919243574E-1,4.169493318E-1,9.753145218E0
9.288804610E-1,2.871387303E-1,4.169493318E-1,9.757930756E0
9.311197800E-1,3.008974493E-1,4.217349887E-1,9.791430473E0
9.333714890E-1,3.110669553E-1,4.402793646E-1,9.791430473E0
9.356093430E-1,3.014956415E-1,4.313062727E-1,9.762716293E0
9.378479290E-1,3.008974493E-1,4.265206456E-1,9.791430473E0
9.400888350E-1,3.110669553E-1,4.307080805E-1,9.772287369E0
9.423159470E-1,2.913261652E-1,4.217349887E-1,9.781859398E0
9.445509320E-1,3.152543902E-1,4.163511395E-1,9.772287369E0
9.467752980E-1,2.769692242E-1,4.073780477E-1,9.757930756E0
9.490260910E-1,2.967100143E-1,4.313062727E-1,9.753145218E0
9.512630290E-1,2.961117923E-1,4.169493318E-1,9.801001549E0
9.535035690E-1,3.008974493E-1,4.265206456E-1,9.791430473E0
9.557365400E-1,2.967100143E-1,4.408775866E-1,9.772287369E0
9.579723200E-1,2.919243574E-1,4.456632137E-1,9.767501831E0
9.602062670E-1,2.913261652E-1,4.217349887E-1,9.786644936E0
9.624479660E-1,3.014956415E-1,4.408775866E-1,9.767501831E0
9.646808150E-1,2.871387303E-1,4.360919297E-1,9.777072906E0
9.669096360E-1,3.014956415E-1,4.265206456E-1,9.767501831E0
9.691574390E-1,2.871387303E-1,4.360919297E-1,9.762716293E0
9.713952320E-1,2.871387303E-1,4.408775866E-1,9.767501831E0
9.736340010E-1,2.871387303E-1,4.265206456E-1,9.767501831E0
9.758676440E-1,2.961117923E-1,4.025924206E-1,9.762716293E0
9.781046430E-1,2.775674164E-1,4.360919297E-1,9.777072906E0
9.803421920E-1,3.062812984E-1,4.217349887E-1,9.777072906E0
9.825780320E-1,2.967100143E-1,4.265206456E-1,9.781859398E0
9.848116740E-1,2.823530734E-1,4.360919297E-1,9.791430473E0
9.870400070E-1,2.865405083E-1,4.217349887E-1,9.781859398E0
9.892894580E-1,2.967100143E-1,4.313062727E-1,9.777072906E0
9.915251140E-1,2.961117923E-1,4.169493318E-1,9.777072906E0
9.937630910E-1,2.865405083E-1,4.121637046E-1,9.762716293E0
9.959919110E-1,3.062812984E-1,4.456632137E-1,9.772287369E0
9.982367840E-1,3.062812984E-1,4.456632137E-1,9.772287369E0
1.000472380E0,3.056831062E-1,4.073780477E-1,9.767501831E0
1.002710905E0,2.919243574E-1,4.313062727E-1,9.777072906E0
1.004945952E0,3.062812984E-1,4.265206456E-1,9.777072906E0
1.007183745E0,2.919243574E-1,4.217349887E-1,9.762716293E0
1.009419340E0,2.919243574E-1,4.265206456E-1,9.767501831E0
1.011656157E0,2.967100143E-1,4.313062727E-1,9.762716293E0
1.013890043E0,2.871387303E-1,4.217349887E-1,9.757930756E0
1.016116179E0,2.919243574E-1,4.313062727E-1,9.777072906E0
1.018354887E0,3.014956415E-1,4.360919297E-1,9.791430473E0
1.020603239E0,2.871387303E-1,4.360919297E-1,9.762716293E0
1.022843230E0,2.919243574E-1,4.360919297E-1,9.786644936E0
1.025080962E0,2.871387303E-1,4.217349887E-1,9.757930756E0
1.027313750E0,2.823530734E-1,4.265206456E-1,9.781859398E0
1.029550749E0,3.110669553E-1,4.265206456E-1,9.762716293E0
1.031787566E0,3.062812984E-1,4.313062727E-1,9.772287369E0
1.034025359E0,2.919243574E-1,4.456632137E-1,9.757930756E0
1.036260893E0,2.919243574E-1,4.217349887E-1,9.753145218E0
1.038497649E0,2.919243574E-1,4.265206456E-1,9.777072906E0
1.040734282E0,3.062812984E-1,4.265206456E-1,9.772287369E0
1.042972380E0,3.014956415E-1,4.313062727E-1,9.762716293E0
1.045208220E0,3.062812984E-1,4.360919297E-1,9.772287369E0
1.047445097E0,2.865405083E-1,4.169493318E-1,9.777072906E0
1.049681853E0,2.823530734E-1,4.217349887E-1,9.762716293E0
1.051919585E0,3.008974493E-1,4.265206456E-1,9.786644936E0
1.054155180E0,3.110669553E-1,4.307080805E-1,9.772287369E0
1.056392058E0,3.008974493E-1,4.217349887E-1,9.786644936E0
1.058629118E0,2.823530734E-1,4.217349887E-1,9.772287369E0
1.060866911E0,2.865405083E-1,4.169493318E-1,9.791430473E0
1.063102507E0,2.871387303E-1,4.265206456E-1,9.772287369E0
1.065339201E0,2.865405083E-1,4.169493318E-1,9.772287369E0
1.067575896E0,2.967100143E-1,4.313062727E-1,9.753145218E0
1.069814177E0,3.062812984E-1,4.456632137E-1,9.781859398E0
1.072049773E0,2.775674164E-1,4.265206456E-1,9.777072906E0
1.074286589E0,2.919243574E-1,4.313062727E-1,9.786644936E0
1.076523039E0,3.062812984E-1,4.217349887E-1,9.757930756E0
1.078760160E0,3.110669553E-1,4.217349887E-1,9.762716293E0
1.080993742E0,3.062812984E-1,4.360919297E-1,9.777072906E0
1.083233366E0,3.056831062E-1,4.211367965E-1,9.786644936E0
1.085470427E0,3.014956415E-1,4.265206456E-1,9.757930756E0
1.087708953E0,3.062812984E-1,4.408775866E-1,9.762716293E0
1.089944121E0,3.104687333E-1,4.121637046E-1,9.757930756E0
1.092180876E0,2.967100143E-1,4.169493318E-1,9.757930756E0
1.094417692E0,2.823530734E-1,4.360919297E-1,9.753145218E0
1.096655485E0,2.919243574E-1,4.456632137E-1,9.762716293E0
1.098891264E0,2.919243574E-1,4.360919297E-1,9.772287369E0
1.101127837E0,2.967100143E-1,4.360919297E-1,9.777072906E0
1.103364653E0,3.014956415E-1,4.313062727E-1,9.762716293E0
1.105602446E0,2.967100143E-1,4.217349887E-1,9.762716293E0
1.107826445E0,2.919243574E-1,4.217349887E-1,9.772287369E0
1.110063871E0,2.913261652E-1,4.217349887E-1,9.786644936E0
1.112301054E0,2.967100143E-1,4.313062727E-1,9.791430473E0
1.114537810E0,3.008974493E-1,4.265206456E-1,9.791430473E0
1.116773344E0,2.913261652E-1,4.073780477E-1,9.777072906E0
1.119010344E0,3.014956415E-1,4.313062727E-1,9.762716293E0
1.121247221E0,2.961117923E-1,4.217349887E-1,9.777072906E0
1.123485258E0,3.158525825E-1,4.402793646E-1,9.781859398E0
1.125722380E0,2.961117923E-1,4.169493318E-1,9.767501831E0
1.127957732E0,3.014956415E-1,4.360919297E-1,9.777072906E0
1.130194548E0,3.014956415E-1,4.313062727E-1,9.772287369E0
1.132435271E0,2.919243574E-1,4.313062727E-1,9.781859398E0
1.134682525E0,2.967100143E-1,4.265206456E-1,9.777072906E0
1.136918730E0,2.721835673E-1,4.169493318E-1,9.777072906E0
1.139156340E0,3.008974493E-1,4.121637046E-1,9.772287369E0
1.141390959E0,3.056831062E-1,4.073780477E-1,9.777072906E0
1.143626860E0,3.110669553E-1,4.313062727E-1,9.762716293E0
1.145863432E0,2.919243574E-1,4.313062727E-1,9.762716293E0
1.148100493E0,3.104687333E-1,4.211367965E-1,9.781859398E0
1.150338103E0,3.014956415E-1,4.265206456E-1,9.772287369E0
1.152574187E0,3.104687333E-1,4.067798555E-1,9.786644936E0
1.154810698E0,3.014956415E-1,4.217349887E-1,9.772287369E0
1.157045073E0,3.014956415E-1,4.313062727E-1,9.781859398E0
1.159270781E0,2.967100143E-1,4.217349887E-1,9.762716293E0
1.161503142E0,2.967100143E-1,4.265206456E-1,9.772287369E0
1.163757415E0,3.008974493E-1,4.121637046E-1,9.767501831E0
1.165994902E0,2.967100143E-1,4.408775866E-1,9.772287369E0
1.168237151E0,3.014956415E-1,4.217349887E-1,9.772287369E0
1.170468474E0,2.967100143E-1,4.408775866E-1,9.781859398E0
1.172705900E0,3.014956415E-1,4.217349887E-1,9.772287369E0
1.174942046E0,3.014956415E-1,4.265206456E-1,9.781859398E0
1.177179594E0,3.110669553E-1,4.259224236E-1,9.772287369E0
1.179415373E0,2.913261652E-1,4.265206456E-1,9.796216011E0
1.181652006E0,2.919243574E-1,4.360919297E-1,9.791430473E0
1.183886137E0,2.913261652E-1,4.265206456E-1,9.786644936E0
1.186114958E0,2.823530734E-1,4.265206456E-1,9.767501831E0
1.188362822E0,2.967100143E-1,4.265206456E-1,9.772287369E0
1.190599577E0,2.919243574E-1,4.265206456E-1,9.781859398E0
1.192839385E0,2.823530734E-1,4.217349887E-1,9.762716293E0
1.195074187E0,2.871387303E-1,4.265206456E-1,9.767501831E0
1.197309965E0,2.871387303E-1,4.552344978E-1,9.781859398E0
1.199546538E0,3.062812984E-1,4.360919297E-1,9.777072906E0
1.201779448E0,3.062812984E-1,4.313062727E-1,9.757930756E0
1.204005522E0,3.062812984E-1,4.169493318E-1,9.757930756E0
1.206256987E0,3.104687333E-1,4.115654826E-1,9.777072906E0
1.208493559E0,2.967100143E-1,4.265206456E-1,9.762716293E0
1.210734282E0,3.062812984E-1,4.402793646E-1,9.786644936E0
1.212968230E0,3.056831062E-1,4.217349887E-1,9.781859398E0
1.215204314E0,2.823530734E-1,4.265206456E-1,9.777072906E0
1.217440886E0,2.913261652E-1,4.217349887E-1,9.786644936E0
1.219677702E0,3.056831062E-1,4.259224236E-1,9.791430473E0
1.221915434E0,3.008974493E-1,4.265206456E-1,9.791430473E0
1.224151335E0,3.014956415E-1,4.265206456E-1,9.772287369E0
1.226388090E0,2.961117923E-1,4.217349887E-1,9.786644936E0
1.228621733E0,3.110669553E-1,4.259224236E-1,9.777072906E0
1.230850737E0,3.110669553E-1,4.259224236E-1,9.777072906E0
1.233098296E0,3.014956415E-1,4.169493318E-1,9.767501831E0
1.235335234E0,2.967100143E-1,4.360919297E-1,9.781859398E0
1.237575164E0,2.919243574E-1,4.313062727E-1,9.762716293E0
1.239809782E0,3.008974493E-1,4.217349887E-1,9.786644936E0
1.242045622E0,2.919243574E-1,4.265206456E-1,9.777072906E0
1.244282378E0,2.919243574E-1,4.360919297E-1,9.748359680E0
1.246519255E0,3.062812984E-1,4.360919297E-1,9.767501831E0
1.248756987E0,3.158525825E-1,4.169493318E-1,9.753743172E0
1.250992583E0,2.919243574E-1,4.169493318E-1,9.757930756E0
1.253229399E0,2.679961324E-1,4.175475538E-1,9.762716293E0
1.255466215E0,2.727817893E-1,4.223332107E-1,9.757930756E0
1.257704069E0,2.871387303E-1,4.265206456E-1,9.767501831E0
1.259939970E0,3.014956415E-1,4.313062727E-1,9.777072906E0
1.262176970E0,3.014956415E-1,4.360919297E-1,9.762716293E0
1.264413542E0,3.014956415E-1,4.217349887E-1,9.757930756E0
1.266648344E0,3.158525825E-1,4.354937077E-1,9.772287369E0
1.268875090E0,3.014956415E-1,4.360919297E-1,9.777072906E0
1.271123686E0,2.919243574E-1,4.313062727E-1,9.753145218E0
1.273360503E0,3.014956415E-1,4.217349887E-1,9.767501831E0
1.275601348E0,2.919243574E-1,4.313062727E-1,9.762716293E0
1.277831633E0,2.913261652E-1,4.121637046E-1,9.796216011E0
1.280059782E0,3.062812984E-1,4.498506486E-1,9.791430473E0
1.282307829E0,3.008974493E-1,4.217349887E-1,9.781859398E0
1.284545561E0,3.008974493E-1,4.169493318E-1,9.781859398E0
1.286784270E0,3.014956415E-1,4.313062727E-1,9.777072906E0
1.289018278E0,3.062812984E-1,4.408775866E-1,9.762716293E0
1.291255034E0,2.865405083E-1,4.169493318E-1,9.781859398E0
1.293492644E0,2.913261652E-1,4.073780477E-1,9.777072906E0
1.295728667E0,2.871387303E-1,4.217349887E-1,9.757930756E0
1.297965300E0,2.919243574E-1,4.456632137E-1,9.781859398E0
1.300202360E0,2.823530734E-1,4.360919297E-1,9.772287369E0
1.302439848E0,2.865405083E-1,4.121637046E-1,9.777072906E0
1.304672758E0,2.919243574E-1,4.265206456E-1,9.767501831E0
1.306895903E0,2.871387303E-1,4.504488707E-1,9.801001549E0
1.309127897E0,2.967100143E-1,4.313062727E-1,9.772287369E0
1.311372404E0,3.110669553E-1,4.307080805E-1,9.772287369E0
1.313613799E0,2.967100143E-1,4.217349887E-1,9.772287369E0
1.315864470E0,2.919243574E-1,4.265206456E-1,9.781859398E0
1.318099517E0,2.967100143E-1,4.360919297E-1,9.767501831E0
1.320337187E0,2.823530734E-1,4.360919297E-1,9.762716293E0
1.322569914E0,2.967100143E-1,4.169493318E-1,9.762716293E0
1.324803740E0,3.062812984E-1,4.313062727E-1,9.762716293E0
1.327032378E0,2.871387303E-1,4.313062727E-1,9.767501831E0
1.329281218E0,2.871387303E-1,4.265206456E-1,9.772287369E0
1.331517302E0,2.919243574E-1,4.360919297E-1,9.772287369E0
1.333756926E0,2.865405083E-1,4.025924206E-1,9.781859398E0
1.335991911E0,2.865405083E-1,4.217349887E-1,9.786644936E0
1.338228423E0,2.865405083E-1,4.217349887E-1,9.777072906E0
1.340464323E0,3.014956415E-1,4.265206456E-1,9.772287369E0
1.342700835E0,3.062812984E-1,4.313062727E-1,9.762716293E0
1.344937956E0,2.871387303E-1,4.313062727E-1,9.767501831E0
1.347175749E0,2.871387303E-1,4.313062727E-1,9.786644936E0
1.349411528E0,3.062812984E-1,4.217349887E-1,9.772287369E0
1.351648039E0,3.008974493E-1,4.169493318E-1,9.777072906E0
1.353881743E0,3.014956415E-1,4.360919297E-1,9.777072906E0
1.356111052E0,2.871387303E-1,4.265206456E-1,9.777072906E0
1.358358855E0,3.014956415E-1,4.360919297E-1,9.777072906E0
1.360595549E0,2.967100143E-1,4.360919297E-1,9.781859398E0
1.362835417E0,2.919243574E-1,4.313062727E-1,9.772287369E0
1.365069914E0,3.110669553E-1,4.354937077E-1,9.781859398E0
1.367305571E0,2.919243574E-1,4.456632137E-1,9.748359680E0
1.369542387E0,2.775674164E-1,4.313062727E-1,9.772287369E0
1.371779509E0,2.961117923E-1,4.169493318E-1,9.786644936E0
1.374017302E0,2.913261652E-1,4.073780477E-1,9.757930756E0
1.376252898E0,2.871387303E-1,4.313062727E-1,9.762716293E0
1.378486662E0,3.062812984E-1,4.169493318E-1,9.757930756E0
1.380714506E0,3.008974493E-1,4.217349887E-1,9.791430473E0
1.382964323E0,2.919243574E-1,4.313062727E-1,9.772287369E0
1.385197233E0,3.110669553E-1,4.217349887E-1,9.767501831E0
1.387428191E0,3.008974493E-1,4.169493318E-1,9.781859398E0
1.389673552E0,2.967100143E-1,4.360919297E-1,9.781859398E0
1.391911528E0,3.014956415E-1,4.408775866E-1,9.781859398E0
1.394150054E0,3.158525825E-1,4.259224236E-1,9.777072906E0
1.396384062E0,2.961117923E-1,4.265206456E-1,9.786644936E0
1.398621001E0,2.871387303E-1,4.313062727E-1,9.767501831E0
1.400858610E0,3.014956415E-1,4.217349887E-1,9.772287369E0
1.403094389E0,3.349951804E-1,4.307080805E-1,9.768099785E0
1.405330901E0,2.817548811E-1,4.073780477E-1,9.777072906E0
1.407567839E0,2.823530734E-1,4.313062727E-1,9.772287369E0
1.409805876E0,2.865405083E-1,4.313062727E-1,9.796216011E0
1.412041716E0,2.967100143E-1,4.456632137E-1,9.772287369E0
1.414278288E0,3.014956415E-1,4.217349887E-1,9.767501831E0
1.416514983E0,3.062812984E-1,4.307080805E-1,9.791430473E0
1.418752592E0,3.110669553E-1,4.265206456E-1,9.762716293E0
1.420988737E0,2.961117923E-1,4.121637046E-1,9.767501831E0
1.423225554E0,3.014956415E-1,4.360919297E-1,9.786644936E0
1.425462431E0,3.014956415E-1,4.360919297E-1,9.772287369E0
1.427700163E0,3.062812984E-1,4.265206456E-1,9.781859398E0
1.429935942E0,2.967100143E-1,4.265206456E-1,9.777072906E0
1.432172514E0,3.110669553E-1,4.313062727E-1,9.767501831E0
1.434409331E0,2.967100143E-1,4.313062727E-1,9.786644936E0
1.436647124E0,2.967100143E-1,4.360919297E-1,9.777072906E0
1.438882354E0,3.110669553E-1,4.265206456E-1,9.762716293E0
1.441117155E0,3.056831062E-1,4.073780477E-1,9.786644936E0
1.443356657E0,3.014956415E-1,4.313062727E-1,9.786644936E0
1.445594450E0,3.206382394E-1,4.354937077E-1,9.781859398E0
1.447830900E0,2.961117923E-1,4.217349887E-1,9.796216011E0
1.450066862E0,3.056831062E-1,4.163511395E-1,9.791430473E0
1.452303984E0,2.913261652E-1,4.169493318E-1,9.781859398E0
1.454541899E0,3.014956415E-1,4.169493318E-1,9.767501831E0
1.456774382E0,2.913261652E-1,4.169493318E-1,9.781859398E0
1.458997831E0,2.817548811E-1,4.025924206E-1,9.777072906E0
1.461232817E0,2.823530734E-1,4.360919297E-1,9.767501831E0
1.463488982E0,2.919243574E-1,4.408775866E-1,9.767501831E0
1.465727507E0,3.110669553E-1,4.408775866E-1,9.762716293E0
1.467965911E0,3.008974493E-1,4.025924206E-1,9.757930756E0
1.470198149E0,2.967100143E-1,4.217349887E-1,9.767501831E0
1.472435942E0,3.062812984E-1,4.313062727E-1,9.767501831E0
1.474671538E0,2.961117923E-1,4.121637046E-1,9.767501831E0
1.476908415E0,2.967100143E-1,4.265206456E-1,9.781859398E0
1.479145415E0,3.014956415E-1,4.313062727E-1,9.777072906E0
1.481383025E0,2.919243574E-1,4.360919297E-1,9.786644936E0
1.483618803E0,2.961117923E-1,4.217349887E-1,9.781859398E0
1.485855315E0,2.967100143E-1,4.360919297E-1,9.762716293E0
1.488092192E0,3.014956415E-1,4.456632137E-1,9.777072906E0
1.490330046E0,2.919243574E-1,4.504488707E-1,9.786644936E0
1.492566130E0,3.014956415E-1,4.360919297E-1,9.796216011E0
1.494802702E0,3.110669553E-1,4.265206456E-1,9.757930756E0
1.497039580E0,2.967100143E-1,4.408775866E-1,9.767501831E0
1.499277434E0,3.152543902E-1,4.163511395E-1,9.781859398E0
1.501512846E0,3.104687333E-1,4.163511395E-1,9.777072906E0
1.503745757E0,2.967100143E-1,4.217349887E-1,9.772287369E0
1.505970854E0,2.919243574E-1,4.360919297E-1,9.777072906E0
1.508224577E0,2.871387303E-1,4.456632137E-1,9.748359680E0
1.510460173E0,3.062812984E-1,4.265206456E-1,9.748359680E0
1.512700956E0,3.104687333E-1,4.073780477E-1,9.767501831E0
1.514933989E0,2.967100143E-1,4.121637046E-1,9.753145218E0
1.517171599E0,2.961117923E-1,4.217349887E-1,9.786644936E0
1.519407439E0,2.865405083E-1,4.073780477E-1,9.772287369E0
1.521644194E0,2.967100143E-1,4.313062727E-1,9.777072906E0
1.523878080E0,2.775674164E-1,4.313062727E-1,9.772287369E0
1.526106901E0,2.961117923E-1,4.169493318E-1,9.781859398E0
1.528351774E0,3.008974493E-1,4.217349887E-1,9.777072906E0
1.530579741E0,2.913261652E-1,4.217349887E-1,9.791430473E0
1.532831023E0,2.865405083E-1,4.169493318E-1,9.796216011E0
1.535065886E0,2.913261652E-1,4.121637046E-1,9.772287369E0
1.537304778E0,3.056831062E-1,4.121637046E-1,9.777072906E0
1.539538237E0,3.014956415E-1,4.313062727E-1,9.791430473E0
1.541775114E0,2.919243574E-1,4.217349887E-1,9.767501831E0
1.544013090E0,3.056831062E-1,4.217349887E-1,9.777072906E0
1.546248991E0,2.871387303E-1,4.265206456E-1,9.777072906E0
1.548485625E0,2.913261652E-1,4.217349887E-1,9.791430473E0
1.550722624E0,2.823530734E-1,4.313062727E-1,9.762716293E0
1.552960417E0,3.014956415E-1,4.265206456E-1,9.772287369E0
1.555196257E0,2.967100143E-1,4.408775866E-1,9.753145218E0
1.557432829E0,3.014956415E-1,4.360919297E-1,9.757930756E0
1.559669829E0,3.014956415E-1,4.313062727E-1,9.762716293E0
1.561907378E0,2.967100143E-1,4.265206456E-1,9.781859398E0
1.564143278E0,3.062812984E-1,4.408775866E-1,9.762716293E0
1.566379973E0,2.961117923E-1,4.121637046E-1,9.767501831E0
1.568616606E0,3.110669553E-1,4.169493318E-1,9.767501831E0
1.570854460E0,2.775674164E-1,4.265206456E-1,9.762716293E0
1.573090483E0,2.919243574E-1,4.217349887E-1,9.777072906E0
1.575327116E0,3.056831062E-1,4.121637046E-1,9.777072906E0
1.577563933E0,2.961117923E-1,4.313062727E-1,9.796216011E0
1.579801665E0,2.871387303E-1,4.360919297E-1,9.781859398E0
1.582037566E0,3.014956415E-1,4.408775866E-1,9.777072906E0
1.584274382E0,3.110669553E-1,4.259224236E-1,9.772287369E0
1.586511259E0,2.961117923E-1,4.169493318E-1,9.772287369E0
1.588746183E0,2.919243574E-1,4.360919297E-1,9.781859398E0
1.590972563E0,2.871387303E-1,4.360919297E-1,9.781859398E0
1.593221403E0,2.967100143E-1,4.313062727E-1,9.786644936E0
1.595458342E0,2.871387303E-1,4.265206456E-1,9.762716293E0
1.597699004E0,2.919243574E-1,4.360919297E-1,9.772287369E0
1.599931853E0,2.919243574E-1,4.408775866E-1,9.777072906E0
1.602168608E0,3.110669553E-1,4.313062727E-1,9.762716293E0
1.604402555E0,2.823530734E-1,4.217349887E-1,9.767501831E0
1.606628569E0,3.158525825E-1,4.211367965E-1,9.772287369E0
1.608864103E0,2.871387303E-1,4.456632137E-1,9.757930756E0
1.611103667E0,2.925225794E-1,4.600201547E-1,9.757930756E0
1.613355376E0,3.062812984E-1,4.360919297E-1,9.777072906E0
1.615593901E0,3.152543902E-1,4.163511395E-1,9.772287369E0
1.617831022E0,2.871387303E-1,4.217349887E-1,9.757930756E0
1.620059782E0,3.110669553E-1,4.211367965E-1,9.777072906E0
1.622299834E0,3.062812984E-1,4.313062727E-1,9.781859398E0
1.624537139E0,2.871387303E-1,4.169493318E-1,9.753145218E0
1.626774199E0,2.823530734E-1,4.360919297E-1,9.772287369E0
1.629010222E0,2.865405083E-1,4.121637046E-1,9.781859398E0
1.631246916E0,2.919243574E-1,4.408775866E-1,9.762716293E0
1.633484587E0,3.008974493E-1,4.265206456E-1,9.786644936E0
1.635720610E0,2.871387303E-1,4.313062727E-1,9.777072906E0
1.637957182E0,3.014956415E-1,4.360919297E-1,9.786644936E0
1.640194060E0,2.961117923E-1,4.169493318E-1,9.786644936E0
1.642431792E0,2.967100143E-1,4.265206456E-1,9.781859398E0
1.644664701E0,2.967100143E-1,4.504488707E-1,9.762716293E0
1.646892546E0,3.014956415E-1,4.265206456E-1,9.753145218E0
1.649139433E0,2.967100143E-1,4.408775866E-1,9.777072906E0
1.651371855E0,2.967100143E-1,4.313062727E-1,9.767501831E0
1.653619109E0,2.871387303E-1,4.313062727E-1,9.772287369E0
1.655851469E0,3.014956415E-1,4.265206456E-1,9.777072906E0
1.658090178E0,2.967100143E-1,4.408775866E-1,9.781859398E0
1.660325774E0,2.913261652E-1,4.169493318E-1,9.772287369E0
1.662561919E0,3.104687333E-1,4.163511395E-1,9.777072906E0
1.664795500E0,2.823530734E-1,4.360919297E-1,9.767501831E0
1.667023344E0,2.865405083E-1,4.073780477E-1,9.777072906E0
1.669273161E0,2.871387303E-1,4.313062727E-1,9.762716293E0
1.671509245E0,2.865405083E-1,4.217349887E-1,9.777072906E0
1.673745817E0,3.014956415E-1,4.456632137E-1,9.791430473E0
1.675970671E0,2.967100143E-1,4.360919297E-1,9.777072906E0
1.678220366E0,3.014956415E-1,4.360919297E-1,9.786644936E0
1.680456206E0,2.823530734E-1,4.408775866E-1,9.781859398E0
1.682695830E0,2.961117923E-1,4.265206456E-1,9.796216011E0
1.684929900E0,3.062812984E-1,4.217349887E-1,9.772287369E0
1.687167631E0,3.008974493E-1,4.121637046E-1,9.772287369E0
1.689403288E0,3.062812984E-1,4.313062727E-1,9.748359680E0
1.691640105E0,2.967100143E-1,4.169493318E-1,9.767501831E0
1.693874113E0,2.967100143E-1,4.265206456E-1,9.757930756E0
1.696102934E0,3.062812984E-1,4.313062727E-1,9.767501831E0
1.698351286E0,2.919243574E-1,4.313062727E-1,9.791430473E0
1.700587309E0,2.919243574E-1,4.265206456E-1,9.757930756E0
1.702827178E0,2.967100143E-1,4.265206456E-1,9.781859398E0
1.705061797E0,2.823530734E-1,4.217349887E-1,9.772287369E0
1.707297819E0,2.919243574E-1,4.408775866E-1,9.777072906E0
1.709534575E0,3.158525825E-1,4.211367965E-1,9.767501831E0
1.711771208E0,3.014956415E-1,4.217349887E-1,9.767501831E0
1.714009184E0,3.014956415E-1,4.504488707E-1,9.757930756E0
1.716244780E0,2.967100143E-1,4.313062727E-1,9.767501831E0
1.718481657E0,2.913261652E-1,4.217349887E-1,9.777072906E0
1.720718352E0,3.056831062E-1,4.121637046E-1,9.772287369E0
1.722956023E0,2.919243574E-1,4.313062727E-1,9.767501831E0
1.725192046E0,2.961117923E-1,4.121637046E-1,9.772287369E0
1.727428679E0,2.961117923E-1,4.073780477E-1,9.781859398E0
1.729665800E0,2.919243574E-1,4.217349887E-1,9.757930756E0
1.731903471E0,3.014956415E-1,4.408775866E-1,9.762716293E0
1.734139128E0,3.062812984E-1,4.313062727E-1,9.772287369E0
1.736375944E0,3.014956415E-1,4.408775866E-1,9.757930756E0
1.738612944E0,2.919243574E-1,4.265206456E-1,9.762716293E0
1.740850615E0,2.871387303E-1,4.313062727E-1,9.762716293E0
1.743086638E0,3.014956415E-1,4.265206456E-1,9.772287369E0
1.745323088E0,3.062812984E-1,4.313062727E-1,9.772287369E0
1.747559782E0,2.967100143E-1,4.217349887E-1,9.767501831E0
1.749797758E0,3.008974493E-1,4.217349887E-1,9.772287369E0
1.752033598E0,2.913261652E-1,4.217349887E-1,9.772287369E0
1.754270232E0,3.062812984E-1,4.307080805E-1,9.786644936E0
1.756506987E0,3.158525825E-1,4.354937077E-1,9.777072906E0
1.758744780E0,2.967100143E-1,4.265206456E-1,9.772287369E0
1.760980620E0,3.062812984E-1,4.360919297E-1,9.772287369E0
1.763217253E0,3.110669553E-1,4.354937077E-1,9.777072906E0
1.765454314E0,3.014956415E-1,4.169493318E-1,9.762716293E0
1.767692107E0,2.967100143E-1,4.265206456E-1,9.777072906E0
1.769927946E0,2.871387303E-1,4.313062727E-1,9.777072906E0
1.772162078E0,3.104687333E-1,4.163511395E-1,9.777072906E0
1.774391692E0,2.961117923E-1,4.121637046E-1,9.762716293E0
1.776638762E0,2.913261652E-1,4.265206456E-1,9.791430473E0
1.778874785E0,3.008974493E-1,4.217349887E-1,9.777072906E0
1.781114408E0,3.014956415E-1,4.408775866E-1,9.791430473E0
1.783348662E0,2.865405083E-1,4.169493318E-1,9.772287369E0
1.785586394E0,2.967100143E-1,4.265206456E-1,9.781859398E0
1.787821867E0,2.919243574E-1,4.265206456E-1,9.781859398E0
1.790058806E0,3.014956415E-1,4.456632137E-1,9.767501831E0
1.792295805E0,3.014956415E-1,4.313062727E-1,9.767501831E0
1.794533415E0,3.104687333E-1,4.211367965E-1,9.786644936E0
1.796769255E0,2.871387303E-1,4.504488707E-1,9.781859398E0
1.799006010E0,2.967100143E-1,4.313062727E-1,9.772287369E0
1.801242888E0,3.062812984E-1,4.354937077E-1,9.781859398E0
1.803480681E0,2.967100143E-1,4.456632137E-1,9.757930756E0
1.805716460E0,3.062812984E-1,4.456632137E-1,9.762716293E0
1.807950163E0,2.865405083E-1,4.265206456E-1,9.791430473E0
1.810175505E0,2.919243574E-1,4.265206456E-1,9.757930756E0
1.812416228E0,3.008974493E-1,4.217349887E-1,9.786644936E0
1.814663725E0,3.110669553E-1,4.360919297E-1,9.762716293E0
1.816902983E0,2.967100143E-1,4.504488707E-1,9.781859398E0
1.819140044E0,2.823530734E-1,4.360919297E-1,9.781859398E0
1.821374907E0,3.008974493E-1,4.169493318E-1,9.772287369E0
1.823610808E0,2.919243574E-1,4.265206456E-1,9.777072906E0
1.825847380E0,2.865405083E-1,4.217349887E-1,9.777072906E0
1.828084380E0,2.871387303E-1,4.313062727E-1,9.772287369E0
1.830321989E0,2.871387303E-1,4.217349887E-1,9.767501831E0
1.832558073E0,2.967100143E-1,4.265206456E-1,9.777072906E0
1.834794585E0,2.823530734E-1,4.313062727E-1,9.786644936E0
1.837031523E0,2.919243574E-1,4.360919297E-1,9.781859398E0
1.839269377E0,3.062812984E-1,4.408775866E-1,9.777072906E0
1.841504851E0,3.014956415E-1,4.360919297E-1,9.777072906E0
1.843742277E0,3.014956415E-1,4.313062727E-1,9.767501831E0
1.845980131E0,2.961117923E-1,4.217349887E-1,9.777072906E0
1.848216521E0,2.871387303E-1,4.360919297E-1,9.791430473E0
1.850452116E0,2.919243574E-1,4.360919297E-1,9.791430473E0
1.852688811E0,2.961117923E-1,4.169493318E-1,9.777072906E0
1.854925993E0,2.967100143E-1,4.313062727E-1,9.786644936E0
1.857163847E0,2.967100143E-1,4.265206456E-1,9.757930756E0
1.859399504E0,2.967100143E-1,4.360919297E-1,9.781859398E0
1.861635893E0,3.062812984E-1,4.217349887E-1,9.772287369E0
1.863870024E0,3.206382394E-1,4.354937077E-1,9.786644936E0
1.866098967E0,2.961117923E-1,4.169493318E-1,9.772287369E0
1.868346403E0,2.865405083E-1,4.073780477E-1,9.762716293E0
1.870583220E0,2.961117923E-1,4.169493318E-1,9.781859398E0
1.872823210E0,2.823530734E-1,4.313062727E-1,9.772287369E0
1.875058134E0,2.967100143E-1,4.360919297E-1,9.767501831E0
1.877293913E0,3.014956415E-1,4.169493318E-1,9.753145218E0
1.879530424E0,3.014956415E-1,4.265206456E-1,9.777072906E0
1.881767241E0,2.919243574E-1,4.408775866E-1,9.757930756E0
1.884002104E0,3.104687333E-1,4.115654826E-1,9.781859398E0
1.886229216E0,3.008974493E-1,4.073780477E-1,9.777072906E0
1.888477690E0,2.967100143E-1,4.265206456E-1,9.781859398E0
1.890714323E0,3.152543902E-1,4.211367965E-1,9.786644936E0
1.892955229E0,2.967100143E-1,4.360919297E-1,9.772287369E0
1.895187834E0,3.062812984E-1,4.217349887E-1,9.762716293E0
1.897424589E0,3.014956415E-1,4.265206456E-1,9.767501831E0
1.899661772E0,2.919243574E-1,4.360919297E-1,9.777072906E0
1.901899382E0,3.158525825E-1,4.259224236E-1,9.781859398E0
1.904135283E0,2.871387303E-1,4.217349887E-1,9.772287369E0
1.906371977E0,3.062812984E-1,4.265206456E-1,9.777072906E0
1.908608855E0,3.104687333E-1,4.163511395E-1,9.777072906E0
1.910846648E0,3.062812984E-1,4.217349887E-1,9.767501831E0
1.913082426E0,3.104687333E-1,4.163511395E-1,9.791430473E0
1.915319060E0,2.919243574E-1,4.456632137E-1,9.753145218E0
1.917556059E0,3.014956415E-1,4.360919297E-1,9.786644936E0
1.919793608E0,3.206382394E-1,4.354937077E-1,9.772287369E0
1.922029021E0,3.158525825E-1,4.402793646E-1,9.767501831E0
1.924264311E0,3.014956415E-1,4.169493318E-1,9.753145218E0
1.926503142E0,3.062812984E-1,4.313062727E-1,9.777072906E0
1.928740935E0,3.110669553E-1,4.313062727E-1,9.762716293E0
1.930977202E0,3.110669553E-1,4.307080805E-1,9.772287369E0
1.933213347E0,3.110669553E-1,4.259224236E-1,9.772287369E0
1.935450346E0,2.913261652E-1,4.265206456E-1,9.786644936E0
1.937687895E0,2.871387303E-1,4.456632137E-1,9.767501831E0
1.939923735E0,2.967100143E-1,4.408775866E-1,9.777072906E0
1.942160307E0,2.919243574E-1,4.504488707E-1,9.757930756E0
1.944397490E0,2.919243574E-1,4.313062727E-1,9.762716293E0
1.946635405E0,2.871387303E-1,4.504488707E-1,9.781859398E0
1.948870817E0,3.014956415E-1,4.456632137E-1,9.777072906E0
1.951107634E0,2.817548811E-1,4.121637046E-1,9.777072906E0
1.953344572E0,2.919243574E-1,4.265206456E-1,9.781859398E0
1.955582304E0,2.823530734E-1,4.265206456E-1,9.781859398E0
1.957818327E0,2.967100143E-1,4.217349887E-1,9.772287369E0
1.960054839E0,3.008974493E-1,4.217349887E-1,9.781859398E0
1.962291777E0,3.056831062E-1,4.121637046E-1,9.762716293E0
1.964529692E0,3.014956415E-1,4.121637046E-1,9.753145218E0
1.966764555E0,2.961117923E-1,4.121637046E-1,9.772287369E0
1.968998991E0,3.014956415E-1,4.217349887E-1,9.772287369E0
1.971238921E0,2.919243574E-1,4.313062727E-1,9.777072906E0
1.973476653E0,3.062812984E-1,4.313062727E-1,9.781859398E0
1.975712859E0,2.961117923E-1,4.265206456E-1,9.791430473E0
1.977949126E0,3.008974493E-1,4.265206456E-1,9.786644936E0
1.980186003E0,2.967100143E-1,4.313062727E-1,9.762716293E0
1.982424101E0,2.865405083E-1,4.073780477E-1,9.777072906E0
1.984656584E0,3.110669553E-1,4.211367965E-1,9.772287369E0
1.986884245E0,3.062812984E-1,4.313062727E-1,9.762716293E0
1.989133147E0,2.823530734E-1,4.456632137E-1,9.767501831E0
1.991370817E0,2.967100143E-1,4.265206456E-1,9.767501831E0
1.993606901E0,2.967100143E-1,4.265206456E-1,9.772287369E0
1.995831450E0,2.823530734E-1,4.217349887E-1,9.757930756E0
1.998080290E0,3.062812984E-1,4.313062727E-1,9.777072906E0
2.000318022E0,3.062812984E-1,4.360919297E-1,9.772287369E0
2.002556914E0,3.062812984E-1,4.360919297E-1,9.762716293E0
2.004787748E0,2.817548811E-1,4.073780477E-1,9.791430473E0
2.007015593E0,2.775674164E-1,4.265206456E-1,9.762716293E0
2.009265349E0,2.961117923E-1,4.217349887E-1,9.786644936E0
2.011501128E0,3.008974493E-1,4.169493318E-1,9.777072906E0
2.013739836E0,3.110669553E-1,4.354937077E-1,9.791430473E0
2.015971159E0,2.919243574E-1,4.217349887E-1,9.772287369E0
2.018212492E0,2.967100143E-1,4.169493318E-1,9.762716293E0
2.020447966E0,2.967100143E-1,4.313062727E-1,9.777072906E0
2.022685881E0,2.913261652E-1,4.169493318E-1,9.781859398E0
2.024921782E0,3.014956415E-1,4.265206456E-1,9.762716293E0
2.027159697E0,3.110669553E-1,4.402793646E-1,9.767501831E0
2.029395537E0,3.014956415E-1,4.313062727E-1,9.772287369E0
2.031632536E0,2.919243574E-1,4.265206456E-1,9.772287369E0
2.033866484E0,2.871387303E-1,4.265206456E-1,9.762716293E0
2.036096342E0,3.062812984E-1,4.313062727E-1,9.767501831E0
2.038342314E0,2.961117923E-1,4.217349887E-1,9.781859398E0
2.040579008E0,3.062812984E-1,4.408775866E-1,9.772287369E0
2.042818694E0,3.008974493E-1,4.073780477E-1,9.777072906E0
2.045053862E0,2.919243574E-1,4.217349887E-1,9.767501831E0
2.047289519E0,2.865405083E-1,4.073780477E-1,9.781859398E0
2.049526335E0,2.919243574E-1,4.265206456E-1,9.777072906E0
2.051763396E0,3.014956415E-1,4.313062727E-1,9.777072906E0
2.054001189E0,3.014956415E-1,4.360919297E-1,9.786644936E0
2.056236784E0,3.062812984E-1,4.408775866E-1,9.781859398E0
2.058473540E0,2.919243574E-1,4.313062727E-1,9.777072906E0
2.060710356E0,2.967100143E-1,4.456632137E-1,9.781859398E0
2.062948210E0,2.913261652E-1,4.169493318E-1,9.786644936E0
2.065183989E0,3.110669553E-1,4.259224236E-1,9.781859398E0
2.067420622E0,3.062812984E-1,4.402793646E-1,9.791430473E0
2.069657744E0,2.823530734E-1,4.265206456E-1,9.777072906E0
2.071893889E0,2.961117923E-1,4.265206456E-1,9.786644936E0
2.074123991E0,2.913261652E-1,4.313062727E-1,9.796216011E0
2.076367827E0,2.961117923E-1,4.169493318E-1,9.777072906E0
2.078604582E0,3.008974493E-1,4.217349887E-1,9.791430473E0
2.080844267E0,3.056831062E-1,4.163511395E-1,9.786644936E0
2.083078276E0,2.967100143E-1,4.265206456E-1,9.772287369E0
2.085314909E0,3.014956415E-1,4.360919297E-1,9.762716293E0
2.087551970E0,2.967100143E-1,4.360919297E-1,9.777072906E0
2.089789763E0,3.008974493E-1,4.217349887E-1,9.777072906E0
2.092025603E0,3.056831062E-1,4.169493318E-1,9.781859398E0
2.094262053E0,3.056831062E-1,4.259224236E-1,9.791430473E0
2.096498686E0,2.913261652E-1,4.217349887E-1,9.777072906E0
2.098736784E0,2.775674164E-1,4.408775866E-1,9.772287369E0
2.100972868E0,2.919243574E-1,4.360919297E-1,9.762716293E0
2.103206572E0,2.967100143E-1,4.313062727E-1,9.777072906E0
2.105431608E0,2.871387303E-1,4.217349887E-1,9.762716293E0
2.107672331E0,2.967100143E-1,4.265206456E-1,9.777072906E0
2.109920073E0,2.919243574E-1,4.169493318E-1,9.757930756E0
2.112159392E0,3.110669553E-1,4.313062727E-1,9.757930756E0
2.114396392E0,2.967100143E-1,4.217349887E-1,9.772287369E0
2.116627897E0,2.967100143E-1,4.217349887E-1,9.757930756E0
2.118854704E0,2.967100143E-1,4.313062727E-1,9.781859398E0
2.121103728E0,3.014956415E-1,4.265206456E-1,9.762716293E0
2.123340849E0,3.014956415E-1,4.265206456E-1,9.757930756E0
2.125578703E0,3.062812984E-1,4.402793646E-1,9.781859398E0
2.127802519E0,3.158525825E-1,4.307080805E-1,9.777072906E0
2.130051176E0,3.014956415E-1,4.313062727E-1,9.767501831E0
2.132287688E0,2.871387303E-1,4.360919297E-1,9.786644936E0
2.134528228E0,2.919243574E-1,4.217349887E-1,9.772287369E0
2.136761076E0,3.062812984E-1,4.456632137E-1,9.777072906E0
2.138997954E0,3.014956415E-1,4.360919297E-1,9.777072906E0
2.141234892E0,3.062812984E-1,4.217349887E-1,9.772287369E0
2.143469877E0,2.919243574E-1,4.313062727E-1,9.777072906E0
2.145693449E0,2.919243574E-1,4.217349887E-1,9.753145218E0
2.147933073E0,2.769692242E-1,4.121637046E-1,9.786644936E0
2.150182036E0,2.823530734E-1,4.313062727E-1,9.781859398E0
2.152422820E0,3.062812984E-1,4.360919297E-1,9.757930756E0
2.154658537E0,3.062812984E-1,4.217349887E-1,9.748359680E0
2.156892546E0,3.110669553E-1,4.211367965E-1,9.777072906E0
2.159129301E0,2.919243574E-1,4.313062727E-1,9.762716293E0
2.161366911E0,3.110669553E-1,4.360919297E-1,9.757930756E0
2.163602751E0,3.110669553E-1,4.402793646E-1,9.772287369E0
2.165839751E0,3.206382394E-1,4.402793646E-1,9.805787086E0
2.168076384E0,3.110669553E-1,4.402793646E-1,9.781859398E0
2.170314177E0,3.008974493E-1,4.265206456E-1,9.796216011E0
2.172549895E0,2.919243574E-1,4.265206456E-1,9.767501831E0
2.174786528E0,3.014956415E-1,4.265206456E-1,9.772287369E0
2.177023405E0,2.967100143E-1,4.456632137E-1,9.753145218E0
2.179261381E0,3.014956415E-1,4.456632137E-1,9.772287369E0
2.181493986E0,2.823530734E-1,4.265206456E-1,9.757930756E0
2.183718596E0,2.961117923E-1,4.121637046E-1,9.781859398E0
2.185958403E0,2.967100143E-1,4.600201547E-1,9.786644936E0
2.188208464E0,3.014956415E-1,4.265206456E-1,9.777072906E0
2.190447295E0,2.919243574E-1,4.313062727E-1,9.781859398E0
2.192683928E0,2.967100143E-1,4.265206456E-1,9.772287369E0
2.194917937E0,3.008974493E-1,4.121637046E-1,9.767501831E0
2.197155730E0,2.961117923E-1,4.121637046E-1,9.767501831E0
2.199391508E0,2.919243574E-1,4.408775866E-1,9.801001549E0
2.201627837E0,2.913261652E-1,4.121637046E-1,9.762716293E0
2.203861906E0,2.913261652E-1,4.217349887E-1,9.781859398E0
2.206090727E0,3.014956415E-1,4.456632137E-1,9.757930756E0
2.208338652E0,3.014956415E-1,4.121637046E-1,9.748359680E0
2.210575407E0,2.967100143E-1,4.456632137E-1,9.777072906E0
2.212815215E0,3.062812984E-1,4.265206456E-1,9.781859398E0
2.215050017E0,2.871387303E-1,4.217349887E-1,9.762716293E0
2.217285796E0,3.008974493E-1,4.121637046E-1,9.757930756E0
2.219522368E0,3.110669553E-1,4.211367965E-1,9.772287369E0
2.221757536E0,3.062812984E-1,4.217349887E-1,9.767501831E0
2.223987394E0,2.913261652E-1,4.025924206E-1,9.762716293E0
2.226220915E0,2.967100143E-1,4.265206456E-1,9.777072906E0
2.228469694E0,3.062812984E-1,4.354937077E-1,9.791430473E0
2.230708159E0,3.110669553E-1,4.169493318E-1,9.762716293E0
2.232947295E0,2.961117923E-1,4.217349887E-1,9.777072906E0
2.235180022E0,2.919243574E-1,4.313062727E-1,9.767501831E0
2.237416472E0,3.014956415E-1,4.408775866E-1,9.791430473E0
2.239653715E0,3.104687333E-1,4.163511395E-1,9.781859398E0
2.241891325E0,3.014956415E-1,4.217349887E-1,9.748359680E0
2.244127531E0,3.014956415E-1,4.265206456E-1,9.772287369E0
2.246364165E0,3.104687333E-1,4.211367965E-1,9.781859398E0
2.248600798E0,3.104687333E-1,4.163511395E-1,9.777072906E0
2.250838469E0,3.110669553E-1,4.307080805E-1,9.772287369E0
2.253074065E0,3.206382394E-1,4.307080805E-1,9.786644936E0
2.255310942E0,3.056831062E-1,4.169493318E-1,9.781859398E0
2.257547758E0,3.110669553E-1,4.450650215E-1,9.777072906E0
2.259785673E0,2.961117923E-1,4.025924206E-1,9.781859398E0
2.262021696E0,3.008974493E-1,3.930211067E-1,9.767501831E0
2.264258269E0,2.967100143E-1,4.313062727E-1,9.777072906E0
2.266494597E0,3.014956415E-1,4.217349887E-1,9.767501831E0
2.268730864E0,3.014956415E-1,4.169493318E-1,9.762716293E0
2.270968657E0,3.014956415E-1,4.217349887E-1,9.772287369E0
2.273205229E0,3.056831062E-1,4.169493318E-1,9.781859398E0
2.275442534E0,3.008974493E-1,4.169493318E-1,9.781859398E0
2.277679900E0,2.919243574E-1,4.360919297E-1,9.767501831E0
2.279915984E0,2.967100143E-1,4.313062727E-1,9.781859398E0
2.282152556E0,3.062812984E-1,4.313062727E-1,9.767501831E0
2.284389372E0,2.919243574E-1,4.313062727E-1,9.762716293E0
2.286627104E0,2.769692242E-1,4.313062727E-1,9.786644936E0
2.288862944E0,2.967100143E-1,4.265206456E-1,9.777072906E0
2.291099577E0,2.961117923E-1,4.169493318E-1,9.781859398E0
2.293333647E0,2.913261652E-1,4.073780477E-1,9.767501831E0
2.295561553E0,3.008974493E-1,4.121637046E-1,9.786644936E0
2.297806609E0,3.206382394E-1,4.259224236E-1,9.753743172E0
2.300046782E0,2.769692242E-1,4.265206456E-1,9.786644936E0
2.302286589E0,2.967100143E-1,4.265206456E-1,9.777072906E0
2.304522306E0,2.913261652E-1,4.169493318E-1,9.781859398E0
2.306754362E0,3.104687333E-1,4.163511395E-1,9.781859398E0
2.308979399E0,2.817548811E-1,4.265206456E-1,9.796216011E0
2.311218962E0,2.967100143E-1,4.217349887E-1,9.772287369E0
2.313468718E0,3.110669553E-1,4.307080805E-1,9.767501831E0
2.315707427E0,3.110669553E-1,4.313062727E-1,9.753145218E0
2.317944060E0,2.967100143E-1,4.360919297E-1,9.772287369E0
2.320177946E0,3.062812984E-1,4.265206456E-1,9.762716293E0
2.322415923E0,2.919243574E-1,4.217349887E-1,9.767501831E0
2.324648649E0,2.871387303E-1,4.313062727E-1,9.767501831E0
2.326876677E0,3.062812984E-1,4.313062727E-1,9.772287369E0
2.329125151E0,2.871387303E-1,4.265206456E-1,9.777072906E0
2.331362761E0,3.008974493E-1,4.121637046E-1,9.777072906E0
2.333600737E0,3.056831062E-1,4.217349887E-1,9.777072906E0
2.335835417E0,3.062812984E-1,4.217349887E-1,9.762716293E0
2.338072417E0,2.967100143E-1,4.360919297E-1,9.786644936E0
2.340310209E0,2.769692242E-1,4.121637046E-1,9.777072906E0
2.342545866E0,2.919243574E-1,4.265206456E-1,9.772287369E0
2.344779631E0,3.062812984E-1,4.313062727E-1,9.762716293E0
2.347007536E0,3.062812984E-1,4.217349887E-1,9.767501831E0
2.349257292E0,2.961117923E-1,4.169493318E-1,9.767501831E0
2.351493132E0,2.823530734E-1,4.265206456E-1,9.748359680E0
2.353729887E0,2.961117923E-1,4.169493318E-1,9.767501831E0
2.355954558E0,3.062812984E-1,4.217349887E-1,9.762716293E0
2.358204497E0,3.014956415E-1,4.360919297E-1,9.777072906E0
2.360440031E0,3.158525825E-1,4.163511395E-1,9.762716293E0
2.362679778E0,3.008974493E-1,4.121637046E-1,9.772287369E0
2.364913969E0,2.871387303E-1,4.169493318E-1,9.757930756E0
2.367151579E0,2.727817893E-1,4.265206456E-1,9.762716293E0
2.369387480E0,2.961117923E-1,4.169493318E-1,9.772287369E0
2.371621305E0,3.248256743E-1,4.163511395E-1,9.777072906E0
2.373846708E0,3.110669553E-1,4.169493318E-1,9.757930756E0
2.376087309E0,2.919243574E-1,4.265206456E-1,9.743574142E0
2.378334380E0,3.008974493E-1,4.217349887E-1,9.772287369E0
2.380574126E0,3.110669553E-1,4.360919297E-1,9.757930756E0
2.382811125E0,3.014956415E-1,4.313062727E-1,9.777072906E0
2.385045866E0,3.014956415E-1,4.360919297E-1,9.767501831E0
2.387281706E0,3.062812984E-1,4.408775866E-1,9.762716293E0
2.389518462E0,3.008974493E-1,4.217349887E-1,9.777072906E0
2.391755339E0,2.967100143E-1,4.313062727E-1,9.762716293E0
2.393993071E0,3.008974493E-1,4.169493318E-1,9.772287369E0
2.396228667E0,3.014956415E-1,4.265206456E-1,9.781859398E0
2.398465483E0,3.014956415E-1,4.456632137E-1,9.767501831E0
2.400702360E0,2.871387303E-1,4.504488707E-1,9.786644936E0
2.402940459E0,2.823530734E-1,4.360919297E-1,9.791430473E0
2.405176237E0,2.967100143E-1,4.217349887E-1,9.772287369E0
2.407412810E0,2.871387303E-1,4.360919297E-1,9.777072906E0
2.409649565E0,3.008974493E-1,4.121637046E-1,9.781859398E0
2.411887358E0,3.110669553E-1,4.217349887E-1,9.762716293E0
2.414123198E0,3.014956415E-1,4.217349887E-1,9.753145218E0
2.416359770E0,3.110669553E-1,4.169493318E-1,9.738788605E0
2.418596587E0,2.961117923E-1,4.217349887E-1,9.781859398E0
2.420834380E0,3.110669553E-1,4.450650215E-1,9.762716293E0
2.423070280E0,2.967100143E-1,4.360919297E-1,9.757930756E0
2.425307097E0,3.062812984E-1,4.313062727E-1,9.748359680E0
2.427543913E0,3.158525825E-1,4.211367965E-1,9.757930756E0
2.429781706E0,3.014956415E-1,4.265206456E-1,9.767501831E0
2.432017485E0,3.158525825E-1,4.211367965E-1,9.762716293E0
2.434254057E0,3.008974493E-1,4.217349887E-1,9.777072906E0
2.436490874E0,2.871387303E-1,4.265206456E-1,9.777072906E0
2.438728667E0,2.967100143E-1,4.265206456E-1,9.781859398E0
2.440964567E0,2.919243574E-1,4.360919297E-1,9.781859398E0
2.443198393E0,3.008974493E-1,4.169493318E-1,9.781859398E0
2.445426237E0,3.062812984E-1,4.313062727E-1,9.781859398E0
2.447675932E0,3.014956415E-1,4.313062727E-1,9.786644936E0
2.449911528E0,3.158525825E-1,4.402793646E-1,9.772287369E0
2.452151396E0,3.110669553E-1,4.265206456E-1,9.767501831E0
2.454385466E0,3.014956415E-1,4.313062727E-1,9.777072906E0
2.456623320E0,2.817548811E-1,4.217349887E-1,9.781859398E0
2.458859099E0,3.104687333E-1,4.259224236E-1,9.781859398E0
2.461095671E0,2.919243574E-1,4.265206456E-1,9.767501831E0
2.463332732E0,2.919243574E-1,4.408775866E-1,9.767501831E0
2.465570464E0,3.014956415E-1,4.408775866E-1,9.777072906E0
2.467806120E0,3.062812984E-1,4.498506486E-1,9.781859398E0
2.470042876E0,2.919243574E-1,4.408775866E-1,9.772287369E0
2.472279631E0,3.008974493E-1,4.265206456E-1,9.796216011E0
2.474517241E0,2.961117923E-1,4.217349887E-1,9.781859398E0
2.476753081E0,3.062812984E-1,4.360919297E-1,9.757930756E0
2.478989897E0,2.967100143E-1,4.408775866E-1,9.772287369E0
2.481225798E0,3.014956415E-1,4.456632137E-1,9.781859398E0
2.483460661E0,2.967100143E-1,4.360919297E-1,9.748359680E0
2.485700407E0,2.961117923E-1,4.025924206E-1,9.762716293E0
2.487937224E0,3.062812984E-1,4.217349887E-1,9.767501831E0
2.490175017E0,2.871387303E-1,4.313062727E-1,9.757930756E0
2.492411833E0,2.919243574E-1,4.265206456E-1,9.777072906E0
2.494647612E0,3.008974493E-1,4.265206456E-1,9.791430473E0
2.496884245E0,2.967100143E-1,4.169493318E-1,9.757930756E0
2.499121306E0,2.967100143E-1,4.217349887E-1,9.767501831E0
2.501359099E0,2.865405083E-1,4.217349887E-1,9.781859398E0
2.503592009E0,3.110669553E-1,4.265206456E-1,9.762716293E0
2.505819731E0,3.110669553E-1,4.265206456E-1,9.757930756E0
2.508068266E0,3.014956415E-1,4.265206456E-1,9.781859398E0
2.510306120E0,2.865405083E-1,4.169493318E-1,9.777072906E0
2.512545134E0,2.913261652E-1,4.265206456E-1,9.786644936E0
2.514778715E0,2.961117923E-1,4.169493318E-1,9.786644936E0
2.517015349E0,2.817548811E-1,4.217349887E-1,9.791430473E0
2.519253264E0,2.871387303E-1,4.265206456E-1,9.777072906E0
2.521488860E0,3.056831062E-1,4.169493318E-1,9.777072906E0
2.523722685E0,2.823530734E-1,4.504488707E-1,9.762716293E0
2.525951140E0,2.919243574E-1,4.265206456E-1,9.762716293E0
2.528200651E0,2.919243574E-1,4.313062727E-1,9.762716293E0
2.530436308E0,3.014956415E-1,4.313062727E-1,9.743574142E0
2.532675933E0,3.110669553E-1,4.307080805E-1,9.772287369E0
2.534909880E0,3.062812984E-1,4.360919297E-1,9.762716293E0
2.537147917E0,3.062812984E-1,4.265206456E-1,9.762716293E0
2.539383452E0,2.967100143E-1,4.265206456E-1,9.767501831E0
2.541620085E0,3.062812984E-1,4.313062727E-1,9.777072906E0
2.543854155E0,3.152543902E-1,4.211367965E-1,9.781859398E0
2.546083159E0,2.871387303E-1,4.313062727E-1,9.757930756E0
2.548330595E0,3.014956415E-1,4.217349887E-1,9.753145218E0
2.550567534E0,2.967100143E-1,4.169493318E-1,9.767501831E0
2.552807097E0,3.110669553E-1,4.265206456E-1,9.753145218E0
2.555042204E0,3.014956415E-1,4.360919297E-1,9.757930756E0
2.557277678E0,2.871387303E-1,4.313062727E-1,9.767501831E0
2.559514311E0,2.871387303E-1,4.360919297E-1,9.762716293E0
2.561751067E0,2.961117923E-1,4.217349887E-1,9.781859398E0
2.563985991E0,2.961117923E-1,4.121637046E-1,9.796216011E0
2.566213103E0,2.967100143E-1,4.504488707E-1,9.791430473E0
2.568461699E0,3.062812984E-1,4.408775866E-1,9.767501831E0
2.570698698E0,2.871387303E-1,4.265206456E-1,9.767501831E0
2.572939238E0,3.062812984E-1,4.360919297E-1,9.781859398E0
2.575172331E0,2.967100143E-1,4.217349887E-1,9.762716293E0
2.577408842E0,2.769692242E-1,4.265206456E-1,9.786644936E0
2.579645720E0,2.679961324E-1,4.313062727E-1,9.781859398E0
2.581883452E0,2.967100143E-1,4.265206456E-1,9.781859398E0
2.584119353E0,2.919243574E-1,4.313062727E-1,9.781859398E0
2.586356108E0,3.110669553E-1,4.402793646E-1,9.772287369E0
2.588592680E0,2.817548811E-1,4.217349887E-1,9.777072906E0
2.590830473E0,2.865405083E-1,4.121637046E-1,9.772287369E0
2.593066313E0,2.967100143E-1,4.408775866E-1,9.767501831E0
2.595303191E0,3.014956415E-1,4.217349887E-1,9.767501831E0
2.597540007E0,3.008974493E-1,4.169493318E-1,9.777072906E0
2.599777739E0,3.056831062E-1,4.121637046E-1,9.767501831E0
2.602010466E0,3.062812984E-1,4.265206456E-1,9.762716293E0
2.604235746E0,3.062812984E-1,4.265206456E-1,9.767501831E0
2.606472380E0,3.062812984E-1,4.313062727E-1,9.777072906E0
2.608713164E0,2.871387303E-1,4.313062727E-1,9.777072906E0
2.610962798E0,2.913261652E-1,4.025924206E-1,9.781859398E0
2.613200469E0,2.913261652E-1,4.121637046E-1,9.757930756E0
2.615437407E0,2.961117923E-1,4.217349887E-1,9.777072906E0
2.617672270E0,3.008974493E-1,4.217349887E-1,9.772287369E0
2.619907866E0,2.967100143E-1,4.360919297E-1,9.767501831E0
2.622144438E0,3.014956415E-1,4.265206456E-1,9.767501831E0
2.624381560E0,3.062812984E-1,4.265206456E-1,9.753145218E0
2.626619292E0,3.062812984E-1,4.265206456E-1,9.767501831E0
2.628854887E0,2.961117923E-1,4.073780477E-1,9.762716293E0
2.631091460E0,3.014956415E-1,4.313062727E-1,9.767501831E0
2.633328520E0,3.014956415E-1,4.504488707E-1,9.777072906E0
2.635563444E0,3.158525825E-1,4.259224236E-1,9.772287369E0
2.637790556E0,3.014956415E-1,4.169493318E-1,9.753145218E0
2.640039030E0,2.871387303E-1,4.265206456E-1,9.777072906E0
2.642275847E0,3.062812984E-1,4.408775866E-1,9.772287369E0
2.644516570E0,3.014956415E-1,4.217349887E-1,9.772287369E0
2.646749419E0,3.014956415E-1,4.217349887E-1,9.767501831E0
2.648985991E0,3.110669553E-1,4.169493318E-1,9.762716293E0
2.651222807E0,3.110669553E-1,4.259224236E-1,9.772287369E0
2.653460600E0,3.008974493E-1,4.121637046E-1,9.767501831E0
2.655696440E0,2.913261652E-1,4.121637046E-1,9.772287369E0
2.657933073E0,2.961117923E-1,4.169493318E-1,9.791430473E0
2.660170134E0,3.014956415E-1,4.313062727E-1,9.786644936E0
2.662407866E0,3.104687333E-1,4.073780477E-1,9.767501831E0
2.664640471E0,3.014956415E-1,4.265206456E-1,9.743574142E0
2.666868071E0,3.014956415E-1,4.169493318E-1,9.762716293E0
2.669117094E0,3.014956415E-1,4.265206456E-1,9.757930756E0
2.671354948E0,3.062812984E-1,4.169493318E-1,9.757930756E0
2.673593840E0,2.967100143E-1,4.265206456E-1,9.772287369E0
2.675827605E0,2.919243574E-1,4.265206456E-1,9.767501831E0
2.678064421E0,3.014956415E-1,4.217349887E-1,9.762716293E0
2.680302214E0,2.967100143E-1,4.313062727E-1,9.762716293E0
2.682537993E0,2.967100143E-1,4.265206456E-1,9.777072906E0
2.684771574E0,3.062812984E-1,4.313062727E-1,9.772287369E0
2.686997405E0,2.919243574E-1,4.408775866E-1,9.777072906E0
2.689238066E0,2.919243574E-1,4.265206456E-1,9.757930756E0
2.691472868E0,3.008974493E-1,4.121637046E-1,9.772287369E0
2.693721892E0,2.967100143E-1,4.360919297E-1,9.762716293E0
2.695948820E0,2.919243574E-1,4.217349887E-1,9.762716293E0
2.698199797E0,3.014956415E-1,4.313062727E-1,9.781859398E0
2.700432280E0,2.919243574E-1,4.169493318E-1,9.762716293E0
2.702671965E0,2.823530734E-1,4.217349887E-1,9.772287369E0
2.704906157E0,2.967100143E-1,4.313062727E-1,9.777072906E0
2.707143706E0,3.110669553E-1,4.265206456E-1,9.762716293E0
2.709379362E0,3.056831062E-1,4.121637046E-1,9.762716293E0
2.711616057E0,3.014956415E-1,4.265206456E-1,9.757930756E0
2.713849943E0,2.961117923E-1,4.169493318E-1,9.777072906E0
2.716078825E0,3.056831062E-1,4.121637046E-1,9.781859398E0
2.718326567E0,2.865405083E-1,4.121637046E-1,9.786644936E0
2.720563200E0,2.961117923E-1,4.265206456E-1,9.791430473E0
2.722803191E0,3.062812984E-1,4.217349887E-1,9.772287369E0
2.725037749E0,2.817548811E-1,4.169493318E-1,9.786644936E0
2.727273650E0,3.110669553E-1,4.307080805E-1,9.767501831E0
2.729510405E0,2.919243574E-1,4.408775866E-1,9.743574142E0
2.731747465E0,2.913261652E-1,4.265206456E-1,9.786644936E0
2.733985747E0,3.062812984E-1,4.313062727E-1,9.772287369E0
2.736220610E0,3.008974493E-1,4.169493318E-1,9.767501831E0
2.738457487E0,2.913261652E-1,4.121637046E-1,9.777072906E0
2.740694426E0,3.062812984E-1,4.217349887E-1,9.762716293E0
2.742932585E0,3.014956415E-1,4.265206456E-1,9.767501831E0
2.745167937E0,2.871387303E-1,4.217349887E-1,9.753145218E0
2.747404753E0,3.152543902E-1,4.211367965E-1,9.777072906E0
2.749641753E0,3.008974493E-1,4.121637046E-1,9.777072906E0
2.751879607E0,2.823530734E-1,4.408775866E-1,9.772287369E0
2.754115141E0,2.961117923E-1,4.217349887E-1,9.781859398E0
2.756351775E0,2.817548811E-1,4.265206456E-1,9.781859398E0
2.758589506E0,2.919243574E-1,4.313062727E-1,9.781859398E0
2.760828520E0,2.823530734E-1,4.360919297E-1,9.777072906E0
2.763062224E0,3.056831062E-1,4.217349887E-1,9.777072906E0
2.765298979E0,3.056831062E-1,4.073780477E-1,9.781859398E0
2.767535613E0,2.919243574E-1,4.408775866E-1,9.796216011E0
2.769773955E0,3.104687333E-1,4.211367965E-1,9.777072906E0
2.772009673E0,3.200400174E-1,4.211367965E-1,9.781859398E0
2.774246001E0,3.014956415E-1,4.360919297E-1,9.772287369E0
2.776483061E0,2.721835673E-1,4.217349887E-1,9.777072906E0
2.778720854E0,3.062812984E-1,4.217349887E-1,9.772287369E0
2.780956816E0,3.062812984E-1,4.265206456E-1,9.777072906E0
2.783193571E0,3.014956415E-1,4.265206456E-1,9.781859398E0
2.785430388E0,3.056831062E-1,4.217349887E-1,9.781859398E0
2.787668181E0,3.056831062E-1,4.073780477E-1,9.777072906E0
2.789903960E0,3.056831062E-1,4.025924206E-1,9.772287369E0
2.792140532E0,2.961117923E-1,4.073780477E-1,9.796216011E0
2.794377348E0,3.056831062E-1,4.259224236E-1,9.801001549E0
2.796615141E0,3.014956415E-1,4.408775866E-1,9.762716293E0
2.798851042E0,2.775674164E-1,4.456632137E-1,9.753145218E0
2.801087798E0,3.014956415E-1,4.456632137E-1,9.762716293E0
2.803324431E0,2.919243574E-1,4.408775866E-1,9.762716293E0
2.805559538E0,2.961117923E-1,4.265206456E-1,9.781859398E0
2.807783720E0,2.967100143E-1,4.600201547E-1,9.777072906E0
2.810023711E0,3.014956415E-1,4.360919297E-1,9.767501831E0
2.812271880E0,2.967100143E-1,4.360919297E-1,9.767501831E0
2.814512358E0,3.056831062E-1,4.169493318E-1,9.767501831E0
2.816748198E0,3.056831062E-1,4.163511395E-1,9.791430473E0
2.818982268E0,3.014956415E-1,4.265206456E-1,9.781859398E0
2.821218718E0,3.062812984E-1,4.265206456E-1,9.777072906E0
2.823456755E0,3.158525825E-1,4.211367965E-1,9.762716293E0
2.825692534E0,3.008974493E-1,4.217349887E-1,9.786644936E0
2.827929472E0,3.056831062E-1,4.169493318E-1,9.767501831E0
2.830166167E0,3.008974493E-1,4.169493318E-1,9.786644936E0
2.832403776E0,2.871387303E-1,4.265206456E-1,9.748359680E0
2.834639799E0,3.014956415E-1,4.313062727E-1,9.781859398E0
2.836875273E0,2.871387303E-1,4.360919297E-1,9.772287369E0
2.839108794E0,2.967100143E-1,4.313062727E-1,9.781859398E0
2.841350676E0,3.014956415E-1,4.265206456E-1,9.777072906E0
2.843586638E0,2.919243574E-1,4.313062727E-1,9.757930756E0
2.845824797E0,3.014956415E-1,4.217349887E-1,9.767501831E0
2.848060515E0,3.158525825E-1,4.211367965E-1,9.757930756E0
2.850298064E0,2.871387303E-1,4.217349887E-1,9.757930756E0
2.852533842E0,2.919243574E-1,4.217349887E-1,9.767501831E0
2.854770659E0,2.871387303E-1,4.217349887E-1,9.762716293E0
2.857007597E0,3.056831062E-1,4.121637046E-1,9.767501831E0
2.859245573E0,2.967100143E-1,4.265206456E-1,9.757930756E0
2.861481108E0,3.014956415E-1,4.408775866E-1,9.767501831E0
2.863714811E0,2.919243574E-1,4.313062727E-1,9.772287369E0
2.865943022E0,2.823530734E-1,4.313062727E-1,9.748359680E0
2.868192595E0,2.919243574E-1,4.217349887E-1,9.753145218E0
2.870428374E0,3.014956415E-1,4.313062727E-1,9.767501831E0
2.872667632E0,3.056831062E-1,4.121637046E-1,9.772287369E0
2.874901823E0,2.865405083E-1,4.265206456E-1,9.796216011E0
2.877139799E0,3.062812984E-1,4.402793646E-1,9.786644936E0
2.879375517E0,2.865405083E-1,4.169493318E-1,9.796216011E0
2.881612151E0,3.110669553E-1,4.354937077E-1,9.796216011E0
2.883845610E0,3.254238665E-1,4.307080805E-1,9.763314247E0
2.886075163E0,3.104687333E-1,4.163511395E-1,9.781859398E0
2.888322722E0,3.104687333E-1,4.115654826E-1,9.781859398E0
2.890559660E0,3.104687333E-1,4.115654826E-1,9.777072906E0
2.892799285E0,2.967100143E-1,4.217349887E-1,9.757930756E0
2.895034209E0,2.967100143E-1,4.313062727E-1,9.781859398E0
2.897270171E0,3.014956415E-1,4.313062727E-1,9.772287369E0
2.899506499E0,3.110669553E-1,4.354937077E-1,9.796216011E0
2.901743315E0,3.008974493E-1,4.217349887E-1,9.777072906E0
2.903978117E0,2.871387303E-1,4.313062727E-1,9.772287369E0
2.906205290E0,3.110669553E-1,4.307080805E-1,9.781859398E0
2.908452543E0,3.008974493E-1,4.217349887E-1,9.777072906E0
2.910682524E0,3.014956415E-1,4.217349887E-1,9.772287369E0
2.912919402E0,2.967100143E-1,4.456632137E-1,9.777072906E0
2.915164214E0,3.062812984E-1,4.313062727E-1,9.757930756E0
2.917402129E0,2.967100143E-1,4.265206456E-1,9.777072906E0
2.919640898E0,2.967100143E-1,4.408775866E-1,9.772287369E0
2.921875639E0,3.104687333E-1,4.163511395E-1,9.781859398E0
2.924111296E0,3.158525825E-1,4.259224236E-1,9.777072906E0
2.926348051E0,2.961117923E-1,4.265206456E-1,9.781859398E0
2.928584868E0,2.967100143E-1,4.313062727E-1,9.762716293E0
2.930822722E0,3.062812984E-1,4.313062727E-1,9.772287369E0
2.933058562E0,2.919243574E-1,4.265206456E-1,9.777072906E0
2.935295378E0,3.008974493E-1,4.121637046E-1,9.757930756E0
2.937532133E0,2.961117923E-1,4.121637046E-1,9.777072906E0
2.939769682E0,2.961117923E-1,4.121637046E-1,9.781859398E0
2.942005461E0,2.967100143E-1,4.265206456E-1,9.757930756E0
2.944242094E0,3.014956415E-1,4.217349887E-1,9.753145218E0
2.946479216E0,3.014956415E-1,4.313062727E-1,9.772287369E0
2.948717253E0,2.919243574E-1,4.360919297E-1,9.781859398E0
2.950953825E0,3.062812984E-1,4.450650215E-1,9.781859398E0
2.953189360E0,2.823530734E-1,4.265206456E-1,9.748359680E0
2.955426176E0,2.961117923E-1,4.169493318E-1,9.791430473E0
2.957663725E0,3.008974493E-1,4.169493318E-1,9.781859398E0
2.959899870E0,2.727817893E-1,4.408775866E-1,9.777072906E0
2.962136687E0,2.967100143E-1,4.313062727E-1,9.781859398E0
2.964373503E0,3.062812984E-1,4.408775866E-1,9.772287369E0
2.966611296E0,3.110669553E-1,4.259224236E-1,9.772287369E0
2.968847075E0,2.961117923E-1,4.073780477E-1,9.772287369E0
2.971083647E0,2.967100143E-1,4.456632137E-1,9.781859398E0
2.973320464E0,2.913261652E-1,4.169493318E-1,9.796216011E0
2.975558256E0,3.014956415E-1,4.408775866E-1,9.786644936E0
2.977794157E0,2.913261652E-1,4.073780477E-1,9.786644936E0
2.980030913E0,2.961117923E-1,4.121637046E-1,9.777072906E0
2.982267607E0,3.056831062E-1,4.163511395E-1,9.791430473E0
2.984505827E0,2.865405083E-1,4.121637046E-1,9.767501831E0
2.986741362E0,3.014956415E-1,4.217349887E-1,9.762716293E0
2.988974577E0,3.008974493E-1,4.169493318E-1,9.781859398E0
2.991201079E0,3.152543902E-1,4.211367965E-1,9.796216011E0
2.993452849E0,2.961117923E-1,4.265206456E-1,9.781859398E0
2.995688750E0,3.008974493E-1,4.121637046E-1,9.767501831E0
2.997928923E0,3.014956415E-1,4.313062727E-1,9.767501831E0
3.000162077E0,2.823530734E-1,4.504488707E-1,9.767501831E0
3.002400053E0,3.062812984E-1,4.265206456E-1,9.767501831E0
3.004629301E0,3.062812984E-1,4.360919297E-1,9.777072906E0
3.006844267E0,2.871387303E-1,4.504488707E-1,9.791430473E0
3.009095183E0,2.967100143E-1,4.360919297E-1,9.777072906E0
3.011333586E0,2.919243574E-1,4.313062727E-1,9.772287369E0
3.013577117E0,3.062812984E-1,4.217349887E-1,9.772287369E0
3.015822661E0,2.967100143E-1,4.313062727E-1,9.777072906E0
3.018059172E0,3.014956415E-1,4.360919297E-1,9.781859398E0
3.020297148E0,2.967100143E-1,4.456632137E-1,9.786644936E0
3.022529936E0,3.062812984E-1,4.307080805E-1,9.781859398E0
3.024763762E0,2.919243574E-1,4.313062727E-1,9.772287369E0
3.026991667E0,3.008974493E-1,4.025924206E-1,9.781859398E0
3.029241423E0,2.871387303E-1,4.313062727E-1,9.772287369E0
3.031477202E0,3.014956415E-1,4.265206456E-1,9.772287369E0
3.033713774E0,3.062812984E-1,4.354937077E-1,9.777072906E0
3.035938689E0,2.913261652E-1,3.978067636E-1,9.767501831E0
3.038188689E0,2.919243574E-1,4.217349887E-1,9.762716293E0
3.040424528E0,2.961117923E-1,4.265206456E-1,9.796216011E0
3.042664153E0,3.206382394E-1,4.354937077E-1,9.781859398E0
3.044898100E0,2.967100143E-1,4.360919297E-1,9.781859398E0
3.047135649E0,3.014956415E-1,4.265206456E-1,9.781859398E0
3.049371489E0,3.062812984E-1,4.313062727E-1,9.772287369E0
3.051608122E0,3.104687333E-1,4.121637046E-1,9.762716293E0
3.053842497E0,3.008974493E-1,4.169493318E-1,9.767501831E0
3.056071257E0,3.062812984E-1,4.360919297E-1,9.757930756E0
3.058315825E0,3.014956415E-1,4.408775866E-1,9.743574142E0
3.060543303E0,3.062812984E-1,4.265206456E-1,9.753145218E0
3.062795073E0,2.967100143E-1,4.313062727E-1,9.777072906E0
3.065027006E0,2.967100143E-1,4.313062727E-1,9.767501831E0
3.067257109E0,3.158525825E-1,4.307080805E-1,9.772287369E0
3.069502653E0,3.062812984E-1,4.217349887E-1,9.757930756E0
3.071739470E0,2.961117923E-1,4.169493318E-1,9.767501831E0
3.073980132E0,2.823530734E-1,4.265206456E-1,9.762716293E0
3.076212798E0,2.967100143E-1,4.408775866E-1,9.753145218E0
3.078449614E0,2.961117923E-1,4.265206456E-1,9.786644936E0
3.080686430E0,2.961117923E-1,4.121637046E-1,9.777072906E0
3.082924284E0,2.961117923E-1,4.121637046E-1,9.781859398E0
3.085160124E0,2.967100143E-1,4.265206456E-1,9.767501831E0
3.087397002E0,2.967100143E-1,4.217349887E-1,9.757930756E0
3.089634062E0,3.014956415E-1,4.313062727E-1,9.753145218E0
3.091871794E0,3.062812984E-1,4.265206456E-1,9.753145218E0
3.094107329E0,3.110669553E-1,4.217349887E-1,9.757930756E0
3.096343901E0,2.871387303E-1,4.360919297E-1,9.767501831E0
3.098580901E0,3.062812984E-1,4.307080805E-1,9.786644936E0
3.100815641E0,2.769692242E-1,4.121637046E-1,9.786644936E0
3.103040007E0,3.014956415E-1,4.217349887E-1,9.767501831E0
3.105279448E0,3.062812984E-1,4.354937077E-1,9.791430473E0
3.107528044E0,3.014956415E-1,4.265206456E-1,9.772287369E0
3.109768706E0,3.014956415E-1,4.265206456E-1,9.767501831E0
3.112004546E0,3.014956415E-1,4.121637046E-1,9.753145218E0
3.114238188E0,3.056831062E-1,4.169493318E-1,9.767501831E0
3.116475066E0,2.823530734E-1,4.265206456E-1,9.777072906E0
3.118713042E0,2.673979402E-1,4.217349887E-1,9.786046028E0
3.120948698E0,2.967100143E-1,4.313062727E-1,9.781859398E0
3.123185576E0,3.056831062E-1,4.163511395E-1,9.781859398E0
3.125419645E0,2.913261652E-1,4.121637046E-1,9.762716293E0
3.127648711E0,3.110669553E-1,4.402793646E-1,9.791430473E0
3.129896208E0,2.961117923E-1,4.025924206E-1,9.757930756E0
3.132132719E0,3.056831062E-1,4.169493318E-1,9.772287369E0
3.134369536E0,2.871387303E-1,4.313062727E-1,9.777072906E0
3.136595000E0,2.967100143E-1,4.265206456E-1,9.762716293E0
3.138840666E0,3.110669553E-1,4.211367965E-1,9.767501831E0
3.141079497E0,2.967100143E-1,4.313062727E-1,9.762716293E0
3.143319548E0,2.967100143E-1,4.408775866E-1,9.781859398E0
3.145555204E0,2.871387303E-1,4.265206456E-1,9.767501831E0
3.147790251E0,2.865405083E-1,4.217349887E-1,9.777072906E0
3.150026884E0,3.062812984E-1,4.313062727E-1,9.743574142E0
3.152264067E0,3.110669553E-1,4.307080805E-1,9.772287369E0
3.154501616E0,3.008974493E-1,4.121637046E-1,9.777072906E0
3.156737273E0,3.008974493E-1,4.307080805E-1,9.796216011E0
3.158974028E0,2.919243574E-1,4.360919297E-1,9.767501831E0
3.161211150E0,3.014956415E-1,4.360919297E-1,9.777072906E0
3.163449003E0,3.008974493E-1,4.217349887E-1,9.786644936E0
3.165684843E0,2.919243574E-1,4.313062727E-1,9.781859398E0
3.167921538E0,2.865405083E-1,4.169493318E-1,9.777072906E0
3.170158110E0,2.871387303E-1,4.265206456E-1,9.777072906E0
3.172395903E0,2.871387303E-1,4.265206456E-1,9.767501831E0
3.174631743E0,2.871387303E-1,4.313062727E-1,9.772287369E0
3.176868620E0,3.014956415E-1,4.456632137E-1,9.781859398E0
3.179105437E0,3.158525825E-1,4.354937077E-1,9.767501831E0
3.181340178E0,2.967100143E-1,4.504488707E-1,9.781859398E0
3.183566801E0,3.062812984E-1,4.313062727E-1,9.767501831E0
3.185815581E0,2.967100143E-1,4.313062727E-1,9.772287369E0
3.188052397E0,2.967100143E-1,4.408775866E-1,9.762716293E0
3.190293242E0,3.014956415E-1,4.265206456E-1,9.772287369E0
3.192526030E0,3.062812984E-1,4.217349887E-1,9.767501831E0
3.194762602E0,2.913261652E-1,4.121637046E-1,9.786644936E0
3.196999480E0,2.919243574E-1,4.217349887E-1,9.762716293E0
3.199237517E0,2.919243574E-1,4.265206456E-1,9.762716293E0
3.201473296E0,2.967100143E-1,4.217349887E-1,9.753145218E0
3.203706755E0,2.961117923E-1,4.169493318E-1,9.777072906E0
3.205935026E0,2.769692242E-1,4.217349887E-1,9.781859398E0
3.208182524E0,2.871387303E-1,4.217349887E-1,9.767501831E0
3.210409819E0,3.008974493E-1,4.217349887E-1,9.777072906E0
3.212652800E0,3.062812984E-1,4.265206456E-1,9.777072906E0
3.214893950E0,3.056831062E-1,4.169493318E-1,9.767501831E0
3.217134001E0,2.871387303E-1,4.360919297E-1,9.757930756E0
3.219369414E0,2.919243574E-1,4.360919297E-1,9.772287369E0
3.221604216E0,3.062812984E-1,4.313062727E-1,9.767501831E0
3.223838285E0,2.961117923E-1,4.121637046E-1,9.791430473E0
3.226067046E0,2.961117923E-1,4.217349887E-1,9.786644936E0
3.228314665E0,2.961117923E-1,4.169493318E-1,9.767501831E0
3.230551421E0,3.062812984E-1,4.313062727E-1,9.772287369E0
3.232791228E0,3.062812984E-1,4.313062727E-1,9.762716293E0
3.235026091E0,2.961117923E-1,4.025924206E-1,9.777072906E0
3.237261870E0,2.865405083E-1,4.073780477E-1,9.777072906E0
3.239498442E0,3.062812984E-1,4.121637046E-1,9.748359680E0
3.241735319E0,3.104687333E-1,4.025924206E-1,9.753145218E0
3.243970366E0,2.913261652E-1,4.121637046E-1,9.781859398E0
3.246198027E0,3.008974493E-1,4.265206456E-1,9.786644936E0
3.248447050E0,2.967100143E-1,4.360919297E-1,9.772287369E0
3.250674956E0,3.014956415E-1,4.265206456E-1,9.767501831E0
3.252923308E0,2.967100143E-1,4.265206456E-1,9.767501831E0
3.255155425E0,3.062812984E-1,4.408775866E-1,9.767501831E0
3.257394926E0,3.014956415E-1,4.265206456E-1,9.772287369E0
3.259629790E0,2.961117923E-1,4.121637046E-1,9.767501831E0
3.261867400E0,3.014956415E-1,4.313062727E-1,9.772287369E0
3.264103484E0,2.871387303E-1,4.265206456E-1,9.777072906E0
3.266340300E0,3.056831062E-1,4.169493318E-1,9.777072906E0
3.268577177E0,3.014956415E-1,4.265206456E-1,9.767501831E0
3.270814848E0,2.823530734E-1,4.265206456E-1,9.772287369E0
3.273050444E0,2.967100143E-1,4.265206456E-1,9.748359680E0
3.275287321E0,3.014956415E-1,4.408775866E-1,9.781859398E0
3.277524321E0,2.871387303E-1,4.360919297E-1,9.777072906E0
3.279761870E0,2.919243574E-1,4.408775866E-1,9.796216011E0
3.281997526E0,3.008974493E-1,4.265206456E-1,9.786644936E0
3.284234526E0,2.871387303E-1,4.313062727E-1,9.767501831E0
3.286467741E0,3.056831062E-1,4.163511395E-1,9.781859398E0
3.288693877E0,3.008974493E-1,4.169493318E-1,9.772287369E0
3.290942046E0,3.008974493E-1,4.217349887E-1,9.791430473E0
3.293181609E0,3.014956415E-1,4.360919297E-1,9.772287369E0
3.295422270E0,3.206382394E-1,4.259224236E-1,9.772287369E0
3.297656889E0,3.158525825E-1,4.211367965E-1,9.772287369E0
3.299891997E0,3.014956415E-1,4.313062727E-1,9.777072906E0
3.302128569E0,3.062812984E-1,4.217349887E-1,9.772287369E0
3.304362761E0,3.062812984E-1,4.265206456E-1,9.777072906E0
3.306588774E0,2.961117923E-1,4.121637046E-1,9.762716293E0
3.308826445E0,2.919243574E-1,4.265206456E-1,9.753145218E0
3.311072234E0,2.961117923E-1,4.121637046E-1,9.777072906E0
3.313315825E0,2.823530734E-1,4.313062727E-1,9.767501831E0
3.315553435E0,2.961117923E-1,4.073780477E-1,9.762716293E0
3.317787321E0,3.056831062E-1,4.217349887E-1,9.772287369E0
3.320023283E0,2.967100143E-1,4.360919297E-1,9.757930756E0
3.322259734E0,2.919243574E-1,4.408775866E-1,9.757930756E0
3.324497771E0,3.014956415E-1,4.402793646E-1,9.791430473E0
3.326733488E0,3.056831062E-1,4.211367965E-1,9.781859398E0
3.328970244E0,2.865405083E-1,4.265206456E-1,9.781859398E0
3.331207182E0,2.817548811E-1,4.217349887E-1,9.791430473E0
3.333444792E0,2.817548811E-1,4.169493318E-1,9.772287369E0
3.335680815E0,2.967100143E-1,4.265206456E-1,9.767501831E0
3.337917143E0,2.967100143E-1,4.313062727E-1,9.767501831E0
3.340154326E0,2.919243574E-1,4.265206456E-1,9.748359680E0
3.342392241E0,2.919243574E-1,4.360919297E-1,9.762716293E0
3.344626738E0,3.014956415E-1,4.313062727E-1,9.777072906E0
3.346859831E0,2.967100143E-1,4.217349887E-1,9.757930756E0
3.349101469E0,3.062812984E-1,4.265206456E-1,9.777072906E0
3.351339323E0,3.062812984E-1,4.265206456E-1,9.767501831E0
3.353576323E0,3.206382394E-1,4.354937077E-1,9.767501831E0
3.355811735E0,2.967100143E-1,4.313062727E-1,9.777072906E0
3.358045744E0,3.062812984E-1,4.408775866E-1,9.767501831E0
3.360271269E0,3.062812984E-1,4.217349887E-1,9.762716293E0
3.362509978E0,3.014956415E-1,4.313062727E-1,9.777072906E0
3.364756315E0,2.967100143E-1,4.360919297E-1,9.753145218E0
3.366988310E0,2.865405083E-1,4.217349887E-1,9.801001549E0
3.369236601E0,2.871387303E-1,4.313062727E-1,9.781859398E0
3.371469145E0,3.014956415E-1,4.408775866E-1,9.786644936E0
3.373706633E0,3.008974493E-1,4.121637046E-1,9.781859398E0
3.375935026E0,2.913261652E-1,4.217349887E-1,9.772287369E0
3.378180815E0,2.967100143E-1,4.360919297E-1,9.781859398E0
3.380416167E0,2.919243574E-1,4.313062727E-1,9.777072906E0
3.382654997E0,3.158525825E-1,4.402793646E-1,9.757930756E0
3.384890044E0,3.110669553E-1,4.307080805E-1,9.777072906E0
3.387127959E0,2.913261652E-1,4.265206456E-1,9.791430473E0
3.389363798E0,2.961117923E-1,4.217349887E-1,9.777072906E0
3.391600554E0,2.817548811E-1,4.217349887E-1,9.777072906E0
3.393834379E0,2.919243574E-1,4.265206456E-1,9.777072906E0
3.396063139E0,2.919243574E-1,4.121637046E-1,9.753145218E0
3.398310698E0,2.913261652E-1,4.169493318E-1,9.781859398E0
3.400547514E0,3.056831062E-1,4.259224236E-1,9.786644936E0
3.402787322E0,2.913261652E-1,4.217349887E-1,9.777072906E0
3.405022124E0,2.913261652E-1,4.217349887E-1,9.777072906E0
3.407257719E0,2.919243574E-1,4.313062727E-1,9.772287369E0
3.409494597E0,2.967100143E-1,4.408775866E-1,9.772287369E0
3.411731657E0,2.967100143E-1,4.408775866E-1,9.772287369E0
3.413969450E0,3.056831062E-1,4.169493318E-1,9.777072906E0
3.416205046E0,2.967100143E-1,4.265206456E-1,9.772287369E0
3.418441801E0,2.919243574E-1,4.313062727E-1,9.757930756E0
3.420678618E0,2.919243574E-1,4.360919297E-1,9.791430473E0
3.422916472E0,3.014956415E-1,4.265206456E-1,9.781859398E0
3.425152251E0,3.014956415E-1,4.313062727E-1,9.786644936E0
3.427388884E0,2.871387303E-1,4.456632137E-1,9.772287369E0
3.429625944E0,2.967100143E-1,4.360919297E-1,9.757930756E0
3.431863737E0,3.014956415E-1,4.360919297E-1,9.772287369E0
3.434099577E0,2.871387303E-1,4.265206456E-1,9.777072906E0
3.436336699E0,2.967100143E-1,4.313062727E-1,9.767501831E0
3.438575346E0,2.913261652E-1,4.073780477E-1,9.772287369E0
3.440810698E0,3.062812984E-1,4.217349887E-1,9.757930756E0
3.443046599E0,3.110669553E-1,4.360919297E-1,9.753145218E0
3.445282805E0,2.967100143E-1,4.169493318E-1,9.757930756E0
3.447520232E0,2.865405083E-1,4.121637046E-1,9.781859398E0
3.449758025E0,3.014956415E-1,4.360919297E-1,9.791430473E0
3.451993803E0,3.158525825E-1,4.307080805E-1,9.772287369E0
3.454230376E0,3.062812984E-1,4.265206456E-1,9.781859398E0
3.456467192E0,3.152543902E-1,4.115654826E-1,9.772287369E0
3.458704985E0,2.967100143E-1,4.360919297E-1,9.781859398E0
3.460940886E0,3.062812984E-1,4.217349887E-1,9.767501831E0
3.463177702E0,3.014956415E-1,4.360919297E-1,9.786644936E0
3.465414519E0,2.967100143E-1,4.360919297E-1,9.772287369E0
3.467652312E0,3.062812984E-1,4.217349887E-1,9.757930756E0
3.469888090E0,3.014956415E-1,4.265206456E-1,9.767501831E0
3.472124724E0,2.913261652E-1,4.265206456E-1,9.796216011E0
3.474361723E0,3.014956415E-1,4.265206456E-1,9.772287369E0
3.476599272E0,2.865405083E-1,4.265206456E-1,9.791430473E0
3.478835173E0,2.961117923E-1,4.169493318E-1,9.777072906E0
3.481071867E0,2.913261652E-1,4.217349887E-1,9.777072906E0
3.483308562E0,3.104687333E-1,4.259224236E-1,9.791430473E0
3.485546599E0,3.104687333E-1,4.211367965E-1,9.786644936E0
3.487782378E0,2.919243574E-1,4.265206456E-1,9.762716293E0
3.490019072E0,3.104687333E-1,4.163511395E-1,9.781859398E0
3.492256010E0,2.919243574E-1,4.265206456E-1,9.767501831E0
3.494493620E0,3.062812984E-1,4.265206456E-1,9.762716293E0
3.496729704E0,3.014956415E-1,4.313062727E-1,9.772287369E0
3.498966215E0,3.158525825E-1,4.450650215E-1,9.772287369E0
3.501203154E0,3.062812984E-1,4.360919297E-1,9.777072906E0
3.503441130E0,2.919243574E-1,4.313062727E-1,9.767501831E0
3.505676970E0,3.014956415E-1,4.313062727E-1,9.738788605E0
3.507911467E0,3.014956415E-1,4.408775866E-1,9.777072906E0
3.510138945E0,3.110669553E-1,4.498506486E-1,9.781859398E0
3.512375822E0,2.967100143E-1,4.360919297E-1,9.743574142E0
3.514623686E0,3.014956415E-1,4.265206456E-1,9.772287369E0
3.516862639E0,2.823530734E-1,4.360919297E-1,9.781859398E0
3.519100676E0,2.769692242E-1,4.169493318E-1,9.772287369E0
3.521335417E0,3.014956415E-1,4.265206456E-1,9.762716293E0
3.523571013E0,2.961117923E-1,4.169493318E-1,9.777072906E0
3.525807768E0,3.062812984E-1,4.313062727E-1,9.753145218E0
3.528044585E0,2.967100143E-1,4.408775866E-1,9.777072906E0
3.530282439E0,3.062812984E-1,4.265206456E-1,9.767501831E0
3.532518278E0,3.008974493E-1,4.265206456E-1,9.796216011E0
3.534755034E0,3.104687333E-1,4.163511395E-1,9.767501831E0
3.536991667E0,3.014956415E-1,4.313062727E-1,9.762716293E0
3.539229643E0,3.206382394E-1,4.402793646E-1,9.767501831E0
3.541465239E0,3.062812984E-1,4.217349887E-1,9.772287369E0
3.543701078E0,3.062812984E-1,4.360919297E-1,9.777072906E0
3.545934721E0,2.871387303E-1,4.408775866E-1,9.762716293E0
3.548176726E0,3.008974493E-1,4.073780477E-1,9.762716293E0
3.550412505E0,3.110669553E-1,4.265206456E-1,9.757930756E0
3.552650176E0,3.062812984E-1,4.354937077E-1,9.781859398E0
3.554886198E0,2.967100143E-1,4.313062727E-1,9.767501831E0
3.557123991E0,3.014956415E-1,4.217349887E-1,9.757930756E0
3.559359831E0,2.919243574E-1,4.169493318E-1,9.753145218E0
3.561596403E0,3.014956415E-1,4.313062727E-1,9.762716293E0
3.563830473E0,2.817548811E-1,4.265206456E-1,9.781859398E0
3.566059233E0,2.967100143E-1,4.313062727E-1,9.762716293E0
3.568303740E0,3.008974493E-1,4.211367965E-1,9.801001549E0
3.570531157E0,2.823530734E-1,4.360919297E-1,9.772287369E0
3.572783415E0,2.871387303E-1,4.217349887E-1,9.762716293E0
3.575018278E0,2.919243574E-1,4.456632137E-1,9.781859398E0
3.577257170E0,2.919243574E-1,4.217349887E-1,9.762716293E0
3.579490630E0,3.062812984E-1,4.360919297E-1,9.762716293E0
3.581727446E0,3.254238665E-1,4.211367965E-1,9.758528709E0
3.583962248E0,2.967100143E-1,4.217349887E-1,9.772287369E0
3.586185393E0,2.871387303E-1,4.265206456E-1,9.772287369E0
3.588419767E0,3.008974493E-1,4.121637046E-1,9.781859398E0
3.590662566E0,2.871387303E-1,4.360919297E-1,9.753145218E0
3.592915557E0,2.919243574E-1,4.408775866E-1,9.772287369E0
3.595152128E0,3.110669553E-1,4.265206456E-1,9.753145218E0
3.597388030E0,3.056831062E-1,4.025924206E-1,9.757930756E0
3.599619108E0,2.919243574E-1,4.265206456E-1,9.786644936E0
3.601845121E0,2.775674164E-1,4.313062727E-1,9.772287369E0
3.604083708E0,2.967100143E-1,4.217349887E-1,9.762716293E0
3.606332243E0,3.062812984E-1,4.313062727E-1,9.786644936E0
3.608572234E0,2.967100143E-1,4.265206456E-1,9.757930756E0
3.610810027E0,2.865405083E-1,4.217349887E-1,9.786644936E0
3.613042692E0,3.008974493E-1,4.217349887E-1,9.781859398E0
3.615279448E0,2.967100143E-1,4.265206456E-1,9.757930756E0
3.617516203E0,3.062812984E-1,4.360919297E-1,9.757930756E0
3.619753813E0,3.110669553E-1,4.408775866E-1,9.762716293E0
3.621989653E0,3.206382394E-1,4.402793646E-1,9.772287369E0
3.624226530E0,2.967100143E-1,4.265206456E-1,9.781859398E0
3.626463652E0,3.158525825E-1,4.408775866E-1,9.748359680E0
3.628701384E0,2.919243574E-1,4.360919297E-1,9.772287369E0
3.630936919E0,2.919243574E-1,4.217349887E-1,9.757930756E0
3.633173491E0,2.871387303E-1,4.360919297E-1,9.757930756E0
3.635407560E0,3.110669553E-1,4.259224236E-1,9.781859398E0
3.637636442E0,3.014956415E-1,4.313062727E-1,9.786644936E0
3.639884245E0,2.919243574E-1,4.360919297E-1,9.781859398E0
3.642120817E0,3.062812984E-1,4.360919297E-1,9.777072906E0
3.644360869E0,2.961117923E-1,4.217349887E-1,9.777072906E0
3.646595610E0,2.967100143E-1,4.408775866E-1,9.791430473E0
3.648828521E0,3.110669553E-1,4.265206456E-1,9.767501831E0
3.651054411E0,3.008974493E-1,4.169493318E-1,9.777072906E0
3.653294340E0,3.014956415E-1,4.265206456E-1,9.772287369E0
3.655542692E0,3.014956415E-1,4.313062727E-1,9.777072906E0
3.657778288E0,3.062812984E-1,4.360919297E-1,9.753145218E0
3.660005950E0,3.014956415E-1,4.313062727E-1,9.762716293E0
3.662251921E0,2.919243574E-1,4.217349887E-1,9.762716293E0
3.664489897E0,2.961117923E-1,4.265206456E-1,9.781859398E0
3.666728484E0,3.056831062E-1,4.169493318E-1,9.772287369E0
3.668962431E0,2.961117923E-1,4.121637046E-1,9.786644936E0
3.671199431E0,2.967100143E-1,4.265206456E-1,9.767501831E0
3.673437224E0,2.967100143E-1,4.313062727E-1,9.767501831E0
3.675672819E0,3.008974493E-1,4.217349887E-1,9.786644936E0
3.677909636E0,3.056831062E-1,4.073780477E-1,9.781859398E0
3.680146635E0,2.967100143E-1,4.408775866E-1,9.772287369E0
3.682384245E0,2.967100143E-1,4.408775866E-1,9.767501831E0
3.684616606E0,3.104687333E-1,4.163511395E-1,9.781859398E0
3.686842863E0,2.919243574E-1,4.313062727E-1,9.772287369E0
3.689093413E0,2.967100143E-1,4.265206456E-1,9.772287369E0
3.691331206E0,3.104687333E-1,4.211367965E-1,9.781859398E0
3.693570525E0,3.104687333E-1,4.163511395E-1,9.772287369E0
3.695803862E0,2.871387303E-1,4.313062727E-1,9.777072906E0
3.698040861E0,2.961117923E-1,4.217349887E-1,9.786644936E0
3.700279997E0,3.056831062E-1,4.169493318E-1,9.772287369E0
3.702514372E0,2.967100143E-1,4.313062727E-1,9.777072906E0
3.704748198E0,2.967100143E-1,4.313062727E-1,9.772287369E0
3.706975371E0,2.919243574E-1,4.360919297E-1,9.781859398E0
3.709225554E0,3.014956415E-1,4.408775866E-1,9.781859398E0
3.711461638E0,2.919243574E-1,4.265206456E-1,9.767501831E0
3.713701445E0,3.014956415E-1,4.313062727E-1,9.762716293E0
3.715935087E0,3.062812984E-1,4.265206456E-1,9.757930756E0
3.718173003E0,2.871387303E-1,4.360919297E-1,9.767501831E0
3.720408598E0,2.871387303E-1,4.313062727E-1,9.757930756E0
3.722645537E0,2.919243574E-1,4.265206456E-1,9.757930756E0
3.724882475E0,2.919243574E-1,4.313062727E-1,9.777072906E0
3.727120085E0,3.110669553E-1,4.402793646E-1,9.796216011E0
3.729355864E0,3.014956415E-1,4.265206456E-1,9.772287369E0
3.731592436E0,2.919243574E-1,4.313062727E-1,9.767501831E0
3.733826506E0,2.913261652E-1,4.169493318E-1,9.781859398E0
3.736055083E0,2.919243574E-1,4.265206456E-1,9.781859398E0
3.738302824E0,2.961117923E-1,4.169493318E-1,9.772287369E0
3.740539214E0,2.919243574E-1,4.217349887E-1,9.762716293E0
3.742779509E0,2.913261652E-1,4.121637046E-1,9.796216011E0
3.745014067E0,3.110669553E-1,4.307080805E-1,9.791430473E0
3.747250090E0,3.008974493E-1,4.169493318E-1,9.767501831E0
3.749487028E0,3.110669553E-1,4.354937077E-1,9.767501831E0
3.751723906E0,2.967100143E-1,4.504488707E-1,9.791430473E0
3.753961577E0,3.014956415E-1,4.402793646E-1,9.796216011E0
3.756196867E0,2.919243574E-1,4.313062727E-1,9.772287369E0
3.758433745E0,3.008974493E-1,4.217349887E-1,9.777072906E0
3.760670744E0,3.104687333E-1,4.259224236E-1,9.786644936E0
3.762908476E0,2.865405083E-1,4.265206456E-1,9.781859398E0
3.765144560E0,2.865405083E-1,4.217349887E-1,9.777072906E0
3.767381316E0,2.823530734E-1,4.360919297E-1,9.767501831E0
3.769618193E0,3.062812984E-1,4.360919297E-1,9.762716293E0
3.771855925E0,2.967100143E-1,4.169493318E-1,9.753145218E0
3.774091704E0,3.014956415E-1,4.313062727E-1,9.743574142E0
3.776328276E0,3.062812984E-1,4.456632137E-1,9.772287369E0
3.778566435E0,2.967100143E-1,4.360919297E-1,9.781859398E0
3.780808195E0,3.200400174E-1,4.115654826E-1,9.768099785E0
3.783038481E0,2.919243574E-1,4.313062727E-1,9.762716293E0
3.785275298E0,2.961117923E-1,4.025924206E-1,9.748359680E0
3.787510832E0,3.206382394E-1,4.307080805E-1,9.767501831E0
3.789750212E0,2.961117923E-1,4.169493318E-1,9.791430473E0
3.791985808E0,2.967100143E-1,4.360919297E-1,9.767501831E0
3.794222563E0,3.056831062E-1,4.169493318E-1,9.786644936E0
3.796459135E0,2.871387303E-1,4.265206456E-1,9.767501831E0
3.798697295E0,3.110669553E-1,4.313062727E-1,9.748359680E0
3.800933317E0,3.014956415E-1,4.456632137E-1,9.772287369E0
3.803167021E0,3.062812984E-1,4.313062727E-1,9.781859398E0
3.805392057E0,2.967100143E-1,4.313062727E-1,9.767501831E0
3.807629728E0,2.961117923E-1,4.121637046E-1,9.796216011E0
3.809868376E0,2.967100143E-1,4.265206456E-1,9.772287369E0
3.812120085E0,2.919243574E-1,4.360919297E-1,9.777072906E0
3.814356841E0,2.913261652E-1,4.121637046E-1,9.796216011E0
3.816594512E0,2.967100143E-1,4.169493318E-1,9.762716293E0
3.818827544E0,2.871387303E-1,4.313062727E-1,9.772287369E0
3.821064116E0,2.967100143E-1,4.360919297E-1,9.777072906E0
3.823299955E0,3.062812984E-1,4.456632137E-1,9.772287369E0
3.825534514E0,2.967100143E-1,4.408775866E-1,9.767501831E0
3.827774382E0,3.062812984E-1,4.313062727E-1,9.762716293E0
3.830011442E0,2.961117923E-1,4.217349887E-1,9.777072906E0
3.832249236E0,3.014956415E-1,4.360919297E-1,9.777072906E0
3.834485808E0,2.871387303E-1,4.265206456E-1,9.767501831E0
3.836721587E0,2.871387303E-1,4.169493318E-1,9.757930756E0
3.838958403E0,2.967100143E-1,4.265206456E-1,9.772287369E0
3.841195341E0,2.967100143E-1,4.504488707E-1,9.772287369E0
3.843433317E0,3.062812984E-1,4.217349887E-1,9.767501831E0
3.845668913E0,2.871387303E-1,4.313062727E-1,9.757930756E0
3.847905791E0,2.823530734E-1,4.313062727E-1,9.781859398E0
3.850142729E0,3.014956415E-1,4.408775866E-1,9.762716293E0
3.852380339E0,3.062812984E-1,4.217349887E-1,9.762716293E0
3.854616118E0,2.919243574E-1,4.313062727E-1,9.757930756E0
3.856852690E0,2.823530734E-1,4.313062727E-1,9.781859398E0
3.859089751E0,2.817548811E-1,4.121637046E-1,9.801001549E0
3.861327299E0,3.104687333E-1,4.163511395E-1,9.777072906E0
3.863563139E0,3.014956415E-1,4.265206456E-1,9.777072906E0
3.865799651E0,2.913261652E-1,4.169493318E-1,9.777072906E0
3.868036589E0,2.913261652E-1,4.073780477E-1,9.762716293E0
3.870274626E0,2.961117923E-1,4.121637046E-1,9.791430473E0
3.872510466E0,3.104687333E-1,4.211367965E-1,9.786644936E0
3.874747038E0,2.919243574E-1,4.360919297E-1,9.791430473E0
3.876983855E0,3.014956415E-1,4.313062727E-1,9.772287369E0
3.879221831E0,3.152543902E-1,4.259224236E-1,9.786644936E0
3.881457487E0,3.014956415E-1,4.360919297E-1,9.762716293E0
3.883695219E0,2.871387303E-1,4.265206456E-1,9.748359680E0
3.885934721E0,2.817548811E-1,4.217349887E-1,9.791430473E0
3.888168913E0,2.967100143E-1,4.169493318E-1,9.767501831E0
3.890404692E0,3.110669553E-1,4.408775866E-1,9.767501831E0
3.892640410E0,2.913261652E-1,4.121637046E-1,9.762716293E0
3.894878447E0,2.913261652E-1,4.121637046E-1,9.772287369E0
3.897116423E0,2.871387303E-1,4.265206456E-1,9.767501831E0
3.899352019E0,3.206382394E-1,4.211367965E-1,9.758528709E0
3.901587004E0,3.062812984E-1,4.217349887E-1,9.762716293E0
3.903816191E0,3.110669553E-1,4.265206456E-1,9.757930756E0
3.906048246E0,2.632105052E-1,4.414757788E-1,9.753145218E0
3.908287260E0,2.919243574E-1,4.265206456E-1,9.762716293E0
3.910537138E0,2.967100143E-1,4.408775866E-1,9.777072906E0
3.912775664E0,3.062812984E-1,4.360919297E-1,9.762716293E0
3.915013396E0,3.062812984E-1,4.217349887E-1,9.772287369E0
3.917246306E0,3.014956415E-1,4.265206456E-1,9.762716293E0
3.919482817E0,3.014956415E-1,4.217349887E-1,9.772287369E0
3.921719633E0,2.919243574E-1,4.552344978E-1,9.767501831E0
3.923954435E0,2.871387303E-1,4.217349887E-1,9.753145218E0
3.926181303E0,3.014956415E-1,4.408775866E-1,9.753145218E0
3.928429900E0,3.062812984E-1,4.313062727E-1,9.772287369E0
3.930666960E0,2.967100143E-1,4.217349887E-1,9.753145218E0
3.932907744E0,3.062812984E-1,4.313062727E-1,9.753145218E0
3.935140593E0,3.110669553E-1,4.265206456E-1,9.767501831E0
3.937377165E0,3.014956415E-1,4.313062727E-1,9.781859398E0
3.939614226E0,3.062812984E-1,4.265206456E-1,9.777072906E0
3.941851958E0,3.014956415E-1,4.313062727E-1,9.777072906E0
3.944087614E0,2.919243574E-1,4.313062727E-1,9.753145218E0
3.946324370E0,2.913261652E-1,4.169493318E-1,9.772287369E0
3.948561186E0,3.062812984E-1,4.265206456E-1,9.772287369E0
3.950799101E0,3.014956415E-1,4.265206456E-1,9.772287369E0
3.953035063E0,3.014956415E-1,4.169493318E-1,9.762716293E0
3.955271452E0,3.014956415E-1,4.408775866E-1,9.777072906E0
3.957508452E0,2.913261652E-1,4.217349887E-1,9.781859398E0
3.959746001E0,3.014956415E-1,4.456632137E-1,9.777072906E0
3.961982207E0,2.967100143E-1,4.408775866E-1,9.772287369E0
3.964218901E0,2.919243574E-1,4.217349887E-1,9.762716293E0
3.966455534E0,2.919243574E-1,4.313062727E-1,9.781859398E0
3.968693266E0,3.008974493E-1,4.217349887E-1,9.781859398E0
3.970929045E0,2.919243574E-1,4.360919297E-1,9.757930756E0
3.973165678E0,2.865405083E-1,4.217349887E-1,9.777072906E0
3.975402495E0,2.871387303E-1,4.313062727E-1,9.777072906E0
3.977640288E0,2.919243574E-1,4.360919297E-1,9.772287369E0
3.979876189E0,2.961117923E-1,4.169493318E-1,9.791430473E0
3.982113066E0,3.110669553E-1,4.402793646E-1,9.796216011E0
3.984350127E0,3.104687333E-1,4.115654826E-1,9.791430473E0
3.986587859E0,3.014956415E-1,4.217349887E-1,9.767501831E0
3.988820463E0,3.014956415E-1,4.313062727E-1,9.767501831E0
3.991045256E0,3.110669553E-1,4.307080805E-1,9.777072906E0
3.993285063E0,2.967100143E-1,4.217349887E-1,9.762716293E0
3.995534880E0,3.014956415E-1,4.265206456E-1,9.777072906E0
3.997773711E0,2.967100143E-1,4.313062727E-1,9.753145218E0
4.000010466E0,2.919243574E-1,4.360919297E-1,9.757930756E0
4.002244109E0,2.919243574E-1,4.313062727E-1,9.753145218E0
4.004482085E0,2.967100143E-1,4.265206456E-1,9.772287369E0
4.006717680E0,3.014956415E-1,4.408775866E-1,9.772287369E0
4.008954558E0,2.967100143E-1,4.313062727E-1,9.762716293E0
4.011191313E0,2.865405083E-1,4.217349887E-1,9.786644936E0
4.013429167E0,2.919243574E-1,4.408775866E-1,9.772287369E0
4.015664946E0,2.967100143E-1,4.313062727E-1,9.767501831E0
4.017898527E0,2.967100143E-1,4.265206456E-1,9.772287369E0
4.020126433E0,2.967100143E-1,4.360919297E-1,9.777072906E0
4.022376433E0,2.961117923E-1,4.121637046E-1,9.777072906E0
4.024610991E0,2.967100143E-1,4.360919297E-1,9.781859398E0
4.026846709E0,3.062812984E-1,4.217349887E-1,9.772287369E0
4.029084990E0,3.014956415E-1,4.313062727E-1,9.772287369E0
4.031320952E0,3.014956415E-1,4.217349887E-1,9.772287369E0
4.033560576E0,3.056831062E-1,4.169493318E-1,9.777072906E0
4.035796110E0,2.961117923E-1,4.169493318E-1,9.777072906E0
4.038030730E0,3.110669553E-1,4.313062727E-1,9.762716293E0
4.040259428E0,3.008974493E-1,4.217349887E-1,9.786644936E0
4.042506255E0,2.913261652E-1,4.217349887E-1,9.777072906E0
4.044740141E0,3.008974493E-1,4.169493318E-1,9.767501831E0
4.046970977E0,3.056831062E-1,4.169493318E-1,9.772287369E0
4.049217802E0,2.919243574E-1,4.456632137E-1,9.753145218E0
4.051453764E0,3.062812984E-1,4.360919297E-1,9.757930756E0
4.053695097E0,2.919243574E-1,4.265206456E-1,9.772287369E0
4.055935271E0,3.110669553E-1,4.307080805E-1,9.772287369E0
4.058164885E0,2.871387303E-1,4.169493318E-1,9.762716293E0
4.060400603E0,2.961117923E-1,4.169493318E-1,9.781859398E0
4.062635405E0,2.967100143E-1,4.313062727E-1,9.772287369E0
4.064874419E0,3.014956415E-1,4.408775866E-1,9.762716293E0
4.067112089E0,2.769692242E-1,4.169493318E-1,9.772287369E0
4.069345915E0,2.919243574E-1,4.265206456E-1,9.777072906E0
4.071574065E0,3.014956415E-1,4.265206456E-1,9.757930756E0
4.073811430E0,2.967100143E-1,4.313062727E-1,9.772287369E0
4.076047270E0,2.913261652E-1,4.169493318E-1,9.767501831E0
4.078297270E0,3.056831062E-1,4.217349887E-1,9.781859398E0
4.080533476E0,2.913261652E-1,4.265206456E-1,9.786644936E0
4.082771697E0,3.056831062E-1,4.259224236E-1,9.791430473E0
4.085003447E0,2.913261652E-1,4.121637046E-1,9.772287369E0
4.087230986E0,2.967100143E-1,4.121637046E-1,9.748359680E0
4.089479155E0,3.062812984E-1,4.307080805E-1,9.786644936E0
4.091715849E0,3.110669553E-1,4.259224236E-1,9.772287369E0
4.093956572E0,3.110669553E-1,4.402793646E-1,9.791430473E0
4.096189055E0,3.110669553E-1,4.402793646E-1,9.786644936E0
4.098423063E0,3.008974493E-1,4.217349887E-1,9.786644936E0
4.100648344E0,2.919243574E-1,4.504488707E-1,9.767501831E0
4.102889189E0,3.062812984E-1,4.354937077E-1,9.777072906E0
4.105136687E0,3.206382394E-1,4.402793646E-1,9.777072906E0
4.107376189E0,3.110669553E-1,4.313062727E-1,9.757930756E0
4.109613188E0,3.110669553E-1,4.259224236E-1,9.772287369E0
4.111847807E0,3.014956415E-1,4.217349887E-1,9.753145218E0
4.114083647E0,3.014956415E-1,4.265206456E-1,9.777072906E0
4.116320219E0,3.056831062E-1,4.121637046E-1,9.757930756E0
4.118554289E0,2.967100143E-1,4.313062727E-1,9.762716293E0
4.120782866E0,3.014956415E-1,4.313062727E-1,9.757930756E0
4.123030730E0,2.919243574E-1,4.313062727E-1,9.762716293E0
4.125267485E0,2.967100143E-1,4.265206456E-1,9.767501831E0
4.127507414E0,3.008974493E-1,4.265206456E-1,9.781859398E0
4.129742400E0,2.919243574E-1,4.265206456E-1,9.762716293E0
4.131977995E0,2.967100143E-1,4.360919297E-1,9.786644936E0
4.134211882E0,2.919243574E-1,4.313062727E-1,9.757930756E0
4.136439909E0,2.919243574E-1,4.360919297E-1,9.767501831E0
4.138688017E0,2.913261652E-1,4.265206456E-1,9.786644936E0
4.140915617E0,3.152543902E-1,4.163511395E-1,9.781859398E0
4.143152739E0,3.014956415E-1,4.313062727E-1,9.767501831E0
4.145398589E0,3.008974493E-1,4.217349887E-1,9.781859398E0
4.147638335E0,3.062812984E-1,4.265206456E-1,9.748359680E0
4.149875517E0,3.158525825E-1,4.450650215E-1,9.786644936E0
4.152109160E0,3.158525825E-1,4.354937077E-1,9.762716293E0
4.154346098E0,3.014956415E-1,4.456632137E-1,9.762716293E0
4.156583647E0,3.200400174E-1,4.115654826E-1,9.768099785E0
4.158819548E0,2.967100143E-1,4.313062727E-1,9.762716293E0
4.161056303E0,3.014956415E-1,4.456632137E-1,9.762716293E0
4.163293242E0,3.062812984E-1,4.313062727E-1,9.781859398E0
4.165531157E0,2.967100143E-1,4.217349887E-1,9.753145218E0
4.167763578E0,3.020938635E-1,4.600201547E-1,9.757930756E0
4.169991667E0,2.919243574E-1,4.217349887E-1,9.772287369E0
4.172240385E0,2.913261652E-1,4.265206456E-1,9.791430473E0
4.174478239E0,2.871387303E-1,4.504488707E-1,9.767501831E0
4.176716704E0,3.008974493E-1,4.265206456E-1,9.791430473E0
4.178947294E0,3.110669553E-1,4.354937077E-1,9.772287369E0
4.181175200E0,3.110669553E-1,4.307080805E-1,9.777072906E0
4.183425322E0,2.967100143E-1,4.504488707E-1,9.762716293E0
4.185661406E0,2.919243574E-1,4.265206456E-1,9.772287369E0
4.187900969E0,3.014956415E-1,4.217349887E-1,9.772287369E0
4.190134673E0,2.913261652E-1,4.121637046E-1,9.767501831E0
4.192372221E0,2.865405083E-1,4.121637046E-1,9.772287369E0
4.194608305E0,3.062812984E-1,4.217349887E-1,9.772287369E0
4.196844878E0,2.919243574E-1,4.313062727E-1,9.767501831E0
4.199081755E0,2.913261652E-1,4.169493318E-1,9.772287369E0
4.201319426E0,2.919243574E-1,4.169493318E-1,9.757930756E0
4.203555083E0,3.110669553E-1,4.354937077E-1,9.767501831E0
4.205791960E0,2.919243574E-1,4.360919297E-1,9.767501831E0
4.208028960E0,3.062812984E-1,4.313062727E-1,9.781859398E0
4.210266569E0,2.913261652E-1,4.073780477E-1,9.781859398E0
4.212502409E0,3.062812984E-1,4.360919297E-1,9.757930756E0
4.214739165E0,3.014956415E-1,4.217349887E-1,9.772287369E0
4.216976042E0,3.008974493E-1,4.169493318E-1,9.777072906E0
4.219213347E0,2.919243574E-1,4.313062727E-1,9.786644936E0
4.221447722E0,3.110669553E-1,4.259224236E-1,9.772287369E0
4.223681974E0,3.062812984E-1,4.265206456E-1,9.738788605E0
4.225905241E0,2.871387303E-1,4.265206456E-1,9.762716293E0
4.228161589E0,3.062812984E-1,4.169493318E-1,9.762716293E0
4.230396880E0,3.056831062E-1,4.259224236E-1,9.786644936E0
4.232638030E0,2.775674164E-1,4.265206456E-1,9.777072906E0
4.234870573E0,3.110669553E-1,4.313062727E-1,9.762716293E0
4.237108366E0,2.967100143E-1,4.265206456E-1,9.772287369E0
4.239344145E0,3.014956415E-1,4.265206456E-1,9.767501831E0
4.241580473E0,2.865405083E-1,4.169493318E-1,9.781859398E0
4.243814604E0,3.110669553E-1,4.354937077E-1,9.767501831E0
4.246043608E0,3.008974493E-1,4.121637046E-1,9.781859398E0
4.248291289E0,3.158525825E-1,4.307080805E-1,9.781859398E0
4.250528044E0,2.919243574E-1,4.217349887E-1,9.757930756E0
4.252767790E0,3.014956415E-1,4.217349887E-1,9.767501831E0
4.255002653E0,3.110669553E-1,4.354937077E-1,9.772287369E0
4.257238432E0,2.919243574E-1,4.217349887E-1,9.767501831E0
4.259475005E0,3.110669553E-1,4.498506486E-1,9.781859398E0
4.261711760E0,3.014956415E-1,4.360919297E-1,9.781859398E0
4.263946379E0,2.967100143E-1,4.265206456E-1,9.762716293E0
4.266173491E0,2.865405083E-1,4.217349887E-1,9.786644936E0
4.268422087E0,3.014956415E-1,4.217349887E-1,9.767501831E0
4.270659209E0,2.967100143E-1,4.169493318E-1,9.757930756E0
4.272899932E0,2.961117923E-1,4.073780477E-1,9.772287369E0
4.275132780E0,2.961117923E-1,4.121637046E-1,9.772287369E0
4.277369292E0,2.913261652E-1,4.169493318E-1,9.796216011E0
4.279606169E0,2.871387303E-1,4.217349887E-1,9.772287369E0
4.281844206E0,3.062812984E-1,4.217349887E-1,9.772287369E0
4.284080107E0,2.865405083E-1,4.073780477E-1,9.777072906E0
4.286316801E0,2.967100143E-1,4.265206456E-1,9.781859398E0
4.288553130E0,2.865405083E-1,4.217349887E-1,9.781859398E0
4.290791167E0,2.967100143E-1,4.360919297E-1,9.781859398E0
4.293026945E0,3.014956415E-1,4.313062727E-1,9.772287369E0
4.295263701E0,3.014956415E-1,4.313062727E-1,9.757930756E0
4.297500639E0,3.008974493E-1,4.169493318E-1,9.786644936E0
4.299738188E0,3.062812984E-1,4.354937077E-1,9.786644936E0
4.301974089E0,2.961117923E-1,4.121637046E-1,9.762716293E0
4.304207914E0,2.871387303E-1,4.265206456E-1,9.767501831E0
4.306433073E0,3.158525825E-1,4.307080805E-1,9.786644936E0
4.308670744E0,3.014956415E-1,4.169493318E-1,9.757930756E0
4.310906157E0,2.919243574E-1,4.265206456E-1,9.767501831E0
4.313146208E0,3.014956415E-1,4.265206456E-1,9.767501831E0
4.315383269E0,2.817548811E-1,4.025924206E-1,9.762716293E0
4.317621184E0,2.865405083E-1,4.217349887E-1,9.772287369E0
4.319856901E0,2.961117923E-1,4.121637046E-1,9.767501831E0
4.322093474E0,2.775674164E-1,4.313062727E-1,9.777072906E0
4.324330534E0,2.871387303E-1,4.217349887E-1,9.762716293E0
4.326568205E0,3.014956415E-1,4.217349887E-1,9.767501831E0
4.328803679E0,3.014956415E-1,4.313062727E-1,9.772287369E0
4.331040800E0,2.913261652E-1,4.169493318E-1,9.777072906E0
4.333277983E0,2.919243574E-1,4.265206456E-1,9.772287369E0
4.335515349E0,2.871387303E-1,4.360919297E-1,9.757930756E0
4.337750944E0,2.967100143E-1,4.408775866E-1,9.767501831E0
4.339987822E0,3.014956415E-1,4.265206456E-1,9.762716293E0
4.342226835E0,3.206382394E-1,4.307080805E-1,9.772287369E0
4.344471587E0,3.056831062E-1,4.163511395E-1,9.801001549E0
4.346699370E0,2.967100143E-1,4.313062727E-1,9.777072906E0
4.348940947E0,2.913261652E-1,4.073780477E-1,9.777072906E0
4.351169768E0,2.967100143E-1,4.217349887E-1,9.772287369E0
4.353409697E0,2.871387303E-1,4.360919297E-1,9.772287369E0
4.355644072E0,2.775674164E-1,4.313062727E-1,9.762716293E0
4.357882414E0,3.062812984E-1,4.313062727E-1,9.772287369E0
4.360118803E0,2.967100143E-1,4.360919297E-1,9.786644936E0
4.362356535E0,2.871387303E-1,4.265206456E-1,9.777072906E0
4.364590544E0,3.062812984E-1,4.265206456E-1,9.777072906E0
4.366823027E0,3.062812984E-1,4.313062727E-1,9.767501831E0
4.369069304E0,2.967100143E-1,4.313062727E-1,9.757930756E0
4.371318633E0,3.110669553E-1,4.354937077E-1,9.767501831E0
4.373555938E0,3.110669553E-1,4.265206456E-1,9.757930756E0
4.375790923E0,2.961117923E-1,4.169493318E-1,9.767501831E0
4.378022123E0,2.919243574E-1,4.456632137E-1,9.767501831E0
4.380250944E0,2.967100143E-1,4.408775866E-1,9.772287369E0
4.382498747E0,3.104687333E-1,4.163511395E-1,9.791430473E0
4.384732389E0,3.014956415E-1,4.169493318E-1,9.757930756E0
4.386963591E0,3.014956415E-1,4.313062727E-1,9.781859398E0
4.389209868E0,3.008974493E-1,4.169493318E-1,9.767501831E0
4.391445769E0,3.014956415E-1,4.360919297E-1,9.762716293E0
4.393681914E0,2.913261652E-1,4.265206456E-1,9.786644936E0
4.395905241E0,3.056831062E-1,4.025924206E-1,9.786644936E0
4.398157133E0,3.056831062E-1,4.169493318E-1,9.772287369E0
4.400389738E0,2.913261652E-1,4.265206456E-1,9.791430473E0
4.402619048E0,2.967100143E-1,4.360919297E-1,9.767501831E0
4.404855131E0,3.062812984E-1,4.313062727E-1,9.767501831E0
4.407092497E0,3.110669553E-1,4.307080805E-1,9.772287369E0
4.409343047E0,2.919243574E-1,4.360919297E-1,9.748359680E0
4.411578947E0,3.110669553E-1,4.265206456E-1,9.753145218E0
4.413814238E0,2.967100143E-1,4.265206456E-1,9.743574142E0
4.416041960E0,2.919243574E-1,4.456632137E-1,9.781859398E0
4.418287260E0,3.056831062E-1,4.169493318E-1,9.767501831E0
4.420523894E0,2.967100143E-1,4.408775866E-1,9.781859398E0
4.422763334E0,2.871387303E-1,4.265206456E-1,9.767501831E0
4.424998747E0,3.014956415E-1,4.265206456E-1,9.757930756E0
4.427234587E0,2.961117923E-1,4.121637046E-1,9.777072906E0
4.429471159E0,2.967100143E-1,4.408775866E-1,9.767501831E0
4.431708159E0,2.817548811E-1,4.265206456E-1,9.781859398E0
4.433945647E0,2.919243574E-1,4.456632137E-1,9.772287369E0
4.436181303E0,3.158525825E-1,4.307080805E-1,9.772287369E0
4.438418059E0,3.014956415E-1,4.265206456E-1,9.772287369E0
4.440654936E0,2.817548811E-1,4.169493318E-1,9.772287369E0
4.442892851E0,3.056831062E-1,4.121637046E-1,9.781859398E0
4.445124296E0,3.110669553E-1,4.217349887E-1,9.767501831E0
4.447347136E0,2.919243574E-1,4.265206456E-1,9.762716293E0
4.449602324E0,3.062812984E-1,4.265206456E-1,9.762716293E0
4.451840239E0,3.062812984E-1,4.217349887E-1,9.762716293E0
4.454080413E0,2.967100143E-1,4.313062727E-1,9.767501831E0
4.456312468E0,3.056831062E-1,4.217349887E-1,9.777072906E0
4.458549467E0,3.008974493E-1,4.217349887E-1,9.777072906E0
4.460787260E0,2.961117923E-1,4.217349887E-1,9.781859398E0
4.463022978E0,3.110669553E-1,4.265206456E-1,9.738788605E0
4.465259917E0,3.062812984E-1,4.313062727E-1,9.777072906E0
4.467496550E0,2.967100143E-1,4.313062727E-1,9.767501831E0
4.469734587E0,2.919243574E-1,4.360919297E-1,9.767501831E0
4.471970183E0,3.062812984E-1,4.313062727E-1,9.772287369E0
4.474207182E0,2.967100143E-1,4.217349887E-1,9.762716293E0
4.476443510E0,3.062812984E-1,4.313062727E-1,9.753145218E0
4.478681548E0,3.056831062E-1,4.121637046E-1,9.772287369E0
4.480917082E0,2.871387303E-1,4.360919297E-1,9.772287369E0
4.483154082E0,3.014956415E-1,4.360919297E-1,9.762716293E0
4.485391081E0,3.110669553E-1,4.313062727E-1,9.757930756E0
4.487628996E0,3.062812984E-1,4.217349887E-1,9.762716293E0
4.489864897E0,3.014956415E-1,4.265206456E-1,9.772287369E0
4.492100920E0,2.817548811E-1,4.217349887E-1,9.777072906E0
4.494337798E0,2.865405083E-1,4.073780477E-1,9.796216011E0
4.496575774E0,3.008974493E-1,4.169493318E-1,9.786644936E0
4.498811735E0,2.967100143E-1,4.217349887E-1,9.772287369E0
4.501048369E0,3.014956415E-1,4.265206456E-1,9.767501831E0
4.503285368E0,3.158525825E-1,4.307080805E-1,9.757930756E0
4.505523100E0,3.062812984E-1,4.408775866E-1,9.772287369E0
4.507758757E0,3.056831062E-1,4.163511395E-1,9.786644936E0
4.509995512E0,3.014956415E-1,4.265206456E-1,9.767501831E0
4.512232329E0,2.865405083E-1,4.073780477E-1,9.777072906E0
4.514470122E0,2.919243574E-1,4.313062727E-1,9.781859398E0
4.516705778E0,3.014956415E-1,4.456632137E-1,9.767501831E0
4.518942839E0,2.967100143E-1,4.265206456E-1,9.743574142E0
4.521179655E0,2.919243574E-1,4.360919297E-1,9.772287369E0
4.523417509E0,3.014956415E-1,4.360919297E-1,9.757930756E0
4.525653227E0,2.913261652E-1,4.265206456E-1,9.791430473E0
4.527889738E0,3.062812984E-1,4.217349887E-1,9.772287369E0
4.530126372E0,2.961117923E-1,4.169493318E-1,9.781859398E0
4.532364409E0,2.967100143E-1,4.265206456E-1,9.767501831E0
4.534600249E0,3.014956415E-1,4.313062727E-1,9.767501831E0
4.536836943E0,3.014956415E-1,4.265206456E-1,9.767501831E0
4.539073942E0,3.158525825E-1,4.402793646E-1,9.767501831E0
4.541311735E0,2.871387303E-1,4.313062727E-1,9.786644936E0
4.543547575E0,2.919243574E-1,4.360919297E-1,9.767501831E0
4.545784148E0,2.775674164E-1,4.265206456E-1,9.767501831E0
4.548021147E0,3.152543902E-1,4.211367965E-1,9.777072906E0
4.550255705E0,3.152543902E-1,4.211367965E-1,9.781859398E0
4.552482634E0,3.158525825E-1,4.265206456E-1,9.743574142E0
4.554731291E0,2.967100143E-1,4.456632137E-1,9.762716293E0
4.556967985E0,2.967100143E-1,4.408775866E-1,9.777072906E0
4.559208953E0,2.865405083E-1,4.169493318E-1,9.772287369E0
4.561441557E0,2.865405083E-1,4.217349887E-1,9.777072906E0
4.563675933E0,2.919243574E-1,4.360919297E-1,9.772287369E0
4.565905241E0,3.110669553E-1,4.307080805E-1,9.772287369E0
4.568153776E0,2.823530734E-1,4.456632137E-1,9.777072906E0
4.570390776E0,3.014956415E-1,4.265206456E-1,9.767501831E0
4.572628020E0,2.871387303E-1,4.504488707E-1,9.786644936E0
4.574862761E0,2.817548811E-1,4.217349887E-1,9.777072906E0
4.577100066E0,2.871387303E-1,4.217349887E-1,9.772287369E0
4.579336150E0,2.913261652E-1,4.121637046E-1,9.791430473E0
4.581572661E0,3.062812984E-1,4.307080805E-1,9.791430473E0
4.583806791E0,3.110669553E-1,4.211367965E-1,9.777072906E0
4.586035796E0,3.062812984E-1,4.265206456E-1,9.772287369E0
4.588283171E0,2.967100143E-1,4.313062727E-1,9.772287369E0
4.590519987E0,3.062812984E-1,4.313062727E-1,9.777072906E0
4.592760039E0,3.200400174E-1,4.163511395E-1,9.781859398E0
4.594995146E0,2.871387303E-1,4.456632137E-1,9.762716293E0
4.597227751E0,3.056831062E-1,4.169493318E-1,9.781859398E0
4.599452482E0,3.014956415E-1,4.217349887E-1,9.777072906E0
4.601691985E0,3.014956415E-1,4.217349887E-1,9.772287369E0
4.603938993E0,3.062812984E-1,4.307080805E-1,9.781859398E0
4.606169402E0,3.104687333E-1,4.067798555E-1,9.777072906E0
4.608417510E0,2.967100143E-1,4.217349887E-1,9.772287369E0
4.610651823E0,2.775674164E-1,4.265206456E-1,9.772287369E0
4.612893828E0,3.062812984E-1,4.265206456E-1,9.762716293E0
4.615124663E0,3.056831062E-1,4.259224236E-1,9.786644936E0
4.617361540E0,3.062812984E-1,4.360919297E-1,9.762716293E0
