"Time (s)","Linear Acceleration x (m/s^2)","Linear Acceleration y (m/s^2)","Linear Acceleration z (m/s^2)"
1.527322680E-1,-5.326569080E-4,-8.021116257E-3,-2.045631409E-2
1.706234420E-1,1.728415489E-3,1.923650503E-3,-2.804279327E-2
1.885118700E-1,7.256716490E-3,-1.541864872E-2,-1.775836945E-2
2.064120160E-1,2.735048532E-3,-9.379118681E-3,-2.389431000E-2
2.243063030E-1,2.652257681E-3,-1.811444759E-3,-2.143287659E-2
2.422006510E-1,8.583664894E-4,-6.773293018E-3,-2.594947815E-2
2.600888350E-1,4.767984152E-3,-1.103159785E-2,-2.617740631E-2
2.779927660E-1,-7.197558880E-3,6.329804659E-3,-2.070617676E-2
2.958836350E-1,5.787372589E-3,-6.765782833E-3,-1.255798340E-2
3.137635780E-1,8.852958679E-3,-5.691438913E-3,-2.558231354E-2
3.316725750E-1,4.517942667E-3,-1.021754742E-2,-2.783393860E-2
3.495668620E-1,2.648711205E-3,-9.403973818E-3,-2.897453308E-2
3.674611500E-1,5.263596773E-3,-7.023453712E-3,-2.643013000E-2
3.853583060E-1,2.406179905E-3,-9.662210941E-4,-2.578544617E-2
4.032494800E-1,-4.309445620E-3,4.085004330E-4,-2.917385101E-2
4.211318040E-1,5.557715893E-3,1.134663820E-3,-2.175617218E-2
4.390382980E-1,-8.005917072E-3,-9.902179241E-3,-3.475570679E-2
4.569358810E-1,5.612343550E-3,-9.096115828E-3,-3.100109100E-2
4.748268110E-1,3.242433071E-3,-7.383316755E-3,-2.829170227E-2
4.927247000E-1,9.516954422E-3,-5.723893642E-3,-2.651596069E-2
5.106153850E-1,2.049744129E-3,-4.366844893E-3,-2.617740631E-2
5.285044230E-1,4.578143358E-3,-3.863394260E-3,-2.799129486E-2
5.464039600E-1,-5.313485861E-3,-4.729628563E-4,-2.757930756E-2
5.642984300E-1,-3.556370735E-3,-6.452560425E-3,-2.403831482E-2
5.821925950E-1,-4.000961781E-4,-1.249596477E-2,-2.152824402E-2
6.000882860E-1,-2.909094095E-3,-4.200816154E-3,-2.965927124E-2
6.179784220E-1,5.326181650E-3,-8.234024048E-3,-1.921272278E-2
6.358726480E-1,5.668133497E-3,2.721935511E-3,-2.120876312E-2
6.537692550E-1,2.915173769E-3,-6.109714508E-3,-3.419780731E-2
6.716645190E-1,5.195468664E-3,-5.312383175E-3,-2.398967743E-2
6.895590500E-1,-7.786065340E-3,-6.379067898E-3,-2.808666229E-2
7.074530930E-1,-1.833617687E-3,-5.956768990E-3,-2.396297455E-2
7.253473800E-1,-4.631280899E-5,-1.000881195E-2,-2.814006805E-2
7.432416670E-1,4.168093204E-3,-7.724493742E-3,-2.604198456E-2
7.611329020E-1,3.458797932E-3,-6.762832403E-3,-1.542472839E-2
7.790304850E-1,-3.657281399E-3,-6.621986628E-3,-1.982593536E-2
7.969244670E-1,-5.419671535E-3,-5.172044039E-3,-2.986431122E-2
8.148074020E-1,-2.448171377E-3,-7.163196802E-3,-2.060699463E-2
8.327145680E-1,1.270174980E-3,-3.503948450E-3,-2.223205566E-2
8.506103810E-1,3.748297691E-3,-6.783902645E-3,-1.981639862E-2
8.685019210E-1,2.541899681E-3,-2.564579248E-3,-1.844787598E-2
8.863929120E-1,-1.036912203E-3,-6.888031960E-3,-1.669788361E-2
9.042901900E-1,1.971006393E-3,-1.934140921E-3,-2.750301361E-2
9.221847820E-1,1.974254847E-3,-7.340729237E-3,-3.136253357E-2
9.400888350E-1,6.893098354E-3,-2.436131239E-3,-2.040290833E-2
9.579723200E-1,-2.237558365E-4,2.287745476E-3,-2.127552032E-2
9.758676440E-1,-3.788143396E-3,-6.433486938E-3,-2.907371521E-2
9.937630910E-1,-4.715412855E-3,-9.405881166E-3,-2.213859558E-2
1.011656157E0,6.866455078E-4,-3.488451242E-3,-2.833843231E-2
1.029550749E0,-7.529556751E-4,-2.604633570E-3,-2.557086945E-2
1.047445097E0,1.213461161E-3,-3.802180290E-3,-2.538871765E-2
1.065339201E0,-5.800396204E-3,-9.357601404E-3,-1.995754242E-2
1.083233366E0,7.168263197E-3,-4.365801811E-3,-2.042388916E-2
1.101127837E0,-2.050697803E-4,3.101468086E-3,-2.842330933E-2
1.119010344E0,1.606881618E-3,-6.710916758E-3,-2.083587646E-2
1.136918730E0,-4.550665617E-3,-5.618393421E-3,-1.947975159E-2
1.154810698E0,8.333742619E-3,-1.091647148E-2,-2.084922791E-2
1.172705900E0,4.601061344E-3,-3.400772810E-3,-2.234077454E-2
1.190599577E0,-2.058833838E-3,-3.206491470E-3,-1.744174957E-2
1.208493559E0,6.075859070E-3,-5.464166403E-3,-2.848720551E-2
1.226388090E0,3.583967686E-3,-5.358219147E-3,-1.344108582E-2
1.244282378E0,4.722476006E-4,-1.174360514E-3,-2.721309662E-2
1.262176970E0,-1.669585705E-3,-1.688241959E-3,-3.053474426E-2
1.280059782E0,3.431856632E-3,1.334011555E-3,-1.773452759E-2
1.297965300E0,-2.122640610E-3,-2.054750919E-3,-2.194213867E-2
1.315864470E0,4.164874554E-4,-2.105414867E-3,-1.912689209E-2
1.333756926E0,-4.315435886E-3,-7.626771927E-3,-2.324485779E-2
1.351648039E0,2.420365810E-3,-6.569266319E-3,-2.119922638E-2
1.369542387E0,-2.829462290E-3,4.558235407E-3,-2.602291107E-2
1.387428191E0,5.441576242E-3,-8.175909519E-3,-2.222251892E-2
1.405330901E0,6.680637598E-3,-8.020639420E-3,-2.196979523E-2
1.423225554E0,6.371945143E-3,-2.817988396E-3,-1.967430115E-2
1.441117155E0,9.436398745E-3,-6.456404924E-3,-1.919364929E-2
1.458997831E0,-9.444057941E-4,-1.546108723E-2,-1.664829254E-2
1.476908415E0,3.645867109E-3,-7.314860821E-3,-2.492904663E-2
1.494802702E0,7.001131773E-3,4.817396402E-3,-2.028560638E-2
1.512700956E0,7.847905159E-3,-5.224406719E-3,-3.250312805E-2
1.530579741E0,-7.486343384E-4,-7.982224226E-3,-1.654529572E-2
1.548485625E0,-6.017088890E-4,-7.537692785E-3,-1.462841034E-2
1.566379973E0,4.137456417E-3,-2.645909786E-3,-2.868366241E-2
1.584274382E0,5.782753229E-3,-3.634989262E-4,-1.943588257E-2
1.602168608E0,2.850860357E-3,3.280699253E-3,-2.451515198E-2
1.620059782E0,7.247179747E-3,-2.703577280E-3,-2.715015411E-2
1.637957182E0,2.076923847E-4,1.074701548E-3,-1.795387268E-2
1.655851469E0,1.314163208E-3,1.377224922E-3,-2.368259430E-2
1.673745817E0,-2.255022526E-3,3.409087658E-4,-1.840591431E-2
1.691640105E0,3.991633654E-3,-5.889922380E-3,-2.686977386E-2
1.709534575E0,3.636986017E-3,-2.268522978E-3,-2.428150177E-2
1.727428679E0,1.397907734E-3,-1.141196489E-2,-2.267932892E-2
1.745323088E0,4.159808159E-3,2.262294292E-4,-2.822208405E-2
1.763217253E0,1.032039523E-2,2.495557070E-3,-2.159404755E-2
1.781114408E0,4.143089056E-3,-1.506060362E-3,-1.523780823E-2
1.799006010E0,2.162754536E-3,4.718929529E-3,-1.943683624E-2
1.816902983E0,4.482388496E-3,8.437782526E-3,-2.181434631E-2
1.834794585E0,-5.830168724E-3,-7.962286472E-4,-1.875972748E-2
1.852688811E0,-4.425346851E-4,-3.434419632E-4,-1.489257812E-2
1.870583220E0,2.565622330E-3,-8.607834578E-3,-2.087116241E-2
1.888477690E0,4.503339529E-3,-7.138878107E-3,-2.120208740E-2
1.906371977E0,6.436377764E-3,-2.555817366E-3,-2.116394043E-2
1.924264311E0,1.236465573E-2,7.756352425E-4,-2.925109863E-2
1.942160307E0,1.863628626E-3,1.119831204E-2,-2.701568604E-2
1.960054839E0,-1.190006733E-3,-2.422541380E-3,-1.852512360E-2
1.977949126E0,4.170060158E-3,-3.011643887E-3,-1.492595673E-2
1.995831450E0,-2.654075623E-3,-2.047002316E-3,-2.952194214E-2
2.013739836E0,4.189997911E-3,-2.515882254E-3,-1.601028442E-2
2.031632536E0,3.520369530E-3,2.235174179E-6,-2.465438843E-2
2.049526335E0,-1.074045897E-3,-7.382720709E-3,-2.101898193E-2
2.067420622E0,6.720006466E-3,3.713130951E-3,-1.193618774E-2
2.085314909E0,4.470795393E-3,-1.126706600E-3,-1.956462860E-2
2.103206572E0,-9.833872318E-4,2.798318863E-3,-2.165508270E-2
2.121103728E0,3.385066986E-3,-1.754820347E-3,-2.875709534E-2
2.138997954E0,5.298286676E-3,6.380289793E-3,-2.079296112E-2
2.156892546E0,6.085187197E-3,-2.991110086E-3,-2.826309204E-2
2.174786528E0,7.083803415E-3,2.045512199E-3,-1.923561096E-2
2.192683928E0,6.981790066E-4,3.253191710E-3,-2.024269104E-2
2.210575407E0,1.425802708E-3,2.330571413E-3,-2.793121338E-2
2.228469694E0,5.105972290E-3,-3.987967968E-3,-2.080821991E-2
2.246364165E0,8.788496256E-3,-4.067033529E-3,-2.258777618E-2
2.264258269E0,6.773352623E-3,-9.252458811E-3,-2.013683319E-2
2.282152556E0,5.144178867E-3,-7.039308548E-4,-2.275466919E-2
2.300046782E0,-4.424154758E-4,-6.074309349E-3,-2.088928223E-2
2.317944060E0,5.090326071E-3,1.015365124E-3,-2.566146851E-2
2.335835417E0,5.306780338E-3,-5.424648523E-3,-2.547073364E-2
2.353729887E0,-1.345962286E-3,-6.397336721E-3,-3.174591064E-2
2.371621305E0,5.871087313E-3,-9.104520082E-3,-2.680587769E-2
2.389518462E0,7.039278746E-3,1.456201077E-3,-2.768325806E-2
2.407412810E0,-3.794699907E-3,5.139678717E-3,-1.884269714E-2
2.425307097E0,7.161825895E-3,2.449095249E-3,-3.742980957E-2
2.443198393E0,2.594590187E-3,-3.217905760E-3,-1.926612854E-2
2.461095671E0,3.338515759E-3,-1.314401627E-3,-2.083015442E-2
2.478989897E0,3.742605448E-3,6.670296192E-3,-2.233791351E-2
2.496884245E0,1.210838556E-3,-4.409730434E-3,-2.649688721E-2
2.514778715E0,3.951191902E-4,-6.687045097E-3,-1.698780060E-2
2.532675933E0,3.534197807E-3,1.682311296E-3,-3.156566620E-2
2.550567534E0,4.048407078E-3,-4.637598991E-3,-3.149032593E-2
2.568461699E0,3.178119659E-3,5.245625973E-3,-1.968669891E-2
2.586356108E0,-4.637241364E-5,3.687322140E-3,-1.866722107E-2
2.604235746E0,6.795883179E-3,-5.344688892E-3,-2.767944336E-2
2.622144438E0,2.451092005E-3,-3.941327333E-3,-2.641105652E-2
2.640039030E0,3.504961729E-3,-2.732574940E-3,-2.787399292E-2
2.657933073E0,3.597944975E-3,-1.090762019E-2,-2.063369751E-2
2.675827605E0,2.728104591E-3,-5.636274815E-3,-3.083324432E-2
2.693721892E0,1.433551311E-3,-1.058101654E-3,-2.922630310E-2
2.711616057E0,4.649519920E-3,-5.612015724E-3,-3.173637390E-2
2.729510405E0,9.824037552E-4,-1.429885626E-3,-2.888488770E-2
2.747404753E0,5.672454834E-3,-6.910324097E-3,-2.813911438E-2
2.765298979E0,1.179069281E-3,-7.502347231E-3,-1.763725281E-2
2.783193571E0,4.698812962E-3,-3.557682037E-3,-1.808834076E-2
2.801087798E0,1.019269228E-3,4.862010479E-3,-2.637100220E-2
2.818982268E0,5.139201880E-3,-1.640826464E-3,-1.885128021E-2
2.836875273E0,-6.636977196E-5,-1.038819551E-3,-2.356719971E-2
2.854770659E0,-2.418398857E-3,-6.085485220E-3,-3.196811676E-2
2.872667632E0,1.617342234E-3,-5.409181118E-3,-3.182220459E-2
2.890559660E0,1.260185242E-2,-1.047438383E-2,-1.656913757E-2
2.908452543E0,5.558192730E-3,-2.478212118E-3,-1.798534393E-2
2.926348051E0,6.812185049E-3,-1.653015614E-3,-1.880836487E-2
2.944242094E0,2.145826817E-3,-8.132129908E-3,-3.119087219E-2
2.962136687E0,-4.740357399E-3,4.694163799E-4,-1.841831207E-2
2.980030913E0,-6.734430790E-4,-8.336156607E-3,-1.410770416E-2
2.997928923E0,4.304230213E-3,-7.044434547E-3,-2.122879028E-2
3.015822661E0,1.006484032E-3,2.123206854E-3,-2.062702179E-2
3.033713774E0,2.822577953E-3,3.227591515E-5,-2.012443542E-2
3.051608122E0,7.680773735E-3,-4.775851965E-3,-2.257442474E-2
3.069502653E0,8.109241724E-3,-8.262693882E-4,-3.186798096E-2
3.087397002E0,-7.436573505E-4,-6.547987461E-3,-2.819347382E-2
3.105279448E0,1.646429300E-3,-2.234101295E-3,-1.872539520E-2
3.123185576E0,-2.521961927E-3,-6.403595209E-3,-1.811122894E-2
3.141079497E0,2.092003822E-3,-3.694355488E-3,-2.848815918E-2
3.158974028E0,8.060634136E-4,-1.601576805E-4,-2.197837830E-2
3.176868620E0,-4.314213991E-3,3.609865904E-3,-1.983070374E-2
3.194762602E0,1.099944115E-3,-3.624409437E-3,-2.168846130E-2
3.212652800E0,-1.067668200E-3,-5.749672651E-3,-2.255821228E-2
3.230551421E0,1.678794622E-3,-4.391103983E-3,-2.186393738E-2
3.248447050E0,1.061856747E-3,-7.229924202E-3,-2.320384979E-2
3.266340300E0,1.299202442E-3,-5.389183760E-3,-2.273845673E-2
3.284234526E0,-4.662036896E-3,3.043591976E-3,-1.911449432E-2
3.302128569E0,8.254736662E-3,-3.199875355E-3,-2.142333984E-2
3.320023283E0,-5.855262280E-4,-4.315435886E-3,-3.070354462E-2
3.337917143E0,-5.248606205E-3,-1.940250397E-3,-2.326774597E-2
3.355811735E0,5.584955215E-3,1.550674438E-3,-2.566432953E-2
3.373706633E0,-2.950429916E-4,-1.433938742E-3,-1.584720612E-2
3.391600554E0,-4.160135984E-3,-2.067625523E-3,-1.831531525E-2
3.409494597E0,-4.332661629E-3,1.026540995E-3,-2.145862579E-2
3.427388884E0,-3.697782755E-3,6.334722042E-3,-1.845455170E-2
3.445282805E0,1.389831305E-3,-3.449708223E-3,-3.416347504E-2
3.463177702E0,5.001723766E-3,-9.238719940E-7,-1.855945587E-2
3.481071867E0,-3.917515278E-3,-4.857987165E-3,-1.756477356E-2
3.498966215E0,6.616979837E-3,3.233730793E-3,-2.417564392E-2
3.516862639E0,-2.329945564E-3,6.848990917E-3,-2.601432800E-2
3.534755034E0,4.346251488E-3,-3.026843071E-3,-2.241802216E-2
3.552650176E0,5.915373564E-3,3.429949284E-4,-2.660274506E-2
3.570531157E0,-6.044924259E-3,3.261268139E-4,-2.122116089E-2
3.588419767E0,-1.743137836E-4,-5.976527929E-3,-2.369213104E-2
3.606332243E0,-1.445770264E-3,-1.909226179E-3,-2.304363251E-2
3.624226530E0,5.802601576E-3,3.615140915E-3,-2.455997467E-2
3.642120817E0,1.986533403E-3,5.153894424E-3,-2.021789551E-2
3.660005950E0,4.012197256E-3,2.255260944E-3,-2.866840363E-2
3.677909636E0,2.372562885E-3,-8.995920420E-3,-1.877593994E-2
3.695803862E0,8.337795734E-4,-2.908229828E-3,-2.059841156E-2
3.713701445E0,-6.755888462E-4,2.638578415E-3,-2.441883087E-2
3.731592436E0,-1.446992159E-3,2.806633711E-3,-2.386283875E-2
3.749487028E0,3.814786673E-3,-3.043323755E-3,-2.113819122E-2
3.767381316E0,-7.438480854E-3,7.926225662E-4,-1.950359344E-2
3.785275298E0,1.092135906E-3,-7.249176502E-3,-3.454685211E-2
3.803167021E0,4.343628883E-3,3.113806248E-3,-2.462387085E-2
3.821064116E0,-4.436492920E-3,-6.375610828E-4,-2.045822144E-2
3.838958403E0,-4.274994135E-3,-1.851022243E-3,-2.721786499E-2
3.856852690E0,-6.464540958E-3,2.484381199E-3,-2.710247040E-2
3.874747038E0,-1.541465521E-3,-5.504876375E-3,-1.256370544E-2
3.892640410E0,-1.551389694E-3,-4.444330931E-3,-2.734947205E-2
3.910537138E0,-4.952043295E-3,3.252416849E-3,-3.077983856E-2
3.928429900E0,7.933676243E-4,4.820466042E-3,-3.244781494E-2
3.946324370E0,-1.189768314E-3,-1.944482327E-3,-2.811717987E-2
3.964218901E0,-2.216041088E-3,2.721667290E-3,-2.548503876E-2
3.982113066E0,-7.374882698E-4,2.661645412E-3,-1.280212402E-2
4.000010466E0,-6.072819233E-4,1.766681671E-3,-3.102684021E-2
4.017898527E0,-3.275007010E-3,2.365171909E-3,-2.525997162E-2
4.035796110E0,1.766622066E-3,-6.273150444E-3,-2.098751068E-2
4.053695097E0,5.453824997E-6,6.881952286E-4,-2.933502197E-2
4.071574065E0,-3.461867571E-3,-1.789748669E-3,-2.835941315E-2
4.089479155E0,1.174986362E-3,-5.999296904E-3,-2.175426483E-2
4.107376189E0,1.066055894E-2,6.951183081E-3,-2.419662476E-2
4.125267485E0,6.526708603E-4,-1.530349255E-4,-3.199863434E-2
4.143152739E0,2.110779285E-3,-3.995597363E-4,-2.284908295E-2
4.161056303E0,7.102370262E-3,6.143301725E-3,-3.082275391E-2
4.178947294E0,2.641290426E-3,6.129592657E-3,-2.060794830E-2
4.196844878E0,-1.687884331E-3,-3.920108080E-3,-2.590084076E-2
4.214739165E0,2.500355244E-3,-3.121972084E-3,-2.587795258E-2
4.232638030E0,-2.702146769E-3,-3.335028887E-3,-2.415275574E-2
4.250528044E0,3.463625908E-3,-3.997057676E-3,-2.510356903E-2
4.268422087E0,6.699264050E-4,-1.485794783E-3,-2.265071869E-2
4.286316801E0,-2.946883440E-3,-9.152472019E-3,-1.891136169E-2
4.304207914E0,-1.795977354E-3,-3.807693720E-3,-2.385330200E-2
4.322093474E0,-8.972048759E-3,-6.839752197E-3,-2.544021606E-2
4.339987822E0,-2.416431904E-3,1.352190971E-3,-3.000545502E-2
4.357882414E0,-3.066390753E-3,2.039670944E-4,-2.469730377E-2
4.375790923E0,4.582852125E-3,-1.870274544E-3,-3.008174896E-2
4.393681914E0,9.698867798E-4,-8.588433266E-4,-2.225875854E-2
4.411578947E0,5.647897720E-3,1.086890697E-3,-3.361320496E-2
4.429471159E0,-5.913078785E-4,8.336603642E-4,-2.767467499E-2
4.447347136E0,1.187682152E-3,-4.611581564E-3,-2.633666992E-2
4.465259917E0,6.730526686E-3,-2.018183470E-3,-2.831459045E-2
4.483154082E0,2.083003521E-3,1.622885466E-3,-3.011226654E-2
4.501048369E0,5.185902119E-4,-6.112664938E-3,-2.168941498E-2
4.518942839E0,6.588995457E-4,7.213354111E-4,-3.107929230E-2
4.536836943E0,2.259403467E-3,-1.299947500E-3,-2.611541748E-2
4.554731291E0,6.552010775E-3,3.213703632E-3,-3.102779388E-2
4.572628020E0,-3.558039665E-3,8.804410696E-3,-2.039718628E-2
4.590519987E0,4.396647215E-3,-4.091858864E-4,-1.935482025E-2
4.608417510E0,5.658596754E-3,-7.661014795E-3,-2.060222626E-2
4.626308684E0,6.689250469E-3,-5.603730679E-3,-2.561092377E-2
4.644200102E0,1.972407103E-3,-1.465588808E-3,-2.191448212E-2
4.662097380E0,9.458154440E-3,-5.500018597E-4,-2.400112152E-2
4.679991606E0,1.502037048E-3,-3.409504890E-3,-2.706623077E-2
4.697882902E0,4.894167185E-3,1.324415207E-3,-2.816200256E-2
4.715780485E0,8.806318045E-3,3.609061241E-5,-2.476692200E-2
4.733675932E0,9.033441544E-3,-7.148444653E-3,-2.573871613E-2
4.751569060E0,7.172942162E-3,-6.344795227E-3,-2.027130127E-2
4.769466399E0,1.481592655E-3,1.194626093E-3,-2.209663391E-2
4.787357817E0,-1.221269369E-3,-4.878610373E-3,-2.911281586E-2
4.805248930E0,4.769921303E-3,2.546489239E-3,-2.713489532E-2
4.823146208E0,-3.437697887E-4,-2.627015114E-3,-2.466487885E-2
4.841040495E0,6.175160408E-3,4.173189402E-3,-2.604103088E-2
4.858935271E0,5.991369486E-3,5.967855453E-3,-2.579689026E-2
4.876832305E0,2.719610929E-3,-2.366304398E-4,-2.543640137E-2
4.894723601E0,-9.339749813E-4,-6.411314011E-3,-2.475738525E-2
4.912603544E0,-1.235008240E-3,-9.714365005E-4,-2.078819275E-2
4.930512358E0,9.650915861E-3,-4.386365414E-3,-2.288627625E-2
4.948406706E0,-9.348690510E-4,1.232028008E-4,-1.576995850E-2
4.966300993E0,1.735359430E-3,2.878338099E-3,-1.806831360E-2
4.984195219E0,-1.945286989E-3,-5.115568638E-3,-2.365684509E-2
5.002089750E0,3.408044577E-3,-1.697510481E-3,-2.385139465E-2
5.019983733E0,6.846457720E-3,-1.725226641E-3,-2.633666992E-2
5.037875090E0,1.273632050E-3,-2.859085798E-3,-2.453517914E-2
5.055772429E0,-5.500316620E-4,-4.789680243E-3,-2.338695526E-2
5.073669706E0,3.056854010E-3,-9.179413319E-4,-2.280807495E-2
5.091561003E0,-3.294944763E-3,-7.005900145E-3,-2.422714233E-2
5.109455595E0,3.533959389E-4,-2.122431993E-3,-2.864265442E-2
5.127349821E0,8.640199900E-3,-4.853397608E-3,-2.414608002E-2
5.145241362E0,7.437407970E-3,1.168072224E-3,-2.015304565E-2
5.163138335E0,-1.846492290E-3,1.939564943E-3,-2.594089508E-2
5.181032866E0,9.076565504E-3,3.198206425E-3,-2.811145782E-2
5.198926543E0,5.546659231E-3,-2.843141556E-3,-1.932430267E-2
5.216821257E0,-4.839122295E-3,-8.380532265E-3,-2.124691010E-2
5.234715666E0,1.012411714E-2,-4.662871361E-3,-2.179813385E-2
5.252610075E0,1.796483994E-4,-3.126621246E-3,-2.752113342E-2
5.270502775E0,4.541873932E-3,-5.749583244E-3,-2.839660645E-2
5.288398894E0,-2.975821495E-3,-4.655420780E-3,-2.582359314E-2
5.306278227E0,-1.593053341E-3,5.737066269E-3,-2.791976929E-2
5.324187468E0,1.849293709E-3,-3.333657980E-3,-1.770973206E-2
5.342081511E0,-9.165704250E-4,4.833281040E-3,-2.516460419E-2
5.359975859E0,-2.288639545E-3,-7.137358189E-4,-2.170467377E-2
5.377867277E0,3.592967987E-4,5.018204451E-3,-2.864074707E-2
5.395769255E0,9.820610285E-3,1.379042864E-3,-2.008628845E-2
5.413661894E0,3.960400820E-3,-4.176288843E-3,-2.333545685E-2
5.431553435E0,2.073705196E-3,-2.550452948E-3,-2.511978149E-2
5.449447661E0,1.370298862E-2,2.173185349E-4,-3.068828583E-2
5.467342009E0,4.973858595E-3,-2.047747374E-3,-1.988697052E-2
5.485236235E0,1.045382023E-2,-1.071307063E-2,-1.728057861E-2
5.503130583E0,1.189231873E-3,-2.154916525E-3,-2.454471588E-2
5.521024809E0,1.138019562E-2,4.703432322E-3,-2.451229095E-2
5.538919401E0,1.223668456E-2,-5.601614714E-3,-1.913642883E-2
5.556813505E0,1.957654953E-3,-2.617835999E-4,-2.135753632E-2
5.574695769E0,4.413276911E-3,-1.880049706E-3,-2.154350281E-2
5.592601958E0,3.663063049E-3,9.744763374E-4,-2.200508118E-2
5.610493498E0,-6.055831909E-5,-1.506894827E-3,-2.452659607E-2
5.628391081E0,-8.008480072E-4,-7.182866335E-3,-2.955818176E-2
5.646285307E0,5.720734596E-3,2.484768629E-3,-3.019905090E-2
5.664179350E0,1.703500748E-3,-9.718805552E-3,-2.615833282E-2
5.682073942E0,8.597373962E-4,-1.732736826E-3,-1.582145691E-2
5.699968108E0,5.898505449E-3,4.180759192E-3,-2.375698090E-2
5.717859892E0,1.149183512E-2,6.282478571E-3,-2.839946747E-2
5.735756804E0,6.086915731E-3,-3.042221069E-4,-3.253269196E-2
5.753654265E0,3.536283970E-3,4.115253687E-3,-2.948188782E-2
5.771545317E0,3.224015236E-4,1.490682364E-3,-1.918315887E-2
5.789439909E0,3.293037415E-3,6.460845470E-4,-1.024341583E-2
5.807322539E0,4.090666771E-4,-7.303118706E-3,-2.050209045E-2
5.825228423E0,1.566141844E-3,-5.611479282E-4,-1.778888702E-2
5.843119841E0,6.826788187E-3,-3.298521042E-3,-1.870918274E-2
5.861016997E0,6.476819515E-3,3.060996532E-4,-2.694320679E-2
5.878914275E0,9.520053864E-3,-4.564225674E-4,-2.735805511E-2
5.896805571E0,6.165027618E-3,3.321319818E-3,-3.154087067E-2
5.914700163E0,5.103021860E-3,-8.394420147E-4,-2.838039398E-2
5.932594328E0,7.691234350E-3,-8.535385132E-5,-2.721405029E-2
5.950484953E0,5.892276764E-3,-5.324989557E-3,-2.538013458E-2
5.968383269E0,-1.621156931E-3,3.589093685E-4,-2.594757080E-2
5.986277251E0,3.569394350E-3,-2.557098866E-3,-2.812385559E-2
6.004171721E0,8.418530226E-3,-2.086788416E-3,-2.661514282E-2
6.022065825E0,7.877022028E-3,3.957837820E-3,-2.015018463E-2
6.039960356E0,1.887083054E-4,-1.414418221E-3,-2.315616608E-2
6.057854033E0,6.207913160E-3,2.915382385E-3,-2.758789062E-2
6.075750761E0,4.265934229E-3,-2.496778965E-3,-2.699851990E-2
6.093643278E0,7.557868958E-5,-3.558635712E-3,-2.418041229E-2
6.111537810E0,7.105797529E-3,-2.138733864E-3,-2.384185791E-2
6.129431792E0,5.392551422E-3,-2.196609974E-3,-2.243995667E-2
6.147326384E0,1.995712519E-3,-1.520782709E-3,-1.968479156E-2
6.165217619E0,8.164465427E-3,1.070410013E-3,-2.729892731E-2
6.183113676E0,1.077359915E-2,-2.984970808E-3,-2.623081207E-2
6.200998930E0,4.733949900E-3,-4.447162151E-3,-2.167129517E-2
6.218903715E0,1.945525408E-3,-5.215018988E-3,-1.989459991E-2
6.236797758E0,1.918375492E-4,3.865629435E-3,-2.140617371E-2
6.254692229E0,6.628692150E-3,-2.166539431E-3,-1.988792419E-2
6.272589751E0,-5.327701569E-3,5.281716585E-3,-3.588008881E-2
6.290481169E0,-4.708021879E-3,3.881216049E-3,-2.594661713E-2
6.308372343E0,-1.011639833E-3,-8.408129215E-4,-2.243614197E-2
6.326269438E0,2.051889896E-4,-4.160135984E-3,-2.713489532E-2
6.344163786E0,7.284432650E-3,-6.375908852E-3,-3.401851654E-2
6.362058256E0,4.356235266E-3,-9.816586971E-4,-1.383209229E-2
6.379952238E0,5.300551653E-3,3.506153822E-3,-3.636360168E-2
6.397842375E0,3.826260567E-3,5.152046680E-3,-2.618122101E-2
6.415741240E0,3.498226404E-3,5.617737770E-5,-2.118682861E-2
6.433638396E0,7.225066423E-3,-1.489520073E-3,-3.112792969E-2
6.451529814E0,1.906275749E-3,-6.263881922E-3,-2.763366699E-2
6.469412749E0,4.090011120E-3,-1.116454601E-3,-3.170490265E-2
6.487318571E0,-1.326829195E-3,-3.599733114E-3,-3.132438660E-2
6.505212798E0,-3.966510296E-3,4.394531250E-3,-2.124881744E-2
6.523107146E0,-3.605186939E-4,-3.367036581E-3,-2.513027191E-2
6.541004485E0,5.995243788E-3,-7.895827293E-4,-2.981376648E-2
6.558895720E0,2.306997776E-3,3.408044577E-3,-1.963615417E-2
6.576787688E0,3.290653229E-3,-6.090223789E-3,-2.775478363E-2
6.594669584E0,-7.534921169E-4,7.414817810E-5,-2.504730225E-2
6.612578825E0,-6.681412458E-3,-6.591677666E-3,-2.097320557E-2
6.630472807E0,-6.616115570E-6,-4.344820976E-3,-2.748203278E-2
6.648367461E0,4.627197981E-3,3.091514111E-3,-2.875709534E-2
6.666249907E0,-2.179145813E-4,-3.221184015E-3,-2.273750305E-2
6.684155852E0,4.163056612E-3,1.486450434E-3,-3.002738953E-2
6.702050200E0,7.220536470E-3,4.749268293E-3,-2.715873718E-2
6.719944670E0,2.675771713E-3,9.846985340E-4,-2.420139313E-2
6.737835051E0,2.474814653E-3,-3.479242325E-3,-2.873325348E-2
6.755733366E0,-1.155257225E-3,-1.382130384E-2,-3.379058838E-2
6.773630339E0,4.477202892E-4,-5.250006914E-3,-2.323913574E-2
6.791522185E0,5.586147308E-3,-2.480149269E-3,-1.796150208E-2
6.809419402E0,5.419582129E-3,4.260689020E-3,-1.992130280E-2
6.827310698E0,-1.184701920E-3,8.696317673E-4,-3.203678131E-2
6.845204741E0,2.036094666E-4,6.145864725E-3,-2.525806427E-2
6.863099333E0,1.605927944E-3,-1.636385918E-3,-1.990604401E-2
6.880993315E0,5.478173494E-3,-5.696624517E-3,-1.826953888E-2
6.898887846E0,4.595935345E-3,-3.018110991E-3,-2.792739868E-2
6.916783171E0,3.551781178E-3,2.906382084E-3,-2.826499939E-2
6.934676421E0,1.037913561E-2,2.643764019E-4,-2.082538605E-2
6.952570769E0,2.789795399E-4,-9.727478027E-4,-2.252674103E-2
6.970465239E0,5.812346935E-4,2.834945917E-3,-2.096843719E-2
6.988359587E0,6.575226784E-3,2.669662237E-3,-2.819824219E-2
7.006257415E0,3.335833549E-3,1.074910164E-3,-2.703094482E-2
7.024148100E0,8.680820465E-3,-5.374073982E-3,-3.501987457E-2
7.042042143E0,-1.845061779E-3,-4.987746477E-3,-3.043270111E-2
7.059936674E0,-1.499056816E-3,-5.476266146E-3,-2.566909790E-2
7.077829192E0,-2.282142639E-3,-5.407631397E-3,-2.599811554E-2
7.095713591E0,9.391248226E-3,-1.084557176E-2,-2.398681641E-2
7.113622771E0,2.049267292E-3,-7.774233818E-3,-2.935028076E-2
7.131509551E0,1.000553370E-3,-5.732893944E-3,-2.956676483E-2
7.149408354E0,5.859822035E-3,-6.219804287E-3,-3.077793121E-2
7.167303007E0,-1.128554344E-3,-8.130073547E-5,-2.475643158E-2
7.185194304E0,5.011439323E-3,-3.078311682E-3,-3.589439392E-2
7.203091276E0,2.989590168E-3,7.488429546E-4,-2.383232117E-2
7.220985503E0,5.208343267E-3,5.925297737E-4,-2.828216553E-2
7.238879729E0,5.099922419E-3,3.087699413E-3,-1.818752289E-2
7.256774321E0,4.342556000E-3,4.489600658E-3,-2.638339996E-2
7.274668669E0,-2.058357000E-3,3.606826067E-3,-2.422046661E-2
7.292563200E0,1.960784197E-3,-6.484985352E-3,-2.000713348E-2
7.310460173E0,7.202923298E-3,1.868188381E-3,-2.903366089E-2
7.328351469E0,4.388362169E-3,7.435709238E-3,-2.058601379E-2
7.346246489E0,6.180822849E-3,4.035085440E-3,-2.313423157E-2
7.364140532E0,1.120382547E-2,-3.500908613E-3,-2.475357056E-2
7.382036223E0,6.172686815E-3,1.051127911E-4,-2.477645874E-2
7.399914518E0,7.485181093E-3,-2.800941467E-3,-1.750183105E-2
7.417822905E0,2.620398998E-3,-4.433393478E-3,-2.746868134E-2
7.435717741E0,-1.792490482E-3,-1.919806004E-3,-2.340793610E-2
7.453614836E0,4.835188389E-3,-1.580119133E-3,-1.941680908E-2
7.471507598E0,-3.536134958E-3,-1.421153545E-3,-2.005767822E-2
7.489400542E0,-1.212555170E-2,-3.535032272E-3,-2.873992920E-2
7.507294829E0,7.786482573E-3,-6.601512432E-4,-2.223873138E-2
7.525189116E0,-4.922151566E-4,1.507192850E-3,-2.891445160E-2
7.543069059E0,-1.421719790E-3,-2.606213093E-4,-2.303886414E-2
7.560966276E0,1.730352640E-3,3.668367863E-4,-2.679824829E-2
7.578861052E0,9.590387344E-3,-3.404527903E-3,-2.749538422E-2
7.596755278E0,7.348179817E-3,3.181397915E-4,-2.839660645E-2
7.614660857E0,3.843188286E-3,-4.615724087E-3,-1.954650879E-2
7.632555083E0,5.094319582E-3,-5.304753780E-3,-1.946067810E-2
7.650449675E0,9.010940790E-3,-3.607988358E-3,-2.836322784E-2
7.668343901E0,8.652269840E-3,6.878167391E-3,-2.429199219E-2
7.686226225E0,7.353097200E-3,3.582000732E-3,-2.549648285E-2
7.704132475E0,4.457175732E-3,-3.186941147E-3,-1.634120941E-2
7.722026762E0,1.385360956E-3,-7.627397776E-3,-1.830959320E-2
7.739921110E0,7.576406002E-3,-9.410172701E-3,-2.717304230E-2
7.757815398E0,1.411467791E-3,-5.567252636E-3,-2.966785431E-2
7.775709685E0,-2.653598785E-4,-2.614617348E-3,-2.706623077E-2
7.793607268E0,3.788828850E-3,1.350700855E-3,-2.758407593E-2
7.811498747E0,1.845806837E-3,2.942860126E-3,-1.347446442E-2
7.829392729E0,-3.374755383E-3,-7.152140141E-3,-1.937389374E-2
7.847290068E0,-1.192688942E-4,-7.561296225E-3,-1.964378357E-2
7.865169218E0,3.425538540E-3,-3.234207630E-3,-3.063106537E-2
7.883075651E0,-2.756923437E-3,3.173798323E-3,-2.124404907E-2
7.900969939E0,4.802346230E-3,-8.879899979E-4,-3.604125977E-2
7.918864165E0,-2.988994122E-3,2.298712730E-3,-2.806186676E-2
7.936758818E0,5.001157522E-3,-6.100624800E-3,-1.565742493E-2
7.954652739E0,-1.960992813E-4,-5.167543888E-3,-3.072166443E-2
7.972547270E0,3.563731909E-3,-2.854675055E-3,-2.114582062E-2
7.990441557E0,5.263179541E-3,-3.227263689E-3,-2.722263336E-2
8.008335905E0,8.694142103E-3,1.795321703E-3,-1.889991760E-2
8.026218474E0,1.782029867E-3,-2.662867308E-3,-2.814960480E-2
8.044124419E0,1.638025045E-3,-6.763041019E-3,-3.152942657E-2
8.062015715E0,2.036422491E-3,2.173691988E-3,-2.082443237E-2
8.079913237E0,2.321213484E-3,-6.773948669E-3,-3.047561646E-2
8.097810454E0,1.393467188E-3,-8.051484823E-3,-1.739025116E-2
8.115704863E0,3.874093294E-3,-1.663565636E-4,-1.616573334E-2
8.133599211E0,6.142258644E-4,-1.088470221E-3,-2.577018738E-2
8.151490630E0,9.202748537E-3,9.847879410E-4,-2.795410156E-2
8.169384734E0,3.725469112E-3,-3.617942333E-3,-2.439689636E-2
8.187279265E0,2.893507481E-4,-2.692013979E-3,-2.045631409E-2
8.205170683E0,6.662666798E-3,-6.855487823E-3,-2.597427368E-2
8.223067900E0,7.136344910E-3,-5.675286055E-3,-2.610969543E-2
8.240961821E0,-3.789246082E-3,-2.270847559E-3,-2.687835693E-2
8.258856352E0,1.031577587E-3,-4.198640585E-3,-2.005386353E-2
8.276750700E0,8.908778429E-3,-5.898922682E-3,-2.721214294E-2
8.294644926E0,-9.892284870E-4,-1.014471054E-3,-1.211738586E-2
8.312539458E0,7.069110870E-4,-2.718269825E-4,-2.657318115E-2
8.330422209E0,1.154929399E-2,-1.442015171E-3,-2.253627777E-2
8.348328093E0,3.009140491E-4,6.518661976E-4,-1.618289948E-2
8.366210600E0,-2.890288830E-3,3.549724817E-3,-3.177642822E-2
8.384116667E0,4.249662161E-3,1.103854179E-2,-2.857398987E-2
8.402011137E0,2.806246281E-3,-7.087051868E-3,-2.119541168E-2
8.419905424E0,3.738313913E-3,-1.838713884E-3,-2.427196503E-2
8.437796721E0,4.093706608E-3,-2.927452326E-3,-1.757431030E-2
8.455694060E0,5.613535643E-3,2.921789885E-3,-2.637481689E-2
8.473590666E0,-5.774438381E-3,-2.426624298E-3,-1.818847656E-2
8.491482634E0,3.509551287E-3,-5.111694336E-4,-2.885246277E-2
8.509376860E0,-2.841502428E-3,-2.679139376E-3,-3.383541107E-2
8.527268400E0,-5.031257868E-3,1.991629601E-3,-3.113651276E-2
8.545165434E0,-1.643091440E-3,-1.595193148E-2,-2.523040771E-2
8.563059782E0,2.315640450E-5,-4.181206226E-3,-2.334403992E-2
8.580954314E0,-5.441516638E-3,-5.339324474E-3,-2.382183075E-2
8.598848479E0,1.012015343E-2,-6.824731827E-4,-2.496719360E-2
8.616743010E0,7.488518953E-3,-1.907676458E-3,-2.646732330E-2
8.634637114E0,6.311357021E-3,-1.298755407E-3,-2.273654938E-2
8.652531401E0,-9.613931179E-4,3.748089075E-3,-2.837562561E-2
8.670428984E0,2.845704556E-3,-8.227199316E-3,-1.842021942E-2
8.688320280E0,3.800064325E-3,7.432401180E-4,-3.213596344E-2
8.706199798E0,3.568232059E-4,-5.482941866E-3,-1.363754272E-2
8.724108977E0,-1.128464937E-3,-3.714352846E-3,-3.145790100E-2
8.742003142E0,7.258653641E-4,-1.265138388E-3,-2.397823334E-2
8.759897307E0,3.104299307E-3,3.038048744E-4,-2.025699615E-2
8.777791899E0,5.764961243E-3,-1.197159290E-3,-2.190113068E-2
8.795672636E0,-2.110898495E-4,7.841616869E-3,-3.336524963E-2
8.813583403E0,9.363889694E-4,-2.963364124E-3,-2.028846741E-2
8.831474760E0,3.860861063E-3,-4.977583885E-3,-1.483726501E-2
8.849369109E0,2.743244171E-3,1.887679100E-4,-3.227710724E-2
8.867263396E0,4.807204008E-3,1.482635736E-3,-2.344322205E-2
8.885157683E0,2.795130014E-3,3.266930580E-4,-2.286338806E-2
8.903051970E0,6.908386946E-3,2.269297838E-3,-2.269554138E-2
8.920946440E0,8.830130100E-4,1.971364021E-3,-2.628707886E-2
8.938840788E0,-2.035528421E-3,3.923475742E-3,-2.362442017E-2
8.956735075E0,5.055308342E-3,4.472434521E-4,-2.777481079E-2
8.974629301E0,6.867647171E-4,-9.164065123E-3,-3.199386597E-2
8.992523528E0,-7.640719414E-4,3.542304039E-4,-3.175449371E-2
9.010418120E0,4.830151796E-3,3.758966923E-3,-2.200508118E-2
9.028312468E0,6.386309862E-3,-5.764961243E-4,-2.280712128E-2
9.046195463E0,2.095997334E-3,3.350526094E-3,-2.226448059E-2
9.064100798E0,1.037061214E-3,-2.433657646E-4,-2.232646942E-2
9.081995268E0,9.666979313E-4,-3.634005785E-3,-3.715991974E-2
9.099889494E0,-2.724379301E-3,4.427611828E-3,-2.069950104E-2
9.117784148E0,-5.286931992E-4,1.875787973E-3,-1.992321014E-2
9.135681487E0,3.426492214E-3,-4.204750061E-3,-2.170944214E-2
9.153573332E0,7.251620293E-3,1.078635454E-2,-2.426338196E-2
9.171468047E0,7.321208715E-3,-4.523754120E-3,-2.884674072E-2
9.189361479E0,3.017485142E-4,5.209147930E-3,-2.071762085E-2
9.207255583E0,-1.041471958E-3,-2.905130386E-4,-2.926540375E-2
9.225146879E0,2.750068903E-3,-2.656728029E-3,-3.189754486E-2
9.243044157E0,9.622275829E-4,2.216398716E-4,-1.506805420E-2
9.260938383E0,1.723676920E-3,-3.447204828E-3,-2.280712128E-2
9.278832610E0,7.241964340E-3,-9.652376175E-4,-2.865982056E-2
9.296712614E0,4.419505596E-3,-3.799498081E-3,-1.801681519E-2
9.314621550E0,1.121610403E-3,1.889884472E-3,-2.451038361E-2
9.332515837E0,8.245646954E-3,-1.944750547E-3,-2.087116241E-2
9.350410124E0,-4.849374294E-3,7.687211037E-3,-2.074623108E-2
9.368304594E0,3.941804171E-3,7.596045732E-3,-3.394317627E-2
9.386186980E0,3.095030785E-3,2.725780010E-3,-2.307796478E-2
9.404093230E0,-4.452139139E-3,-9.923875332E-4,-2.515316010E-2
9.421987456E0,6.476342678E-4,-6.945908070E-3,-2.412223816E-2
9.439881743E0,1.395821571E-2,1.026868820E-3,-2.415084839E-2
9.457776091E0,-3.903627396E-3,-3.061681986E-3,-1.450252533E-2
9.475670866E0,2.662867308E-3,-5.570352077E-4,-1.867485046E-2
9.493567534E0,5.230307579E-5,3.667891026E-3,-2.500915527E-2
9.511459257E0,6.329715252E-4,-2.075403929E-3,-3.278160095E-2
9.529341276E0,1.042440534E-2,-6.973385811E-3,-2.643966675E-2
9.547247771E0,5.859136581E-5,-3.925383091E-3,-2.685451508E-2
9.565141997E0,5.964607000E-3,5.404710770E-3,-2.462291718E-2
9.583036345E0,-7.197260857E-4,1.654624939E-3,-2.469062805E-2
9.600930693E0,2.226263285E-3,-3.194123507E-3,-2.876186371E-2
9.618825102E0,8.239597082E-3,-3.538310528E-3,-1.359176636E-2
9.636719206E0,4.650115967E-3,-1.942008734E-3,-1.890182495E-2
9.654613676E0,2.796024084E-3,2.079308033E-4,-2.066230774E-2
9.672507964E0,2.607166767E-3,2.399623394E-3,-2.776718140E-2
9.690402251E0,9.918361902E-3,3.714740276E-3,-2.416896820E-2
9.708296904E0,9.457111359E-3,4.675686359E-3,-2.801704407E-2
9.726178496E0,1.421952248E-2,-6.446689367E-3,-2.044010162E-2
9.744085112E0,2.423018217E-3,6.040602922E-3,-2.423477173E-2
9.761979704E0,-2.482980490E-3,-8.091986179E-3,-2.190399170E-2
9.779873686E0,-9.204745293E-4,-6.201505661E-3,-1.759338379E-2
9.797753447E0,2.375811338E-3,6.391733885E-3,-2.143955231E-2
9.815662627E0,1.079678535E-2,-3.393888474E-3,-3.074073792E-2
9.833557891E0,4.777789116E-3,3.072857857E-3,-3.291511536E-2
9.851451140E0,5.109220743E-3,8.558332920E-4,-1.951980591E-2
9.869345061E0,-2.586454153E-3,-1.991122961E-3,-1.802253723E-2
9.887239958E0,3.639459610E-3,-1.490056515E-3,-2.462291718E-2
9.905133940E0,3.259480000E-3,1.808106899E-3,-1.792240143E-2
9.923028532E0,5.509436131E-3,-8.028715849E-3,-2.101135254E-2
9.940922819E0,1.235038042E-3,-1.630663872E-3,-3.108215332E-2
9.958817046E0,3.196746111E-3,-1.081109047E-3,-2.271842957E-2
9.976711394E0,6.982237101E-3,-2.283126116E-3,-2.455711365E-2
9.994593901E0,7.251858711E-3,2.101331949E-3,-2.335262299E-2
1.001249991E1,3.743886948E-3,-9.814798832E-4,-2.789783478E-2
1.003039450E1,3.157019615E-3,5.040556192E-3,-1.991939545E-2
1.004828879E1,8.552402258E-3,3.039568663E-3,-1.473236084E-2
1.006617136E1,1.258909702E-3,-7.080048323E-3,-3.081893921E-2
1.008407455E1,1.693636179E-3,-7.911860943E-3,-2.853012085E-2
1.010197146E1,-1.092791557E-3,-6.859362125E-3,-2.108764648E-2
1.011986612E1,2.144128084E-3,4.013210535E-3,-1.732063293E-2
1.013776047E1,-1.816987991E-3,7.923185825E-3,-2.888202667E-2
1.015565469E1,4.841089249E-4,5.992472172E-3,-2.641201019E-2
1.017355167E1,-1.029849052E-3,2.849519253E-3,-2.900600433E-2
1.019144290E1,8.125007153E-4,3.070801497E-3,-1.853275299E-2
1.020933755E1,8.044570684E-3,-1.080304384E-3,-2.339744568E-2
1.022723215E1,6.044089794E-3,-1.111000776E-3,-3.141689301E-2
1.024512240E1,2.384603024E-3,-3.719598055E-3,-2.256584167E-2
1.026300876E1,9.111464024E-3,1.010853052E-2,-1.970863342E-2
1.028091495E1,2.816766500E-3,7.556974888E-4,-2.732372284E-2
1.029879745E1,-3.760457039E-4,-7.052928209E-3,-3.419399261E-2
1.031670358E1,-3.807932138E-3,7.891654968E-4,-3.165435791E-2
1.033459830E1,7.697492838E-3,1.797080040E-4,-1.602077484E-2
1.035249209E1,1.429617405E-3,2.266377211E-3,-2.814102173E-2
1.037038565E1,1.051932573E-2,-4.293709993E-3,-1.897907257E-2
1.038828097E1,-4.115223885E-3,-5.271732807E-4,-2.252101898E-2
1.040616324E1,2.436786890E-3,-1.004749537E-2,-2.678966522E-2
1.042406955E1,5.975514650E-3,-6.395637989E-3,-1.690387726E-2
1.044196371E1,3.436774015E-3,2.016723156E-3,-2.393436432E-2
1.045984610E1,-1.789957285E-3,2.621382475E-3,-2.433013916E-2
1.047775265E1,1.092702150E-3,-5.982965231E-3,-2.487659454E-2
1.049564670E1,2.219855785E-3,3.237426281E-3,-2.535915375E-2
1.051354581E1,2.475410700E-3,-6.488114595E-3,-2.069854736E-2
1.053143552E1,6.267398596E-3,-3.672808409E-3,-2.727413177E-2
1.054932974E1,2.473264933E-3,-2.557754517E-3,-2.552986145E-2
1.056722287E1,2.427518368E-3,7.238984108E-5,-3.003501892E-2
1.058510367E1,8.554458618E-3,7.539689541E-4,-1.926231384E-2
1.060301272E1,7.634490728E-3,4.894733429E-4,-2.546596527E-2
1.062090726E1,-2.192467451E-3,1.214414835E-3,-3.167152405E-2
1.063880441E1,2.893805504E-5,-7.368206978E-3,-2.132320404E-2
1.065669357E1,2.695620060E-3,-3.598511219E-3,-3.006935120E-2
1.067459006E1,6.514877081E-3,-9.042024612E-5,-2.368927002E-2
1.069248434E1,4.793256521E-3,-6.804734468E-3,-2.148151398E-2
1.071038168E1,8.310467005E-3,5.711734295E-3,-1.535987854E-2
1.072826974E1,3.835260868E-4,3.602117300E-3,-2.527809143E-2
1.074615689E1,2.042144537E-3,4.613012075E-3,-2.121829987E-2
1.076406167E1,5.087196827E-3,3.535687923E-3,-3.006172180E-2
1.078194455E1,-4.327893257E-4,-4.815757275E-3,-2.763652802E-2
1.079984811E1,2.797126770E-3,2.344936132E-3,-2.284717560E-2
1.081773367E1,5.685597658E-3,3.482997417E-4,-2.155685425E-2
1.083564175E1,7.722079754E-3,-3.709495068E-3,-2.833461761E-2
1.085353561E1,9.929597378E-3,-3.506690264E-3,-2.758407593E-2
1.087142740E1,1.150381565E-2,2.957522869E-3,-2.218914032E-2
1.088932193E1,8.029460907E-3,1.788973808E-3,-2.347087860E-2
1.090721628E1,2.541691065E-3,1.485347748E-4,-2.704620361E-2
1.092510214E1,6.212413311E-3,2.507269382E-4,-1.944923401E-2
1.094300491E1,2.196937799E-3,4.976987839E-6,-2.679347992E-2
1.096089938E1,5.784600973E-3,3.999471664E-3,-2.724075317E-2
1.097879336E1,9.371936321E-4,-4.197895527E-3,-2.957630157E-2
1.099668771E1,2.383261919E-3,-2.608120441E-3,-2.188777924E-2
1.101458236E1,1.315119863E-2,1.600146294E-3,-2.831840515E-2
1.103247647E1,-1.036599278E-2,-5.263954401E-3,-3.009986877E-2
1.105037076E1,1.821666956E-3,-3.759801388E-3,-2.340126038E-2
1.106826541E1,4.969358444E-3,-5.466252565E-3,-2.189445496E-2
1.108614883E1,1.105591655E-2,-7.928133011E-3,-2.302551270E-2
1.110405362E1,1.924067736E-3,-1.035419106E-2,-2.404880524E-2
1.112194491E1,-2.698510885E-3,-2.749383450E-3,-2.850341797E-2
1.113984219E1,1.346468925E-4,9.633302689E-3,-2.878665924E-2
1.115773654E1,2.488076687E-3,3.161638975E-3,-1.798820496E-2
1.117563107E1,1.275852323E-2,-4.884511232E-3,-2.624225616E-2
1.119352609E1,4.200249910E-3,1.812309027E-3,-2.482223511E-2
1.121141959E1,4.088073969E-3,-1.126617193E-3,-2.140903473E-2
1.122931387E1,5.431354046E-3,1.397728920E-3,-2.588653564E-2
1.124720846E1,9.874254465E-3,5.516111851E-4,-1.986885071E-2
1.126510049E1,5.591869354E-3,-2.545207739E-3,-2.465534210E-2
1.128299710E1,8.176892996E-3,-3.874301910E-6,-2.200412750E-2
1.130088809E1,4.760265350E-3,2.118289471E-3,-2.664661407E-2
1.131878549E1,-1.287817955E-3,3.746926785E-3,-2.700614929E-2
1.133668014E1,6.302028894E-3,3.802031279E-3,-2.061176300E-2
1.135457413E1,1.118123531E-3,4.290342331E-3,-2.985477448E-2
1.137246866E1,9.548902512E-3,-2.583891153E-3,-3.406238556E-2
1.139034823E1,3.631591797E-3,1.846343279E-3,-3.365802765E-2
1.140825735E1,3.843218088E-3,-3.585368395E-3,-2.573204041E-2
1.142613986E1,4.883885384E-3,1.558661461E-3,-2.998828888E-2
1.144404587E1,6.327241659E-3,2.451062202E-3,-3.239345551E-2
1.146194040E1,7.871448994E-3,-4.545897245E-3,-3.202533722E-2
1.147983438E1,-4.032075405E-3,-2.133190632E-3,-2.121925354E-2
1.149772867E1,4.660367966E-3,5.228221416E-4,-2.449607849E-2
1.151562320E1,5.522936583E-3,-4.638135433E-4,-2.190303802E-2
1.153351602E1,5.573540926E-3,2.593994141E-4,-2.568531036E-2
1.155141183E1,9.888291359E-3,1.625299454E-3,-2.341175079E-2
1.156930612E1,8.359134197E-3,-2.417087555E-3,-3.475666046E-2
1.158720065E1,6.553828716E-3,1.407504082E-3,-2.683639526E-2
1.160509488E1,6.105929613E-3,2.979308367E-3,-2.963542938E-2
1.162298898E1,-3.052055836E-4,4.581004381E-3,-2.931213379E-2
1.164088327E1,7.691890001E-3,9.864270687E-4,-2.811145782E-2
1.165877963E1,6.840854883E-3,2.725332975E-3,-2.733039856E-2
1.167667209E1,-1.666337252E-3,-4.081726074E-3,-2.627944946E-2
1.169456625E1,-2.996683121E-3,-3.571242094E-3,-2.019786835E-2
1.171246084E1,8.556783199E-3,2.947539091E-3,-2.012825012E-2
1.173035525E1,6.119281054E-3,-6.358146667E-3,-3.240966797E-2
1.174824942E1,2.070695162E-3,-1.084119081E-3,-2.400493622E-2
1.176613199E1,-3.137886524E-3,-1.555383205E-4,-2.706336975E-2
1.178403848E1,8.321642876E-3,-2.809524536E-3,-2.058506012E-2
1.180191788E1,4.691958427E-3,-2.697020769E-3,-2.221393585E-2
1.181982657E1,2.468824387E-3,4.897713661E-4,-2.433967590E-2
1.183772085E1,5.730003119E-3,2.430200577E-3,-2.135848999E-2
1.185561380E1,7.667273283E-3,2.167433500E-3,-2.839565277E-2
1.187351096E1,3.430843353E-3,1.248896122E-3,-2.269458771E-2
1.189140402E1,7.916092873E-4,-4.207581282E-3,-2.057361603E-2
1.190929843E1,-1.541674137E-4,-3.903418779E-3,-2.152919769E-2
1.192719253E1,5.610346794E-3,-3.677219152E-3,-2.586269379E-2
1.194508682E1,1.148581505E-2,-9.305775166E-3,-2.367973328E-2
1.196298123E1,3.533393145E-3,-7.247358561E-3,-3.109359741E-2
1.198087564E1,-1.561284065E-3,-1.969188452E-3,-2.068328857E-2
1.199876956E1,4.966557026E-4,2.587884665E-3,-2.748680115E-2
1.201666428E1,6.713271141E-3,4.486173391E-3,-3.091526031E-2
1.203455826E1,3.558069468E-3,4.509389400E-4,-3.177261353E-2
1.205245279E1,2.491086721E-3,1.375854015E-3,-1.831531525E-2
1.207034714E1,5.823969841E-4,1.038104296E-3,-2.488422394E-2
1.208824454E1,-3.966689110E-5,1.026690006E-3,-2.506828308E-2
1.210612436E1,-4.984468222E-3,-2.825558186E-3,-2.985382080E-2
1.212401938E1,6.143510342E-3,4.083782434E-3,-2.424430847E-2
1.214192453E1,4.273176193E-3,-5.461215973E-3,-2.822875977E-2
1.215981882E1,-3.873467445E-3,-3.423810005E-3,-2.178001404E-2
1.217771310E1,1.981675625E-3,-8.718460798E-3,-3.165245056E-2
1.219561044E1,1.187679172E-2,-3.027498722E-3,-3.126621246E-2
1.221350479E1,1.722395420E-3,4.364579916E-3,-3.529930115E-2
1.223139609E1,3.914803267E-3,2.399086952E-5,-2.351188660E-2
1.224929050E1,7.144182920E-3,1.209288836E-3,-2.170372009E-2
1.226718472E1,-4.999399185E-3,-8.073240519E-3,-2.086067200E-2
1.228507608E1,-4.246354103E-3,-2.964705229E-3,-1.441955566E-2
1.230295846E1,-7.411837578E-5,-1.451194286E-3,-2.968597412E-2
1.232086453E1,6.596803665E-3,5.498528481E-4,-1.597881317E-2
1.233876187E1,3.430187702E-3,2.182185650E-3,-2.851581573E-2
1.235665616E1,6.603360176E-3,-1.561909914E-3,-2.896213531E-2
1.237455368E1,5.190819502E-3,-4.069477320E-3,-2.161026001E-2
1.239244498E1,-1.597225666E-3,4.611879587E-3,-3.171253204E-2
1.241033932E1,7.498264313E-5,-2.960711718E-3,-2.065372467E-2
1.242823386E1,-4.418045282E-3,7.984042168E-5,-2.756595612E-2
1.244611740E1,4.936456680E-4,-4.039406776E-4,-2.627277374E-2
1.246402615E1,1.622736454E-4,4.013836384E-3,-2.018642426E-2
1.248191666E1,5.710244179E-3,-2.158284187E-4,-2.384376526E-2
1.249980899E1,1.222825050E-2,1.705527306E-3,-2.213764191E-2
1.251770517E1,5.319833755E-3,-3.456503153E-3,-2.114391327E-2
1.253559958E1,8.938401937E-3,-7.811784744E-4,-2.146816254E-2
1.255349405E1,-6.726980209E-4,4.252493382E-3,-3.280162811E-2
1.257138834E1,1.863300800E-3,-8.126765490E-3,-2.727317810E-2
1.258928042E1,4.249185324E-3,6.984978914E-3,-3.134918213E-2
1.260717715E1,2.829074860E-3,5.897581577E-4,-2.584552765E-2
1.262507114E1,-1.114815474E-3,-1.426339149E-4,-2.639007568E-2
1.264296554E1,4.284858704E-3,-4.703611135E-3,-2.169704437E-2
1.266085977E1,1.202192903E-2,5.304813385E-5,-2.002239227E-2
1.267875406E1,6.236046553E-3,-3.263384104E-3,-2.486515045E-2
1.269664529E1,2.501070499E-3,3.007054329E-4,-1.952838898E-2
1.271454257E1,-1.671493053E-3,-7.221549749E-3,-2.211284637E-2
1.273243698E1,-2.752542496E-3,-3.303915262E-3,-3.379821777E-2
1.275033145E1,1.034265757E-2,2.233952284E-3,-2.541542053E-2
1.276822610E1,3.783434629E-3,-1.862555742E-3,-2.324771881E-2
1.278610904E1,5.009919405E-3,1.902759075E-3,-2.784919739E-2
1.280401645E1,8.193016052E-3,4.051923752E-4,-3.453731537E-2
1.282190860E1,4.984050989E-3,7.408261299E-4,-1.993179321E-2
1.283980295E1,3.965795040E-4,-4.342764616E-3,-2.188205719E-2
1.285769742E1,-1.171648502E-3,-3.575861454E-3,-2.875614166E-2
1.287559170E1,2.598345280E-3,-3.187924623E-3,-2.737426758E-2
1.289348599E1,8.601635695E-3,8.076190948E-3,-2.708816528E-2
1.291138028E1,5.314320326E-3,3.899127245E-3,-2.300739288E-2
1.292927768E1,5.166649818E-3,2.543300390E-3,-2.207851410E-2
1.294716916E1,2.218484879E-4,-4.377007484E-3,-2.368450165E-2
1.296505142E1,3.739178181E-3,2.504408360E-3,-1.923847198E-2
1.298295773E1,9.789973497E-3,1.272290945E-3,-2.403640747E-2
1.300085196E1,-2.286583185E-3,-6.356984377E-3,-2.706146240E-2
1.301874624E1,9.978353977E-3,2.102464437E-3,-3.053951263E-2
1.303664059E1,1.114192605E-2,1.075953245E-3,-2.639770508E-2
1.305453610E1,3.375232220E-3,-3.730535507E-3,-2.435493469E-2
1.307242935E1,6.492465734E-3,-1.214176416E-3,-2.000999451E-2
1.309032364E1,9.090214968E-3,-5.758404732E-4,-2.893066406E-2
1.310821805E1,8.355289698E-3,-3.290802240E-3,-2.405166626E-2
1.312610025E1,-2.458453178E-3,-1.726478338E-3,-3.345394135E-2
1.314400375E1,2.671569586E-3,-7.841080427E-3,-1.826477051E-2
1.316190085E1,1.153409481E-3,1.247286797E-3,-1.552963257E-2
1.317979501E1,-1.460433006E-3,-1.140236855E-3,-1.071739197E-2
1.319769260E1,7.240176201E-3,-3.673285246E-3,-2.798748016E-2
1.321558395E1,4.271447659E-3,2.749294043E-3,-2.971553802E-2
1.323347793E1,-3.502964973E-4,-9.861886501E-4,-2.252483368E-2
1.325137234E1,1.548737288E-3,1.094520092E-3,-2.922916412E-2
1.326926706E1,7.291734219E-3,-6.085336208E-4,-2.109336853E-2
1.328716110E1,1.251518726E-3,6.104439497E-3,-2.765941620E-2
1.330505557E1,2.992451191E-3,7.071435452E-3,-3.001594543E-2
1.332293771E1,-5.872964859E-3,1.902580261E-4,-1.430511475E-2
1.334084390E1,1.691639423E-3,2.896040678E-3,-1.774311066E-2
1.335873819E1,1.212716103E-3,-4.228591919E-3,-3.171825409E-2
1.337663272E1,2.398073673E-3,4.853934050E-3,-1.845550537E-2
1.339452707E1,6.874412298E-3,3.639757633E-4,-2.577114105E-2
1.341242136E1,-2.218484879E-4,5.093902349E-3,-1.777267456E-2
1.343031515E1,2.353876829E-3,-4.450678825E-3,-1.831626892E-2
1.344821017E1,7.262825966E-4,8.315145969E-4,-2.299499512E-2
1.346609244E1,2.379804850E-3,2.176672220E-3,-1.777935028E-2
1.348399582E1,1.392662525E-3,3.104597330E-3,-2.038478851E-2
1.350189297E1,5.939722061E-3,6.258785725E-3,-2.077293396E-2
1.351978207E1,2.885401249E-3,5.324214697E-3,-3.020572662E-2
1.353768155E1,7.676780224E-3,-9.179115295E-5,-2.714347839E-2
1.355557584E1,7.595866919E-3,4.851162434E-3,-3.497886658E-2
1.357347018E1,1.472845674E-2,-3.811806440E-3,-2.849578857E-2
1.359136471E1,5.905836821E-3,-1.075506210E-3,-2.258396149E-2
1.360925900E1,7.555365562E-3,1.843452454E-3,-2.860355377E-2
1.362715323E1,6.419301033E-3,4.485338926E-3,-2.726936340E-2
1.364504764E1,8.321881294E-3,7.348656654E-3,-2.348613739E-2
1.366294485E1,-7.692605257E-3,-3.370612860E-3,-2.950668335E-2
1.368083609E1,-2.263069153E-3,3.649324179E-3,-2.303218842E-2
1.369873013E1,2.742052078E-3,-7.643997669E-4,-2.383327484E-2
1.371662466E1,-3.157675266E-3,-1.851528883E-3,-2.791023254E-2
1.373451901E1,2.519339323E-3,-5.117058754E-5,-3.791999817E-2
1.375241354E1,4.023313522E-3,-2.863496542E-3,-2.093315125E-2
1.377030759E1,7.141441107E-3,4.502058029E-3,-2.193450928E-2
1.378819107E1,2.200633287E-3,-4.068911076E-4,-2.812480927E-2
1.380608829E1,-2.681612968E-4,-1.010358334E-3,-2.758026123E-2
1.382399063E1,4.799664021E-3,-3.485232592E-3,-2.394771576E-2
1.384188498E1,5.258738995E-3,1.997858286E-3,-2.739429474E-2
1.385978171E1,7.950067520E-4,1.235008240E-4,-2.351951599E-2
1.387767355E1,-2.955675125E-3,6.655484438E-3,-2.515697479E-2
1.389556503E1,3.858447075E-3,-3.074616194E-3,-2.412605286E-2
1.391346231E1,-3.940939903E-3,6.925761700E-4,-2.776813507E-2
1.393135666E1,-3.896921873E-3,-6.220191717E-3,-2.031707764E-2
1.394925094E1,-2.152502537E-3,1.823037863E-3,-2.190113068E-2
1.396714529E1,3.055542707E-3,-4.383802414E-3,-3.448772430E-2
1.398503946E1,-3.889352083E-3,6.403028965E-4,-2.867317200E-2
1.400293381E1,-7.440149784E-4,-4.579991102E-3,-2.541160583E-2
1.402081662E1,3.811717033E-4,2.615302801E-3,-2.855396271E-2
1.403872030E1,6.369054317E-4,-2.076059580E-3,-2.535820007E-2
1.405660489E1,-3.689289093E-3,-2.156496048E-4,-1.969432831E-2
1.407450827E1,1.923441887E-3,7.967650890E-4,-2.680397034E-2
1.409240573E1,1.592010260E-3,2.703398466E-3,-2.273845673E-2
1.411029971E1,6.280273199E-3,1.250147820E-3,-1.982021332E-2
1.412819394E1,1.051008701E-3,1.264959574E-3,-2.689361572E-2
1.414607675E1,5.276769400E-3,-3.187596798E-3,-2.356433868E-2
1.416397964E1,5.549877882E-3,3.769993782E-4,-2.351093292E-2
1.418187717E1,4.477173090E-3,-2.023875713E-4,-2.960586548E-2
1.419977139E1,-2.598285675E-3,3.221124411E-3,-2.752590179E-2
1.421766574E1,3.058314323E-3,3.153324127E-3,-2.866077423E-2
1.423556003E1,3.793001175E-3,3.468394279E-4,-2.485084534E-2
1.425344253E1,-3.190636635E-4,-3.580898046E-3,-2.565288544E-2
1.427134860E1,-1.211941242E-3,6.215512753E-3,-2.202892303E-2
1.428924283E1,3.142118454E-3,2.135723829E-3,-2.381420135E-2
1.430713748E1,1.105830073E-2,5.449831486E-3,-2.653503418E-2
1.432502951E1,-1.263380051E-3,-2.905726433E-5,-2.231216431E-2
1.434292605E1,-3.384977579E-3,-2.918928862E-3,-2.677726746E-2
1.436081967E1,3.101289272E-3,-4.550576210E-3,-2.728271484E-2
1.437871451E1,1.441717148E-3,-8.810251951E-3,-2.638149261E-2
1.439660879E1,6.360560656E-3,3.694295883E-3,-2.577972412E-2
1.441450308E1,9.571969509E-3,6.260573864E-3,-2.651882172E-2
1.443239737E1,9.135872126E-3,-3.933876753E-3,-2.691841125E-2
1.445029068E1,3.199577332E-3,3.505855799E-3,-3.818988800E-2
1.446818625E1,1.023048162E-2,-8.019208908E-4,-2.675914764E-2
1.448606869E1,-7.120072842E-4,3.212690353E-4,-2.661228180E-2
1.450397189E1,2.630859613E-3,-3.219485283E-3,-2.454280853E-2
1.452186911E1,-1.154065132E-3,3.842651844E-3,-1.358222961E-2
1.453976327E1,1.176649332E-2,-7.542610168E-3,-2.326965332E-2
1.455765787E1,-8.412301540E-4,-2.561688423E-3,-2.072334290E-2
1.457553757E1,9.453266859E-3,-4.278987646E-3,-2.622222900E-2
1.459344632E1,1.980990171E-3,-4.026234150E-3,-2.810287476E-2
1.461134073E1,-1.133024693E-3,-1.324415207E-4,-2.643394470E-2
1.462924100E1,1.644581556E-3,5.635619164E-4,-2.622032166E-2
1.464712955E1,4.623144865E-3,-6.114512682E-3,-2.935409546E-2
1.466502359E1,-3.237724304E-4,3.106027842E-3,-2.227592468E-2
1.468291800E1,1.758933067E-3,1.748651266E-3,-2.319908142E-2
1.470081222E1,3.520250320E-3,-6.978780031E-3,-3.281784058E-2
1.471870993E1,5.553662777E-4,-4.013150930E-3,-2.238750458E-2
1.473660104E1,-6.246596575E-3,-7.413476706E-3,-2.867603302E-2
1.475449527E1,-7.674992085E-4,8.228868246E-3,-2.414608002E-2
1.477238956E1,1.307004690E-2,3.391951323E-3,-3.250980377E-2
1.479028378E1,1.143515110E-3,-3.302305937E-3,-2.900123596E-2
1.480817850E1,1.044777036E-2,3.832578659E-4,-1.806735992E-2
1.482606064E1,-8.982419968E-5,-4.389017820E-3,-2.894306183E-2
1.484396371E1,4.297971725E-3,1.592725515E-3,-2.386569977E-2
1.486186160E1,2.942740917E-3,-7.770657539E-4,-2.740001678E-2
1.487975552E1,-1.720279455E-3,-3.424108028E-3,-1.659393311E-2
1.489764981E1,-5.175173283E-4,1.183956861E-3,-2.434158325E-2
1.491554404E1,2.148717642E-3,3.185272217E-3,-3.196239471E-2
1.493343844E1,-1.598894596E-3,-1.150369644E-5,-1.574230194E-2
1.495133273E1,3.885209560E-3,5.693554878E-3,-2.451992035E-2
1.496922732E1,2.489775419E-3,2.921104431E-3,-2.913093567E-2
1.498710934E1,6.665498018E-3,-1.683056355E-3,-2.660274506E-2
1.500501584E1,8.160263300E-3,1.178264618E-3,-2.784156799E-2
1.502290988E1,4.641115665E-4,1.270473003E-3,-2.688026428E-2
1.504080417E1,6.634384394E-3,4.126936197E-3,-1.955318451E-2
1.505870163E1,8.577555418E-3,2.886027098E-3,-2.940654755E-2
1.507658121E1,-8.061528206E-4,6.100416183E-3,-1.982498169E-2
1.509448355E1,-2.882301807E-3,-2.477318048E-3,-2.372646332E-2
1.511238156E1,2.074211836E-3,-3.717333078E-3,-3.051376343E-2
1.513027572E1,5.150139332E-3,-2.355694771E-3,-1.515197754E-2
1.514817044E1,1.437962055E-4,-1.938402653E-3,-1.546859741E-2
1.516605289E1,3.718316555E-3,1.058429480E-3,-2.724361420E-2
1.518395566E1,1.485496759E-3,2.268075943E-3,-2.485561371E-2
1.520185324E1,-7.993459702E-3,7.487714291E-3,-3.087425232E-2
1.521974747E1,2.943992615E-3,1.098453999E-3,-2.779483795E-2
1.523764175E1,3.670424223E-3,6.857216358E-4,-2.635478973E-2
1.525553610E1,6.859004498E-3,8.275210857E-4,-3.140354156E-2
1.527343039E1,6.775945425E-3,-4.124939442E-4,-3.067779541E-2
1.529132168E1,7.064491510E-3,-8.346319199E-3,-1.982688904E-2
1.530921921E1,1.001015306E-2,-1.224458218E-3,-2.563571930E-2
1.532710153E1,3.392636776E-3,4.204303026E-3,-2.136802673E-2
1.534500479E1,5.508363247E-4,-4.893243313E-4,-2.560901642E-2
1.536290188E1,6.596148014E-4,-5.514770746E-3,-2.801418304E-2
1.538079636E1,4.560679197E-3,-1.347661018E-3,-2.162170410E-2
1.539869058E1,-1.730978489E-3,-2.262175083E-3,-2.199935913E-2
1.541658493E1,1.256018877E-3,-8.455514908E-4,-1.829147339E-2
1.543448208E1,1.174628735E-3,3.672868013E-3,-2.168941498E-2
1.545237344E1,2.839028835E-3,-1.093983650E-3,-2.202224731E-2
1.547026779E1,-1.034766436E-3,-1.756817102E-3,-2.298164368E-2
1.548816232E1,6.300836802E-3,-4.610419273E-5,-2.562141418E-2
1.550604483E1,-8.311867714E-4,1.265943050E-3,-2.063655853E-2
1.552394925E1,2.094507217E-4,-4.762530327E-3,-2.473926544E-2
1.554184512E1,6.008028984E-3,-5.369991064E-3,-2.041625977E-2
1.555973941E1,6.458282471E-3,-2.204149961E-3,-2.717018127E-2
1.557763394E1,4.511237144E-3,-3.948271275E-3,-2.494335175E-2
1.559552798E1,1.940190792E-3,-9.821057320E-4,-3.237915039E-2
1.561342258E1,2.089917660E-3,-2.869606018E-3,-2.181053162E-2
1.563131686E1,-2.812325954E-3,-3.875851631E-3,-2.134418488E-2
1.564920810E1,7.111936808E-3,-2.890735865E-3,-2.581119537E-2
1.566710568E1,-9.945929050E-4,-4.846394062E-3,-2.476406097E-2
1.568499972E1,-3.541827202E-3,-4.449367523E-3,-3.700828552E-2
1.570289407E1,4.677176476E-4,-7.144242525E-3,-2.082729340E-2
1.572078848E1,1.045048237E-3,-4.141837358E-3,-2.630996704E-2
1.573868277E1,8.118361235E-3,-8.330851793E-3,-1.377201080E-2
1.575657687E1,4.856228828E-3,2.834498882E-3,-2.284812927E-2
1.577447128E1,-3.104805946E-4,-1.935720444E-3,-1.773262024E-2
1.579235104E1,8.251607418E-3,-6.232827902E-3,-3.247928619E-2
1.581025998E1,7.142931223E-3,-5.145668983E-4,-2.071857452E-2
1.582814273E1,-5.233883858E-4,5.207240582E-3,-2.528381348E-2
1.584603677E1,7.554858923E-3,5.942285061E-3,-3.302574158E-2
1.586393979E1,4.558891058E-3,-4.455357790E-3,-2.971267700E-2
1.588183713E1,1.226308942E-2,-4.949241877E-3,-3.051757812E-2
1.589973453E1,-1.110732555E-4,-1.577258110E-3,-2.408981323E-2
1.591761417E1,7.446706295E-3,9.905487299E-3,-2.050971985E-2
1.593552017E1,5.001038313E-3,-4.467070103E-4,-2.937793732E-2
1.595341452E1,-1.063078642E-3,3.331661224E-3,-2.584552765E-2
1.597130868E1,2.600342035E-3,2.148866653E-3,-2.968502045E-2
1.598920181E1,4.325807095E-4,-4.448086023E-3,-2.525997162E-2
1.600709744E1,3.266751766E-3,3.866523504E-3,-1.307773590E-2
1.602499155E1,5.416870117E-3,-2.514243126E-3,-2.396774292E-2
1.604288595E1,6.854534149E-6,-1.610636711E-3,-1.925754547E-2
1.606078042E1,4.984796047E-3,-5.602836609E-5,-2.140140533E-2
1.607867740E1,7.542967796E-4,-4.751324654E-3,-2.417087555E-2
1.609656882E1,-5.572706461E-3,-4.504352808E-3,-2.303314209E-2
1.611446188E1,1.086738706E-2,2.099156380E-3,-3.029727936E-2
1.613235763E1,3.333151340E-3,-3.698170185E-4,-2.988147736E-2
1.615025192E1,1.505613327E-4,-3.754645586E-3,-3.653621674E-2
1.616814950E1,2.552539110E-3,-4.726529121E-3,-3.474330902E-2
1.618602872E1,-4.061341286E-3,-5.558788776E-3,-2.449035645E-2
1.620393179E1,-5.123287439E-3,-2.440452576E-3,-2.483367920E-2
1.622182925E1,2.115368843E-3,2.196222544E-3,-2.913856506E-2
1.623972336E1,3.924280405E-3,-3.205448389E-3,-2.823448181E-2
1.625761789E1,-5.587577820E-3,1.940399408E-3,-2.051067352E-2
1.627551224E1,-4.220902920E-3,1.313355565E-2,-3.341388702E-2
1.629339651E1,-3.273904324E-3,-4.599362612E-3,-3.075790405E-2
1.631130075E1,-2.610325813E-3,-7.930427790E-3,-1.719951630E-2
1.632919504E1,5.278289318E-4,-3.250539303E-4,-1.459693909E-2
1.634708957E1,2.834796906E-4,-7.252722979E-3,-2.510833740E-2
1.636498086E1,-2.311557531E-3,-6.494969130E-3,-2.150535583E-2
1.638286563E1,-1.865983009E-3,-4.103034735E-3,-2.582836151E-2
1.640077237E1,-2.410024405E-3,2.201139927E-3,-3.566932678E-2
1.641866666E1,3.996133804E-3,-9.544789791E-4,-3.108215332E-2
1.643656094E1,3.781914711E-4,-1.987427473E-3,-1.783752441E-2
1.645445523E1,-6.150841713E-3,-6.844460964E-3,-2.672481537E-2
1.647234952E1,4.260212183E-3,-5.555391312E-3,-2.013206482E-2
1.649024081E1,2.064675093E-3,-8.265644312E-3,-2.853488922E-2
1.650813840E1,9.704530239E-4,-2.146482468E-3,-2.014827728E-2
1.652602048E1,3.837108612E-3,-8.090138435E-4,-2.186775208E-2
1.654392374E1,4.093825817E-3,-5.860120058E-3,-1.820182800E-2
1.656182120E1,9.285330772E-3,2.049386501E-3,-2.044487000E-2
1.657971579E1,1.413285732E-3,-5.327701569E-3,-2.725601196E-2
1.659760953E1,-4.911065102E-3,-8.264154196E-3,-1.889705658E-2
1.661550406E1,3.053158522E-3,-1.190149784E-2,-1.640701294E-2
1.663339926E1,3.118425608E-3,-3.016293049E-3,-2.055358887E-2
1.665129269E1,4.960179329E-3,1.127839088E-3,-2.062129974E-2
1.666918722E1,-3.160148859E-3,-7.603198290E-3,-2.402973175E-2
1.668708151E1,-5.056381226E-3,-7.514655590E-4,-3.230094910E-2
1.670497549E1,2.879112959E-3,-3.818273544E-4,-2.483367920E-2
1.672287308E1,8.930563927E-4,-4.421800375E-3,-2.588939667E-2
1.674076437E1,-3.622561693E-3,-6.080806255E-3,-2.858448029E-2
1.675864657E1,1.540184021E-4,-2.771556377E-3,-1.668643951E-2
1.677655288E1,-3.309249878E-3,4.569768906E-3,-1.627349854E-2
1.679444736E1,2.406686544E-3,-3.034770489E-3,-2.092075348E-2
1.681234152E1,2.074718475E-3,-1.575142145E-3,-2.231407166E-2
1.683023581E1,-3.878682852E-3,-5.390852690E-3,-3.014564514E-2
1.684811752E1,4.358142614E-3,1.122415066E-3,-2.465343475E-2
1.686601260E1,1.343339682E-3,-1.349449158E-4,-2.230930328E-2
1.688391885E1,-2.459526062E-3,-3.266274929E-3,-3.800201416E-2
1.690181290E1,8.652180433E-3,3.519952297E-4,-2.497959137E-2
1.691970743E1,5.392462015E-3,-6.215929985E-3,-2.069950104E-2
1.693760171E1,-7.423162460E-4,-3.894478083E-3,-1.685333252E-2
1.695549600E1,-2.757281065E-3,-3.984242678E-3,-1.723766327E-2
1.697339010E1,8.160918951E-3,-7.957160473E-3,-2.970123291E-2
1.699128445E1,8.609652519E-3,-4.134237766E-3,-1.682090759E-2
1.700917911E1,-4.400581121E-3,4.965960979E-4,-2.651691437E-2
1.702706125E1,-1.063197851E-3,-4.358589649E-4,-2.395343781E-2
1.704496750E1,8.826166391E-3,-3.423392773E-3,-2.512931824E-2
1.706286117E1,-1.995623112E-3,5.270242691E-4,-1.897144318E-2
1.708075632E1,-3.047943115E-3,8.714497089E-4,-2.245521545E-2
1.709865256E1,-1.380831003E-3,-1.053512096E-3,-1.250171661E-2
1.711654458E1,3.510147333E-3,-6.834954023E-3,-2.474975586E-2
1.713443912E1,1.762688160E-3,-2.857178450E-3,-3.009510040E-2
1.715233346E1,3.365218639E-3,1.793801785E-3,-2.642154694E-2
1.717022800E1,3.461867571E-3,5.083888769E-3,-1.777362823E-2
1.718812588E1,5.419552326E-4,6.101578474E-3,-1.819324493E-2
1.720600436E1,9.892612696E-3,-5.516797304E-3,-1.770591736E-2
1.722390787E1,4.087924957E-3,4.075378180E-3,-2.476215363E-2
1.724179330E1,5.335509777E-3,-1.511514187E-3,-2.449226379E-2
1.725968918E1,4.213571548E-3,6.179511547E-4,-2.432155609E-2
1.727757999E1,4.600524902E-3,-9.139299393E-3,-1.952934265E-2
1.729547745E1,-1.185268164E-3,-8.170008659E-4,-1.769161224E-2
1.731338211E1,1.894295216E-3,-8.480846882E-4,-1.971054077E-2
1.733127658E1,4.897832870E-3,7.984042168E-5,-2.612209320E-2
1.734917087E1,4.823356867E-3,-6.244748831E-3,-3.329753876E-2
1.736705417E1,-1.712471247E-3,-1.036673784E-3,-2.587127686E-2
1.738495669E1,-1.992285252E-4,-6.320208311E-3,-2.852535248E-2
1.740285318E1,-1.840233803E-3,4.692971706E-4,-1.944923401E-2
1.742074795E1,2.511471510E-3,-4.440635443E-3,-1.872825623E-2
1.743864224E1,2.492010593E-3,-1.622945070E-3,-2.743244171E-2
1.745653689E1,-1.502215862E-3,-1.785278320E-3,-2.385997772E-2
1.747443106E1,-1.499950886E-3,-3.901362419E-3,-2.763748169E-2
1.749232535E1,-2.730786800E-4,-3.196775913E-3,-2.770900726E-2
1.751021969E1,4.646331072E-3,-3.643602133E-3,-1.876926422E-2
1.752811429E1,3.401100636E-3,-5.826890469E-3,-2.194118500E-2
1.754599624E1,4.307836294E-3,-2.992361784E-3,-2.170753479E-2
1.756390256E1,1.360327005E-3,-4.102081060E-3,-2.806854248E-2
1.758179159E1,4.318326712E-3,7.938742638E-4,-2.927684784E-2
1.759969107E1,6.225675344E-3,9.439587593E-4,-2.408027649E-2
1.761758560E1,5.589038134E-3,-3.144294024E-3,-2.159976959E-2
1.763548001E1,5.117356777E-3,-3.587454557E-3,-2.501678467E-2
1.765337729E1,-1.201897860E-3,-9.322494268E-3,-2.153682709E-2
1.767126846E1,-2.345114946E-3,-2.813458443E-3,-2.165794373E-2
1.768916299E1,1.675784588E-3,-3.382742405E-3,-2.067661285E-2
1.770704538E1,9.618133307E-3,-5.599856377E-4,-2.834987640E-2
1.772495138E1,5.235731602E-3,2.430409193E-3,-2.300643921E-2
1.774284866E1,4.214584827E-3,-9.131669998E-3,-2.376174927E-2
1.776074014E1,5.318403244E-3,-6.875753403E-3,-1.960468292E-2
1.777863162E1,5.558133125E-5,-2.399563789E-3,-1.840972900E-2
1.779653146E1,-1.624226570E-5,-8.873343468E-4,-2.539062500E-2
1.781442276E1,9.697973728E-4,2.419650555E-4,-2.160453796E-2
1.783231741E1,4.800260067E-4,-6.317883730E-3,-2.686595917E-2
1.785021164E1,-2.420544624E-4,-6.576478481E-4,-2.328300476E-2
1.786810593E1,4.082918167E-6,-8.006691933E-4,-2.974224091E-2
1.788599161E1,-3.286033869E-3,2.511888742E-3,-1.922798157E-2
1.790389010E1,2.287209034E-3,-3.273487091E-3,-2.462959290E-2
1.792178885E1,7.178932428E-3,-2.497613430E-3,-2.106571198E-2
1.793968350E1,-2.231180668E-3,5.970299244E-4,-2.381324768E-2
1.795756558E1,3.457903862E-3,2.911388874E-4,-2.308750153E-2
1.797547159E1,9.098589420E-3,-7.094681263E-3,-1.753807068E-2
1.799336594E1,4.316091537E-3,-1.933276653E-3,-1.778697968E-2
1.801126040E1,3.326863050E-3,-4.189670086E-3,-1.809501648E-2
1.802915780E1,-1.156598330E-3,-9.485572577E-3,-2.954483032E-2
1.804703458E1,9.721517563E-5,-1.229551435E-2,-9.483337402E-3
1.806494034E1,6.560474634E-3,-6.301581860E-3,-2.954196930E-2
1.808284060E1,-1.122424006E-2,3.539621830E-4,-2.446746826E-2
1.810073190E1,8.345484734E-3,1.426458359E-3,-2.354240417E-2
1.811862625E1,-4.863172770E-3,3.973424435E-3,-3.077507019E-2
1.813652072E1,-2.393335104E-3,-3.801435232E-3,-2.055072784E-2
1.815441214E1,4.336118698E-3,5.952715874E-4,-1.747226715E-2
1.817230923E1,5.825579166E-3,1.386645436E-2,-3.490924835E-2
1.819020352E1,-3.006547689E-3,3.387242556E-3,-2.428054810E-2
1.820809811E1,-8.207261562E-4,-2.687990665E-3,-2.926349640E-2
1.822599167E1,3.302276134E-3,9.962320328E-4,-2.804279327E-2
1.824388339E1,-1.280009747E-4,-4.593431950E-4,-2.663993835E-2
1.826178067E1,-4.059672356E-3,-4.050135612E-3,-2.041912079E-2
1.827967496E1,5.134135485E-3,3.486871719E-5,-1.034164429E-2
1.829757236E1,1.146748662E-2,5.550384521E-3,-2.167797089E-2
1.831546359E1,5.879402161E-3,-9.718537331E-4,-9.950637817E-3
1.833335788E1,3.883332014E-3,-5.531638861E-3,-1.459980011E-2
1.835125241E1,-8.897244930E-3,-2.859026194E-3,-2.432632446E-2
1.836914664E1,6.298333406E-3,-6.629943848E-3,-2.624797821E-2
1.838703000E1,-2.789914608E-3,9.964406490E-4,-2.316379547E-2
1.840493271E1,-3.433227539E-3,2.392172813E-3,-2.252006531E-2
1.842283230E1,2.317428589E-4,1.956939697E-3,-2.162361145E-2
1.844072378E1,-3.427863121E-4,-1.604735851E-3,-1.918983459E-2
1.845861807E1,-2.348214388E-3,2.895772457E-3,-3.272628784E-2
1.847651242E1,2.372264862E-3,-3.962218761E-4,-2.874183655E-2
1.849440664E1,1.076656580E-2,-3.231585026E-3,-1.769161224E-2
1.851228897E1,2.197176218E-3,-5.755722523E-3,-2.300834656E-2
1.853019528E1,2.099663019E-3,-7.136762142E-3,-2.673339844E-2
1.854808975E1,-1.553058624E-3,7.324248552E-3,-2.403545380E-2
1.856596939E1,-3.015547991E-3,1.998215914E-3,-3.296089172E-2
1.858387515E1,-7.697045803E-4,7.874876261E-3,-1.765251160E-2
1.860177237E1,-1.842051744E-3,-1.317799091E-3,-1.305198669E-2
1.861966257E1,5.797415972E-3,5.149215460E-3,-2.833652496E-2
1.863756094E1,3.550648689E-3,-7.160604000E-3,-2.790451050E-2
1.865545572E1,7.176667452E-3,-2.062469721E-3,-2.134704590E-2
1.867334982E1,2.976149321E-3,-3.755986691E-3,-2.412891388E-2
1.869124429E1,9.974241257E-4,-2.179324627E-3,-2.310180664E-2
1.870913894E1,5.900293589E-3,1.877665520E-3,-2.411174774E-2
1.872702170E1,6.442070007E-4,3.907352686E-3,-1.836395264E-2
1.874492697E1,1.876384020E-3,-4.340380430E-3,-2.172088623E-2
1.876282437E1,2.165019512E-3,1.284748316E-3,-3.247070312E-2
1.878071554E1,4.895776510E-3,-7.793784142E-3,-2.423381805E-2
1.879860971E1,3.718733788E-3,-2.701282501E-4,-2.862644196E-2
1.881650436E1,1.314043999E-3,-2.761781216E-3,-2.472782135E-2
1.883439859E1,6.666779518E-5,7.131606340E-3,-3.298473358E-2
1.885229587E1,-7.614493370E-4,2.558648586E-3,-2.502059937E-2
1.887018722E1,9.706914425E-3,1.644939184E-3,-2.494907379E-2
1.888808151E1,1.233419776E-2,8.204877377E-4,-2.615737915E-2
1.890597037E1,-3.737688065E-3,-1.394152641E-4,-2.280902863E-2
1.892386703E1,2.079963684E-3,2.212375402E-3,-3.336715698E-2
1.894176431E1,-4.413515329E-3,4.103779793E-5,-2.357387543E-2
1.895965860E1,-4.305839539E-3,5.741417408E-4,-2.785778046E-2
1.897754269E1,1.383036375E-3,9.505450726E-4,-2.532482147E-2
1.899544723E1,1.159876585E-3,4.234910011E-5,-1.634693146E-2
1.901334170E1,4.054754972E-3,4.712730646E-3,-2.774143219E-2
1.903123605E1,4.875540733E-3,6.050944328E-3,-2.665615082E-2
1.904913034E1,3.020584583E-3,6.869435310E-5,-2.728271484E-2
1.906701364E1,-5.277991295E-4,2.387523651E-3,-2.453994751E-2
1.908491745E1,4.366189241E-3,4.153400660E-3,-2.983283997E-2
1.910281607E1,-3.421097994E-3,8.332431316E-4,-2.187919617E-2
1.912070749E1,3.599703312E-3,-1.098242402E-2,-2.740573883E-2
1.913860171E1,8.132904768E-3,-2.561151981E-3,-2.461338043E-2
1.915649600E1,2.941906452E-3,-4.153579473E-3,-2.557659149E-2
1.917439029E1,-8.751451969E-4,1.245141029E-3,-2.526378632E-2
1.919228458E1,-2.635985613E-3,4.243731499E-3,-1.955223083E-2
1.921017898E1,-1.110464334E-3,-2.874016762E-3,-3.262233734E-2
1.922807309E1,3.442466259E-3,5.058646202E-3,-2.225399017E-2
1.924595425E1,3.662168980E-3,1.021921635E-4,-1.765155792E-2
1.926385885E1,3.102064133E-3,-2.430111170E-3,-1.802539825E-2
1.928175339E1,1.130983233E-2,3.529489040E-4,-1.902580261E-2
1.929965054E1,7.645040751E-3,6.096243858E-3,-2.494049072E-2
1.931754813E1,-5.176365376E-4,2.634584904E-3,-2.705001831E-2
1.933543918E1,2.521783113E-3,2.740472555E-3,-2.041721344E-2
1.935333334E1,5.983740091E-3,1.981496811E-3,-2.231311798E-2
1.937122769E1,-1.664251089E-3,-9.985625744E-3,-2.013301849E-2
1.938912198E1,-5.535334349E-3,-7.121711969E-3,-2.760028839E-2
1.940700461E1,5.207389593E-3,-1.907378435E-3,-2.103424072E-2
1.942490762E1,5.039691925E-3,3.528207541E-3,-2.303886414E-2
1.944280722E1,1.586467028E-3,1.724302769E-3,-2.519607544E-2
1.946069937E1,1.475781202E-3,1.950412989E-3,-2.714252472E-2
1.947859390E1,-1.840144396E-3,4.881024361E-4,-2.381610870E-2
1.949648794E1,-1.361280680E-3,-3.455519676E-3,-2.697658539E-2
1.951438223E1,4.926413298E-3,7.379949093E-4,-3.309917450E-2
1.953227652E1,1.714587212E-3,-1.731991768E-3,-2.478408813E-2
1.955017087E1,4.826813936E-3,-4.554808140E-3,-2.534770966E-2
1.956806546E1,4.742562771E-3,1.530051231E-4,-2.577304840E-2
1.958595071E1,7.523775101E-3,-3.465384245E-3,-2.129650116E-2
1.960385098E1,6.745368242E-3,-2.241879702E-3,-2.700996399E-2
1.962174802E1,3.941506147E-3,-1.702934504E-3,-2.457141876E-2
1.963964248E1,-1.505583525E-3,3.163099289E-3,-2.606487274E-2
1.965753683E1,4.566431046E-3,1.405835152E-3,-2.954578400E-2
1.967543082E1,-4.181474447E-3,9.710311890E-3,-1.417350769E-2
1.969332547E1,3.153294325E-3,5.862116814E-5,-1.951217651E-2
1.971120792E1,4.723459482E-3,7.248908281E-3,-2.031803131E-2
1.972911392E1,4.812628031E-3,-8.810162544E-4,-2.583694458E-2
1.974699655E1,7.510006428E-3,-1.973956823E-3,-3.860950470E-2
1.976489956E1,5.758613348E-3,1.561313868E-3,-3.467464447E-2
1.978278665E1,1.597106457E-4,-8.538961411E-4,-1.409816742E-2
1.980069101E1,-2.095460892E-3,1.157879829E-3,-1.675605774E-2
1.981858414E1,5.730986595E-5,-7.116228342E-3,-1.631069183E-2
1.983647964E1,-1.883417368E-3,-1.332223415E-3,-2.437686920E-2
1.985437393E1,5.837708712E-3,3.483593464E-3,-2.281856537E-2
1.987226846E1,-1.662075520E-3,3.476858139E-3,-2.585887909E-2
1.989016275E1,3.977298737E-3,7.021099329E-3,-2.687454224E-2
1.990805460E1,5.556523800E-3,-4.081904888E-3,-3.157806396E-2
1.992593930E1,1.728832722E-3,-5.522906780E-3,-2.720355988E-2
1.994384561E1,1.087963581E-3,4.662543535E-3,-3.896427155E-2
1.996173990E1,5.416721106E-3,-1.337260008E-3,5.796432495E-3
1.997963418E1,6.305873394E-4,5.627512932E-3,-3.950595856E-2
1.999752829E1,3.028035164E-3,-6.119012833E-4,-1.909065247E-2
2.001542282E1,5.435794592E-3,4.782527685E-3,-2.738571167E-2
2.003331705E1,-2.450823784E-3,3.819137812E-3,-3.326129913E-2
2.005121438E1,8.075743914E-3,-5.814760923E-3,-1.356124878E-3
2.006910855E1,-2.846717834E-3,-1.857250929E-3,-3.402709961E-2
2.008699997E1,5.334287882E-3,-3.840804100E-3,-1.847553253E-2
2.010489450E1,-6.324619055E-3,9.945660830E-3,-2.945613861E-2
2.012279153E1,1.656770706E-3,2.808958292E-3,-3.059959412E-2
2.014068277E1,1.886367798E-3,-6.141066551E-4,-2.081489563E-2
2.015858017E1,7.444262505E-3,2.063810825E-3,-2.678871155E-2
2.017645962E1,-2.410292625E-3,3.879606724E-3,-1.971817017E-2
2.019436581E1,-5.319029093E-3,6.796240807E-3,-3.147125244E-2
2.021226016E1,4.900306463E-3,-1.195847988E-2,-2.844047546E-2
2.023015445E1,3.111124039E-3,-2.617567778E-3,-3.120136261E-2
2.024804916E1,-1.430720091E-3,-3.035545349E-3,-2.043533325E-2
2.026593472E1,2.684205770E-3,-5.497336388E-3,-2.514839172E-2
2.028382266E1,-4.532724619E-3,-1.845449209E-3,-2.408504486E-2
2.030173166E1,1.218110323E-3,2.705216408E-3,-2.099037170E-2
2.031962582E1,3.060817719E-3,4.033565521E-3,-1.697921753E-2
2.033752017E1,-4.445701838E-3,8.698105812E-4,-2.627563477E-2
2.035541446E1,3.087282181E-3,1.548737288E-3,-1.961231232E-2
2.037330759E1,5.784630775E-4,7.072329521E-3,-1.820945740E-2
2.039120328E1,8.033126593E-3,2.327978611E-3,-1.997756958E-2
2.040909762E1,-4.292041063E-3,2.509057522E-3,-2.734184265E-2
2.042698044E1,-2.281725407E-3,-3.474771976E-3,-1.972007751E-2
2.044488345E1,-2.965629101E-3,-5.125820637E-3,-2.755641937E-2
2.046276883E1,4.222214222E-3,-1.749396324E-4,-2.279949188E-2
2.048066348E1,1.596361399E-3,1.791059971E-3,-2.892684937E-2
2.049855728E1,5.541831255E-3,-2.003908157E-4,-1.957130432E-2
2.051646634E1,3.061443567E-3,-2.288669348E-3,-3.175258636E-2
2.053435770E1,2.263724804E-3,-3.007888794E-3,-3.054523468E-2
2.055225168E1,1.609325409E-4,3.836542368E-3,-1.521110535E-2
2.057014920E1,8.612275124E-3,3.682583570E-3,-2.993011475E-2
2.058804080E1,2.467483282E-3,9.541213512E-4,-1.808834076E-2
2.060593472E1,-5.413889885E-4,1.034438610E-4,-2.617645264E-2
2.062382614E1,7.040143013E-3,-2.445161343E-3,-2.650833130E-2
2.064171152E1,-1.660019159E-3,-6.020665169E-4,-2.870845795E-2
2.065961758E1,-6.836652756E-5,-1.321136951E-3,-2.454662323E-2
2.067751187E1,2.777904272E-3,1.016792655E-2,-2.941322327E-2
2.069540640E1,8.789300919E-4,-2.068519592E-3,-1.985549927E-2
2.071330368E1,1.358896494E-3,-4.615992308E-3,-1.764488220E-2
2.073119498E1,6.765425205E-3,1.700666547E-2,-3.087997437E-2
2.074908920E1,-1.838564873E-3,-3.760874271E-3,-2.709197998E-2
2.076697452E1,4.945665598E-3,-1.277402043E-2,-2.649116516E-2
2.078487540E1,1.045545936E-2,-3.942966461E-3,-2.166652679E-2
2.080277499E1,-1.279115677E-3,-1.010030508E-3,-2.624416351E-2
2.082066647E1,-3.453165293E-3,-1.764893532E-4,-2.423667908E-2
2.083856094E1,4.400342703E-3,1.070526242E-2,-1.407051086E-2
2.085645505E1,1.929759979E-3,7.824003696E-3,-2.561569214E-2
2.087434927E1,7.943481207E-3,3.797769547E-3,-3.422832489E-2
2.089224362E1,8.008271456E-3,-7.088720798E-3,-2.532577515E-2
2.091013711E1,2.966940403E-3,-1.215755939E-3,-2.266502380E-2
2.092803244E1,1.866579056E-3,7.701516151E-4,-2.199649811E-2
2.094593466E1,7.131755352E-3,-8.346796036E-3,-2.812004089E-2
2.096381845E1,9.129136801E-3,-7.002651691E-4,-2.520179749E-2
2.098171750E1,8.258551359E-3,-2.440571785E-3,-3.162479401E-2
2.099960934E1,-2.256542444E-3,3.950208426E-3,-2.068996429E-2
2.101750351E1,2.281069756E-4,1.266598701E-5,-3.027534485E-2
2.103539810E1,4.141598940E-3,-3.113567829E-3,-2.388954163E-2
2.105329251E1,-1.465827227E-3,4.240870476E-3,-2.944183350E-2
2.107118667E1,4.609405994E-3,2.950191498E-3,-1.583290100E-2
2.108908096E1,-2.931356430E-3,3.346085548E-3,-1.616287231E-2
2.110698080E1,3.191053867E-3,-3.768533468E-3,-2.802276611E-2
2.112486954E1,-2.457529306E-3,-1.582473516E-3,-2.941513062E-2
2.114276688E1,6.318092346E-6,-2.183556557E-3,-1.708984375E-2
2.116065811E1,-4.622340202E-4,-1.696795225E-3,-2.292633057E-2
2.117855258E1,-1.912653446E-3,-2.929300070E-3,-2.161884308E-2
2.119644675E1,5.311399698E-3,2.547919750E-3,-2.378749847E-2
2.121434091E1,-1.685619354E-4,-1.558363438E-4,-2.466583252E-2
2.123223532E1,-5.705356598E-4,-7.605254650E-4,-2.885532379E-2
2.125012961E1,6.975859404E-3,2.882182598E-4,-3.026676178E-2
2.126802414E1,2.813220024E-3,8.407115936E-3,-2.484416962E-2
2.128590787E1,1.434236765E-3,5.562663078E-3,-2.288341522E-2
2.130380972E1,-8.950948715E-3,3.431439400E-4,-1.729869843E-2
2.132170669E1,-3.853738308E-3,7.665753365E-4,-2.251815796E-2
2.133960116E1,-7.228553295E-4,8.242726326E-4,-2.510452271E-2
2.135749533E1,3.436625004E-3,1.279264688E-3,-2.182388306E-2
2.137538986E1,3.678768873E-3,6.306141615E-3,-3.257656097E-2
2.139328409E1,-1.718789339E-3,-5.650520325E-5,-2.601432800E-2
2.141117844E1,2.141654491E-3,6.124705076E-3,-2.416133881E-2
2.142907272E1,1.033782959E-3,-2.253055573E-3,-1.973724365E-2
2.144695767E1,1.566410065E-3,-2.040892839E-3,-2.876663208E-2
2.146486117E1,-1.816362143E-3,-3.747642040E-3,-2.814960480E-2
2.148275821E1,3.686487675E-3,4.813969135E-4,-2.349758148E-2
2.150064987E1,1.208630204E-2,1.567542553E-3,-2.452182770E-2
2.151854410E1,8.861035109E-3,-1.612216234E-3,-1.636791229E-2
2.153643844E1,7.533133030E-4,-3.047943115E-3,-1.791286469E-2
2.155433292E1,6.278157234E-3,-6.913244724E-4,-3.565788269E-2
2.157221890E1,8.656531572E-3,1.697838306E-3,-2.599906921E-2
2.159012131E1,2.765595913E-3,-3.832697868E-3,-2.445220947E-2
2.160801578E1,2.294331789E-3,2.180606127E-3,-2.283287048E-2
2.162590488E1,-3.892809153E-3,3.866046667E-3,-2.583122253E-2
2.164380112E1,8.900761604E-4,-7.862448692E-4,-2.122879028E-2
2.166169839E1,-1.888751984E-3,-1.659989357E-4,-2.810764313E-2
2.167959292E1,4.448205233E-3,-2.885371447E-3,-1.743030548E-2
2.169748727E1,-2.489447594E-3,-4.556894302E-3,-2.837276459E-2
2.171538229E1,7.323622704E-4,-1.038849354E-3,-2.576732635E-2
2.173327585E1,-3.304332495E-3,-5.725324154E-4,-2.326488495E-2
2.175117013E1,-2.450406551E-3,2.150684595E-3,-2.349090576E-2
2.176906125E1,5.033582449E-3,2.953529358E-3,-2.641010284E-2
2.178694980E1,-4.278510809E-3,-5.534052849E-3,-2.371692657E-2
2.180485293E1,3.182649612E-3,-6.593495607E-3,-2.458858490E-2
2.182275033E1,4.641801119E-3,-7.083982229E-3,-2.155113220E-2
2.184064151E1,2.146601677E-3,-3.909707069E-3,-3.515148163E-2
2.185853574E1,-1.859039068E-3,-5.903244019E-4,-2.812099457E-2
2.187643008E1,1.227229834E-3,3.569602966E-3,-1.908111572E-2
2.189432437E1,5.446523428E-3,-3.936886787E-5,-2.711200714E-2
2.191221957E1,1.999676228E-3,-1.943528652E-3,-1.843738556E-2
2.193011294E1,3.689020872E-3,5.768120289E-3,-2.788257599E-2
2.194800442E1,-7.815063000E-3,-2.025693655E-3,-2.288055420E-2
2.196589859E1,1.644611359E-3,7.310569286E-3,-3.278446198E-2
2.198379312E1,5.888789892E-3,5.116105080E-3,-2.904605865E-2
2.200169040E1,3.069311380E-3,-2.797663212E-3,-1.981830597E-2
2.201958462E1,1.560837030E-3,-5.779564381E-4,-1.571750641E-2
2.203746866E1,-6.011128426E-4,-1.907736063E-3,-2.483940125E-2
2.205537045E1,3.667533398E-3,-9.804069996E-4,-3.160095215E-2
2.207326755E1,1.399278641E-3,2.853780985E-3,-2.349472046E-2
2.209116183E1,3.278106451E-3,-2.933621407E-3,-2.645778656E-2
2.210904410E1,9.060323238E-3,1.350641251E-3,-2.525234222E-2
2.212694174E1,4.883706570E-3,4.453569651E-3,-2.507209778E-2
2.214484463E1,6.686747074E-4,3.226250410E-3,-2.809143066E-2
2.216274197E1,6.834805012E-3,-2.194821835E-3,-2.756500244E-2
2.218063351E1,9.714394808E-3,-2.893149853E-3,-3.099441528E-2
2.219852743E1,2.147197723E-3,4.599303007E-3,-2.189636230E-2
2.221641983E1,4.644185305E-3,-2.756804228E-3,-2.911758423E-2
2.223431631E1,3.436744213E-3,4.981219769E-3,-2.022266388E-2
2.225221036E1,3.713965416E-4,1.156747341E-3,-1.695156097E-2
2.227010519E1,1.484662294E-3,3.875792027E-4,-2.613449097E-2
2.228799954E1,1.668930054E-6,-3.565758467E-3,-2.528381348E-2
2.230587820E1,-9.655058384E-4,-4.310429096E-3,-3.459644318E-2
2.232378482E1,9.511500597E-3,2.722024918E-3,-1.864242554E-2
2.234168198E1,7.886677980E-3,3.393799067E-3,-1.858043671E-2
2.235957626E1,7.923841476E-4,1.854300499E-4,-2.972888947E-2
2.237747073E1,7.179468870E-3,3.399193287E-3,-1.699447632E-2
2.239536496E1,5.835473537E-3,1.529276371E-3,-1.929759979E-2
2.241326034E1,4.631072283E-3,1.939088106E-3,-2.484989166E-2
2.243115353E1,1.584172249E-3,3.700554371E-4,-1.611518860E-2
2.244904800E1,2.790719271E-3,4.433095455E-3,-2.419567108E-2
2.246693149E1,-3.614693880E-3,1.781284809E-4,-2.463150024E-2
2.248483694E1,-4.239678383E-4,3.872960806E-3,-2.248668671E-2
2.250273282E1,4.482388496E-3,6.519228220E-3,-1.427364349E-2
2.252062515E1,1.934617758E-3,-2.995699644E-3,-2.166175842E-2
2.253851944E1,-4.548847675E-3,-1.866877079E-3,-2.581977844E-2
2.255639914E1,4.081308842E-3,-2.362251282E-3,-2.079391479E-2
2.257430801E1,3.716647625E-3,-1.476436853E-3,-2.128887177E-2
2.259220230E1,9.131103754E-3,-9.455442429E-3,-1.989269257E-2
2.261009659E1,1.754850149E-3,-3.820955753E-3,-2.692699432E-2
2.262799118E1,2.857685089E-3,-8.043020964E-3,-3.170013428E-2
2.264588528E1,2.261489630E-3,-9.767115116E-4,-2.206516266E-2
2.266377646E1,2.469807863E-3,-9.432166815E-3,-3.002834320E-2
2.268166324E1,-1.330316067E-3,-1.332730055E-3,-2.680683136E-2
2.269956796E1,7.976561785E-3,-3.770619631E-3,-2.549934387E-2
2.271746231E1,-1.775026321E-4,-3.150105476E-5,-2.634620667E-2
2.273535684E1,4.803746939E-3,-3.059506416E-4,-2.419376373E-2
2.275325119E1,7.949262857E-3,-1.038059592E-2,-2.243041992E-2
2.277113345E1,-1.701325178E-3,-6.289184093E-3,-3.041458130E-2
2.278903970E1,3.904521465E-3,-2.226591110E-3,-2.800083160E-2
2.280692660E1,7.217675447E-3,1.657634974E-3,-3.684806824E-2
2.282482535E1,4.969865084E-3,-3.059178591E-3,-2.127075195E-2
2.284272714E1,4.903197289E-3,-2.877146006E-3,-3.090667725E-2
2.286061691E1,5.182445049E-3,-1.093024015E-2,-2.500438690E-2
2.287851114E1,-5.009680986E-3,-9.462147951E-3,-2.439403534E-2
2.289640549E1,3.139436245E-3,-5.592793226E-3,-2.836322784E-2
2.291429971E1,3.316640854E-3,-4.158675671E-3,-2.303791046E-2
2.293219406E1,3.016382456E-3,1.355171204E-3,-2.507400513E-2
2.295008853E1,9.931951761E-3,-1.101818681E-2,-1.911067963E-2
2.296797879E1,3.284215927E-5,2.670377493E-3,-2.020645142E-2
2.298587710E1,-3.297626972E-3,1.728326082E-3,-2.652549744E-2
2.300376840E1,4.726588726E-3,-1.438766718E-3,-2.089405060E-2
2.302166855E1,1.247656345E-2,-4.780560732E-3,-2.843666077E-2
2.303955990E1,5.628615618E-3,-2.228915691E-4,-2.092838287E-2
2.305744260E1,1.723170280E-3,-3.576636314E-3,-2.138710022E-2
2.307534860E1,1.756101847E-3,4.660815001E-3,-2.227973938E-2
2.309324289E1,8.045196533E-3,-9.855031967E-4,-2.640342712E-2
2.311114010E1,1.787602901E-3,-3.946721554E-3,-2.610874176E-2
2.312903146E1,4.198223352E-3,2.673864365E-4,-2.640151978E-2
2.314692630E1,3.925323486E-3,-7.128924131E-3,-3.399276733E-2
2.316481723E1,-6.031185389E-3,-9.298980236E-3,-1.671600342E-2
2.318271756E1,2.689212561E-3,-1.699805260E-3,-2.299213409E-2
2.320060886E1,6.148219109E-4,6.577670574E-4,-2.083778381E-2
2.321850302E1,5.340546370E-3,-4.467993975E-3,-2.053833008E-2
2.323638138E1,-2.166032791E-3,-6.532490253E-3,-1.688385010E-2
2.325429172E1,2.517431974E-3,-4.674494267E-3,-3.253650665E-2
2.327218307E1,-2.330809832E-3,-2.014040947E-4,-1.846218109E-2
2.329008023E1,4.992842674E-3,-1.978516579E-3,-2.508544922E-2
2.330797476E1,3.196477890E-3,-4.678905010E-3,-1.627349854E-2
2.332586905E1,-2.009510994E-3,-2.205997705E-3,-2.137279510E-2
2.334376016E1,4.644423723E-3,-7.125854492E-3,-2.202510834E-2
2.336165738E1,3.968685865E-3,-7.266968489E-3,-2.367687225E-2
2.337955166E1,1.090228558E-2,-9.873807430E-4,-2.796268463E-2
2.339744620E1,-1.002877951E-3,-6.553411484E-3,-2.493667603E-2
2.341534054E1,1.726806164E-3,-2.228945494E-3,-2.052021027E-2
2.343323270E1,8.055269718E-3,-1.556664705E-3,-3.065586090E-2
2.345112912E1,8.372962475E-4,4.968523979E-3,-3.217124939E-2
2.346902365E1,1.549214125E-3,-1.382261515E-3,-1.973438263E-2
2.348690158E1,3.127455711E-4,2.784162760E-3,-2.000141144E-2
2.350480899E1,-3.011286259E-3,-6.438344717E-3,-2.172756195E-2
2.352270737E1,1.182973385E-3,-5.818307400E-3,-2.898788452E-2
2.354060049E1,5.202382803E-3,-1.396715641E-3,-2.783107758E-2
2.355849496E1,5.014508963E-3,-1.822173595E-3,-2.669715881E-2
2.357639218E1,-2.807140350E-3,2.035498619E-4,-2.793693542E-2
2.359428335E1,1.736372709E-3,-5.725920200E-4,-2.202415466E-2
2.361217001E1,8.518218994E-3,-4.023909569E-4,-2.334117889E-2
2.363007193E1,-4.574656487E-5,-3.147423267E-4,-3.237724304E-2
2.364796298E1,-1.511573792E-4,-9.321570396E-4,-1.970481873E-2
2.366586075E1,-3.746479750E-3,-9.962916374E-5,-2.561187744E-2
2.368375510E1,-1.841932535E-3,1.800030470E-3,-1.703739166E-2
2.370164572E1,9.890794754E-4,-7.277429104E-4,-1.832008362E-2
2.371953476E1,6.479859352E-3,-7.088005543E-3,-2.233219147E-2
2.373742587E1,1.059067249E-2,-6.248950958E-4,-2.320671082E-2
2.375533218E1,2.012133598E-3,-2.178341150E-3,-2.160167694E-2
2.377321207E1,-3.181695938E-4,-5.784422159E-3,-2.718639374E-2
2.379112082E1,2.877801657E-3,-4.325509071E-4,-2.453613281E-2
2.380901535E1,1.480013132E-3,1.959800720E-4,-1.450824738E-2
2.382689761E1,2.383768559E-3,2.077490091E-3,-2.749252319E-2
2.384480093E1,3.174096346E-3,1.249283552E-3,-2.522087097E-2
2.386270242E1,7.201194763E-3,3.972649574E-4,-2.357387543E-2
2.388059250E1,7.303893566E-3,-7.067173719E-3,-3.265953064E-2
2.389848672E1,7.926106453E-3,6.901204586E-3,-2.172756195E-2
2.391638101E1,6.343066692E-3,1.666843891E-4,-1.419830322E-2
2.393427536E1,7.790774107E-3,-4.744142294E-3,-2.709865570E-2
2.395216965E1,8.751749992E-4,-1.569896936E-3,-2.451038361E-2
2.397006387E1,-3.952682018E-4,4.068315029E-4,-2.734470367E-2
2.398795846E1,7.143318653E-3,-2.846419811E-3,-2.325057983E-2
2.400585269E1,-1.326203346E-4,2.779424191E-3,-1.861095428E-2
2.402374356E1,2.643376589E-3,-6.193667650E-3,-1.315593719E-2
2.404164468E1,-1.281261444E-3,-3.754585981E-3,-2.496910095E-2
2.405953854E1,8.674472570E-3,-4.669934511E-3,-2.431964874E-2
2.407742984E1,7.046133280E-3,-3.546178341E-4,-2.023887634E-2
2.409532449E1,2.759039402E-3,-4.158943892E-3,-2.992725372E-2
2.411321841E1,-1.731455326E-3,1.176774502E-3,-2.651405334E-2
2.413111276E1,3.099888563E-3,-2.270072699E-3,-3.127670288E-2
2.414900729E1,-3.004968166E-4,-3.009021282E-3,-2.507305145E-2
2.416688632E1,5.281329155E-3,2.516508102E-3,-3.005695343E-2
2.418479257E1,6.273210049E-3,1.410245895E-3,-2.902507782E-2
2.420269211E1,4.973262548E-3,-4.522651434E-3,-2.737426758E-2
2.422058444E1,-1.515090466E-3,1.369416714E-3,-3.159999847E-2
2.423847861E1,-2.763897181E-3,-5.658715963E-3,-3.556251526E-2
2.425637277E1,-3.612518311E-3,-3.385126591E-3,-2.815818787E-2
2.427425528E1,5.813419819E-3,8.377522230E-3,-2.660179138E-2
2.429216153E1,1.741409302E-3,-5.043655634E-3,-2.299022675E-2
2.431005594E1,6.053924561E-3,-5.171626806E-3,-3.367042542E-2
2.432795016E1,6.558597088E-4,-6.306827068E-3,-2.650260925E-2
2.434584439E1,4.716724157E-3,-6.453096867E-4,-2.575206757E-2
2.436373739E1,-5.213320255E-4,-3.824353218E-3,-2.266311646E-2
2.438163303E1,8.882284164E-4,-2.804398537E-3,-3.142642975E-2
2.439952725E1,4.684805870E-3,-5.919128656E-3,-1.563072205E-2
2.441742325E1,6.091088057E-3,4.527568817E-4,-2.116775513E-2
2.443530215E1,8.268564939E-3,1.565217972E-3,-2.981758118E-2
2.445321011E1,5.873680115E-3,-3.007620573E-3,-2.472496033E-2
2.447110470E1,-9.971857071E-5,1.024156809E-3,-2.582359314E-2
2.448899905E1,9.773373604E-4,9.668767452E-4,-2.216434479E-2
2.450689041E1,9.158849716E-3,3.918707371E-4,-2.904415131E-2
2.452478464E1,4.708617926E-3,2.158492804E-3,-3.502655029E-2
2.454268314E1,-2.267658710E-3,-2.226829529E-4,-3.783988953E-2
2.456057614E1,-2.364307642E-3,1.854211092E-3,-3.273105621E-2
2.457847031E1,4.509717226E-3,8.211076260E-3,-2.721786499E-2
2.459636478E1,8.264183998E-4,-5.287498236E-3,-2.815151215E-2
2.461425888E1,2.326071262E-4,-5.581974983E-4,-1.965427399E-2
2.463215024E1,2.003639936E-3,-7.781386375E-5,-2.725124359E-2
2.465004758E1,-2.531528473E-3,8.600652218E-4,-1.893329620E-2
2.466794186E1,-1.725554466E-4,2.460777760E-4,-2.502727509E-2
2.468583621E1,-8.806526661E-3,-3.284573555E-3,-3.254604340E-2
2.470372708E1,-2.549111843E-3,-2.884864807E-5,-2.345561981E-2
2.472162466E1,3.003299236E-3,3.874182701E-3,-3.006267548E-2
2.473951889E1,2.310514450E-3,-3.284424543E-3,-2.818775177E-2
2.475741348E1,5.747139454E-3,-1.372975111E-2,-3.250217438E-2
2.477530911E1,-4.946619272E-3,-1.192444563E-2,-2.574920654E-2
2.479320206E1,-4.791498184E-3,-3.473937511E-3,-1.417446136E-2
2.481109646E1,-5.241930485E-4,-1.261204481E-3,-1.902866364E-2
2.482899069E1,9.307265282E-5,-7.731050253E-3,-3.108596802E-2
2.484687295E1,-1.533150673E-3,1.926511526E-3,-3.019428253E-2
2.486477664E1,-2.076208591E-3,-1.853197813E-3,-3.324317932E-2
2.488267648E1,-4.543095827E-3,-9.474545717E-3,-2.218627930E-2
2.490055746E1,6.930321455E-3,9.984672070E-4,-3.099441528E-2
2.491846231E1,2.498060465E-3,5.606383085E-3,-2.712249756E-2
2.493635629E1,4.158377647E-3,3.184080124E-3,-3.104591370E-2
2.495425064E1,-2.815246582E-3,-2.610266209E-3,-2.316951752E-2
2.497214523E1,-1.903086901E-3,3.199636936E-3,-2.727794647E-2
2.499003952E1,-1.821845770E-3,4.534542561E-3,-3.151988983E-2
2.500793075E1,2.783089876E-3,-3.085851669E-3,-2.666187286E-2
2.502582803E1,7.328391075E-5,2.206414938E-3,-2.947330475E-2
2.504371914E1,6.778836250E-4,-8.033812046E-4,-2.862453461E-2
2.506161642E1,-6.133019924E-4,2.764344215E-3,-2.380752563E-2
2.507951065E1,-2.237021923E-3,-2.910822630E-3,-2.491950989E-2
2.509740225E1,-6.143450737E-3,2.008378506E-4,-3.319168091E-2
2.511529953E1,4.190981388E-3,-3.466606140E-3,-2.130603790E-2
2.513319382E1,4.777342081E-3,-4.021018744E-3,-2.645683289E-2
2.515108810E1,-3.985166550E-4,2.737045288E-3,-2.922821045E-2
2.516898233E1,4.343628883E-3,1.499444246E-3,-1.927185059E-2
2.518686471E1,2.181351185E-3,-3.949999809E-4,-1.709938049E-2
2.520476803E1,-6.010830402E-4,-4.249393940E-3,-2.191925049E-2
2.522266824E1,-2.741724253E-3,-5.100876093E-3,-2.973937988E-2
2.524055978E1,-3.292858601E-3,-7.213264704E-3,-2.153396606E-2
2.525845370E1,-3.862500191E-3,-7.754176855E-3,-1.805019379E-2
2.527635129E1,-2.505898476E-3,1.964151859E-3,-3.518772125E-2
2.529424264E1,-9.382367134E-4,-4.096120596E-3,-2.695083618E-2
2.531213687E1,5.325853825E-3,-3.068447113E-3,-2.768230438E-2
2.533003091E1,1.488476992E-3,5.579799414E-3,-1.308631897E-2
2.534792557E1,3.131926060E-4,-1.158416271E-3,-2.259731293E-2
2.536580777E1,-1.405149698E-3,3.035366535E-3,-2.210903168E-2
2.538371109E1,1.069009304E-4,3.162711859E-3,-2.364253998E-2
2.540160806E1,1.812309027E-3,-5.104631186E-3,-2.652931213E-2
2.541950259E1,-2.438187599E-3,-8.952021599E-4,-2.510166168E-2
2.543739682E1,3.427177668E-3,1.402109861E-3,-1.795291901E-2
2.545529123E1,6.646692753E-3,-5.022585392E-4,-3.327465057E-2
2.547318545E1,3.653377295E-3,-1.034739614E-2,-2.705860138E-2
2.549107980E1,-5.177557468E-4,-1.283705235E-3,-3.167438507E-2
2.550897439E1,2.728164196E-3,-2.930462360E-4,-2.693080902E-2
2.552685611E1,3.010272980E-3,-1.232036948E-2,-2.205371857E-2
2.554475961E1,-3.596663475E-3,-8.025467396E-4,-2.660465240E-2
2.556265982E1,-1.842617989E-3,-1.942008734E-3,-1.568984985E-2
2.558055142E1,1.920908689E-3,4.643350840E-3,-2.564239502E-2
2.559844540E1,-2.394914627E-4,-1.946359873E-3,-2.588939667E-2
2.561633987E1,-2.122461796E-3,-1.451700926E-3,-2.379035950E-2
2.563423410E1,1.851856709E-3,-3.021717072E-3,-1.409912109E-2
2.565212857E1,-2.484649420E-3,-6.349325180E-3,-1.617717743E-2
2.567002286E1,1.148134470E-3,-4.132390022E-3,-2.204227448E-2
2.568791720E1,4.144042730E-3,-1.727253199E-3,-2.158641815E-2
2.570581448E1,2.562761307E-3,2.863526344E-3,-1.995086670E-2
2.572370389E1,3.126025200E-3,-6.537735462E-3,-2.566337585E-2
2.574158536E1,-1.634269953E-3,1.586198807E-3,-2.524471283E-2
2.575949429E1,1.093119383E-3,-1.308172941E-3,-2.553653717E-2
2.577739090E1,-7.685422897E-4,-3.651469946E-3,-2.478981018E-2
2.579528299E1,1.520216465E-4,1.941084862E-3,-1.656818390E-2
2.581317721E1,2.886176109E-3,-3.433734179E-3,-2.674770355E-2
2.583106595E1,-3.287404776E-3,-6.669223309E-3,-2.987575531E-2
2.584896603E1,-1.975893974E-5,1.537531614E-3,-2.386951447E-2
2.586684421E1,-1.116901636E-3,-2.685815096E-3,-2.419853210E-2
2.588475192E1,1.956343651E-3,-3.096163273E-4,-2.851200104E-2
2.590264957E1,4.773914814E-3,-3.549486399E-3,-1.816749573E-2
2.592054288E1,5.834490061E-3,-6.747901440E-3,-2.308273315E-2
2.593843710E1,1.057624817E-3,-1.206028461E-2,-2.367210388E-2
2.595633151E1,-4.211097956E-3,-9.180009365E-4,-3.049182892E-2
2.597422604E1,1.362621784E-3,2.921700478E-3,-3.177738190E-2
2.599212027E1,6.857961416E-3,4.270255566E-3,-1.847648621E-2
2.601000259E1,2.673327923E-3,-3.126293421E-3,-2.361106873E-2
2.602790884E1,-5.532473326E-3,-1.467376947E-3,-2.264499664E-2
2.604580020E1,-1.370459795E-3,-1.627922058E-3,-2.915382385E-2
2.606369766E1,-4.833728075E-3,-3.083229065E-3,-2.036952972E-2
2.608159567E1,-1.528054476E-3,-1.004040241E-2,-2.476215363E-2
2.609948575E1,-1.271575689E-3,7.523596287E-4,-2.563667297E-2
2.611738028E1,6.171405315E-3,1.804798841E-3,-2.802181244E-2
2.613527463E1,-2.351909876E-3,4.045963287E-4,-2.946186066E-2
2.615316891E1,-3.961324692E-3,-4.925549030E-3,-1.746940613E-2
2.617106619E1,-5.396097898E-3,3.094702959E-3,-2.087688446E-2
2.618895749E1,-7.227152586E-3,-2.707958221E-3,-2.323913574E-2
2.620683896E1,2.964437008E-4,1.732379198E-3,-2.174663544E-2
2.622474295E1,5.778282881E-3,-3.482967615E-3,-2.772045135E-2
2.624263907E1,3.902196884E-3,-5.450516939E-3,-3.254508972E-2
2.626053464E1,5.964070559E-3,-7.467955351E-3,-1.992797852E-2
2.627842892E1,5.130559206E-3,-7.163614035E-3,-2.541065216E-2
2.629630820E1,-5.223512650E-3,-1.824527979E-3,-2.294540405E-2
2.631422037E1,1.801759005E-3,-6.890892982E-3,-2.289962769E-2
2.633211178E1,6.161391735E-3,-1.198381186E-3,-2.005767822E-2
2.635000632E1,-1.505017281E-3,-9.457290173E-3,-2.462291718E-2
2.636790060E1,-1.870572567E-3,-3.888785839E-3,-2.862644196E-2
2.638579465E1,1.338958740E-3,-8.561462164E-3,-1.957511902E-2
2.640369174E1,1.208144426E-2,2.689570189E-3,-2.862834930E-2
2.642158346E1,-4.146307707E-3,-5.331844091E-3,-2.069377899E-2
2.643947775E1,2.555400133E-3,-8.537650108E-3,-2.023220062E-2
2.645737173E1,2.335309982E-4,1.980364323E-4,-2.812099457E-2
2.647526633E1,1.556485891E-3,-4.245936871E-4,-1.971912384E-2
2.649316055E1,-8.697122335E-3,-1.580297947E-3,-1.678752899E-2
2.651105490E1,-9.081155062E-3,-3.816723824E-3,-1.734352112E-2
2.652894937E1,4.137992859E-3,-2.998888493E-3,-3.088569641E-2
2.654683987E1,-5.543142557E-3,-6.658136845E-3,-2.490806580E-2
2.656473489E1,-5.871057510E-6,-8.690834045E-3,-2.615261078E-2
2.658263608E1,5.585104227E-3,-5.083084106E-3,-2.561664581E-2
2.660052634E1,5.027711391E-3,-5.342155695E-3,-2.046489716E-2
2.661842056E1,8.876621723E-3,-4.615217447E-3,-2.829456329E-2
2.663631644E1,-1.021653414E-3,2.593159676E-3,-1.740837097E-2
2.665420920E1,2.606034279E-3,-7.268399000E-3,-2.696990967E-2
2.667210330E1,6.622850895E-3,-2.348542213E-3,-2.814579010E-2
2.668999777E1,1.460254192E-3,2.537488937E-3,-2.364063263E-2
2.670789230E1,-3.405719995E-3,-3.490865231E-3,-2.685260773E-2
2.672578622E1,-3.632903099E-5,1.045882702E-3,-2.285671234E-2
2.674367746E1,-4.150450230E-3,-1.173207164E-2,-2.480316162E-2
2.676157260E1,7.319599390E-3,-2.053946257E-3,-3.107547760E-2
2.677946908E1,3.357946873E-3,-6.151765585E-3,-2.678203583E-2
2.679736349E1,2.453029156E-4,-9.535282850E-3,-2.400588989E-2
2.681526083E1,-7.954239845E-5,-9.513914585E-3,-2.224731445E-2
2.683315201E1,-1.050570607E-2,-1.420199871E-3,-2.578639984E-2
2.685104660E1,7.130295038E-3,-8.345842361E-4,-2.839279175E-2
2.686894095E1,6.964534521E-3,9.994506836E-4,-2.061271667E-2
2.688683298E1,1.879900694E-3,-4.259049892E-4,-2.471733093E-2
2.690472934E1,1.638233662E-3,-3.742694855E-3,-1.658535004E-2
2.692260739E1,5.859732628E-4,-7.144629955E-3,-2.437973022E-2
2.694050601E1,-3.140240908E-3,3.190785646E-3,-1.767063141E-2
2.695840024E1,-3.862977028E-3,-6.849020720E-3,-2.639865875E-2
2.697630960E1,1.823127270E-3,-5.318671465E-3,-2.962875366E-2
2.699420077E1,-5.371868610E-4,-5.769133568E-3,-2.523040771E-2
2.701209378E1,-4.078060389E-3,-3.502368927E-4,-3.162002563E-2
2.702997769E1,9.900629520E-3,-2.796560526E-3,-1.700973511E-2
2.704787228E1,-3.942817450E-3,-4.499286413E-3,-1.281452179E-2
2.706577804E1,-6.011635065E-3,-1.822710037E-4,-2.758312225E-2
2.708367123E1,4.376441240E-3,-9.020149708E-3,-2.549743652E-2
2.710156656E1,2.308338881E-3,4.466831684E-3,-2.485275269E-2
2.711946084E1,7.528066635E-5,-7.122159004E-3,-2.215099335E-2
2.713735641E1,8.994221687E-3,-2.453207970E-3,-2.958106995E-2
2.715524948E1,-1.664966345E-3,2.667814493E-3,-2.205181122E-2
2.717314395E1,1.664042473E-3,-7.992684841E-4,-3.036785126E-2
2.719103805E1,-7.995367050E-4,2.327561378E-5,-2.466201782E-2
2.720893234E1,3.671437502E-3,1.504778862E-3,-2.458477020E-2
2.722681412E1,6.027817726E-3,-1.822322607E-3,-2.141666412E-2
2.724471841E1,1.814633608E-3,-4.460304976E-3,-2.337169647E-2
2.726261520E1,-1.353174448E-3,3.269553185E-3,-1.911926270E-2
2.728050949E1,4.443049431E-3,-2.296894789E-3,-2.853775024E-2
2.729840372E1,-4.509180784E-3,1.417994499E-3,-1.831340790E-2
2.731629806E1,-9.112954140E-4,-3.567516804E-3,-2.836894989E-2
2.733419229E1,-7.204413414E-4,4.943042994E-3,-2.495479584E-2
2.735208658E1,2.128750086E-3,4.070460796E-3,-2.439880371E-2
2.736998239E1,-2.112448215E-3,-1.084595919E-3,-1.884651184E-2
2.738787546E1,1.040786505E-3,-5.081385374E-3,-2.006912231E-2
2.740575259E1,-6.490528584E-3,-2.701550722E-3,-2.567958832E-2
2.742366379E1,7.857233286E-3,-5.141496658E-4,-3.160953522E-2
2.744155801E1,-2.008855343E-3,3.611534834E-3,-2.712059021E-2
2.745945230E1,-6.212234497E-3,-5.905300379E-3,-1.960849762E-2
2.747734689E1,6.027191877E-3,2.864003181E-5,-1.287269592E-2
2.749522897E1,2.254724503E-3,-1.305431128E-3,-3.367328644E-2
2.751313522E1,-4.377335310E-3,-4.391014576E-3,-1.920986176E-2
2.753102969E1,-4.052370787E-3,7.353276014E-3,-2.714157104E-2
2.754892404E1,4.125565290E-3,-5.939900875E-4,-3.234004974E-2
2.756681613E1,-5.689829588E-3,-2.410173416E-3,-2.687549591E-2
2.758470932E1,-4.663109779E-3,-4.798263311E-3,-2.721118927E-2
2.760260525E1,-1.164495945E-3,-2.072453499E-4,-2.406120300E-2
2.762050088E1,5.375146866E-4,-2.676963806E-3,-2.800273895E-2
2.763839523E1,6.108582020E-4,5.189478397E-3,-3.122711182E-2
2.765628964E1,-6.783843040E-3,-2.504616976E-3,-3.122711182E-2
2.767418381E1,-1.326531172E-3,-1.672208309E-4,-2.447891235E-2
2.769207382E1,2.042472363E-3,3.022879362E-3,-2.994155884E-2
2.770997256E1,1.884967089E-3,3.039479256E-3,-2.688503265E-2
2.772786691E1,-2.591311932E-4,-2.524167299E-3,-2.356338501E-2
2.774576120E1,-1.333922148E-3,1.482248306E-3,-3.043746948E-2
2.776365524E1,-4.317849874E-3,4.869490862E-3,-2.968502045E-2
2.778154971E1,-3.257393837E-4,1.826584339E-4,-2.873039246E-2
2.779944406E1,1.055449247E-3,-1.880526543E-3,-2.910518646E-2
2.781733829E1,-8.634448051E-3,1.049399376E-3,-2.249908447E-2
2.783523318E1,6.390213966E-3,1.137197018E-3,-2.599620819E-2
2.785312686E1,1.220196486E-3,-1.576125622E-3,-2.927875519E-2
2.787100888E1,7.269382477E-4,5.865275860E-3,-2.901744843E-2
2.788891550E1,-2.651721239E-3,-1.852869987E-3,-2.993965149E-2
2.790679843E1,1.565515995E-4,-1.544862986E-3,-2.554321289E-2
2.792470102E1,2.324253321E-3,-3.929525614E-3,-1.990318298E-2
2.794259836E1,6.872892380E-3,3.176033497E-4,-3.665351868E-2
2.796049374E1,-5.508095026E-3,2.665042877E-3,-1.922988892E-2
2.797838687E1,5.713999271E-4,-9.562164545E-3,-1.903152466E-2
2.799628091E1,6.474792957E-3,5.931049585E-3,-3.857135773E-2
2.801417544E1,2.528786659E-3,-1.140832901E-3,-1.970100403E-2
2.803206979E1,6.128609180E-3,-7.096379995E-3,-2.453899384E-2
2.804996695E1,2.521336079E-3,1.278609037E-3,-3.502178192E-2
2.806785837E1,5.286186934E-3,1.446515322E-3,-2.233886719E-2
2.808575259E1,-1.761853695E-3,6.727874279E-4,-2.788448334E-2
2.810364694E1,2.254694700E-3,1.297891140E-3,-2.930641174E-2
2.812154117E1,-1.743674278E-3,1.763790846E-3,-2.949523926E-2
2.813943545E1,3.834009171E-3,1.294285059E-3,-3.294754028E-2
2.815732675E1,-2.439737320E-3,-5.646526814E-3,-3.469944000E-2
2.817522403E1,4.314631224E-3,-5.903393030E-3,-2.798557281E-2
2.819311832E1,6.109625101E-3,-2.432286739E-3,-1.284790039E-2
2.821101272E1,2.099037170E-3,6.034284830E-3,-2.569484711E-2
2.822890433E1,4.436552525E-3,-6.837993860E-3,-2.689647675E-2
2.824679599E1,2.488881350E-3,-7.120788097E-3,-2.905941010E-2
2.826469223E1,6.370306015E-3,-4.176467657E-3,-1.845550537E-2
2.828258981E1,-1.861572266E-3,-6.995230913E-3,-2.883529663E-2
2.830048709E1,2.968043089E-3,3.541558981E-3,-3.079319000E-2
2.831837832E1,1.216530800E-3,2.387851477E-3,-2.407932281E-2
2.833626962E1,2.725183964E-3,3.475397825E-3,-3.176975250E-2
2.835416696E1,2.944946289E-3,5.736827850E-3,-2.433776855E-2
2.837206119E1,-3.291219473E-3,1.795798540E-3,-2.291011810E-2
2.838995553E1,-2.480864525E-3,-2.011775970E-3,-2.907752991E-2
2.840785000E1,2.215832472E-3,5.345702171E-3,-3.038311005E-2
2.842572970E1,-7.295012474E-4,4.124611616E-3,-2.485084534E-2
2.844363846E1,2.129286528E-3,2.384394407E-3,-2.751922607E-2
2.846153268E1,3.160029650E-3,5.232065916E-3,-2.347469330E-2
2.847942697E1,-7.873773575E-5,1.630544662E-3,-2.153682709E-2
2.849732150E1,2.708822489E-3,-3.192573786E-3,-1.983261108E-2
2.851521554E1,6.764829159E-3,-2.592474222E-3,-2.171802521E-2
2.853310983E1,2.833157778E-3,3.011673689E-3,-2.654743195E-2
2.855100406E1,-3.530353308E-3,-7.523357868E-3,-1.425170898E-2
2.856889841E1,1.951515675E-3,6.033897400E-3,-1.928234100E-2
2.858677701E1,3.065019846E-3,-6.442517042E-3,-2.090644836E-2
2.860468393E1,1.070499420E-4,-4.840970039E-3,-3.356456757E-2
2.862258127E1,3.202676773E-3,-2.421647310E-3,-3.451538086E-2
2.864047549E1,-2.099692822E-3,-5.228668451E-3,-2.964687347E-2
2.865837070E1,-2.656877041E-4,-2.167373896E-3,-2.718639374E-2
2.867626443E1,-7.630228996E-3,-3.990709782E-3,-2.370262146E-2
2.869415207E1,6.017148495E-3,-2.166122198E-3,-2.354145050E-2
2.871205295E1,7.134467363E-3,7.173418999E-5,-2.167034149E-2
2.872994699E1,-3.585189581E-3,2.387791872E-3,-2.379226685E-2
2.874784128E1,8.130311966E-3,6.836950779E-4,-2.034378052E-2
2.876572116E1,-2.733796835E-3,-2.503395081E-5,-2.268028259E-2
2.878362985E1,-7.120519876E-3,1.366674900E-3,-2.846431732E-2
2.880152402E1,3.525316715E-4,-5.055606365E-3,-2.354335785E-2
2.881941836E1,4.677981138E-3,-1.232367754E-2,-2.585411072E-2
2.883731241E1,2.168208361E-3,-8.772760630E-3,-1.987648010E-2
2.885520694E1,-1.257896423E-3,-2.625435591E-3,-2.422428131E-2
2.887310098E1,3.087610006E-3,-1.713186502E-3,-2.899646759E-2
2.889099234E1,-3.054410219E-3,5.775302649E-3,-3.200817108E-2
2.890889010E1,1.996457577E-4,-4.349291325E-3,-2.420330048E-2
2.892678757E1,2.566635609E-3,1.523375511E-3,-2.201938629E-2
2.894467538E1,-6.614923477E-4,-1.778423786E-3,-2.656555176E-2
2.896257266E1,-2.811759710E-3,6.056129932E-4,-2.298450470E-2
2.898046695E1,-2.850294113E-3,-6.132960320E-3,-2.458858490E-2
2.899836124E1,3.853291273E-3,5.988478661E-3,-1.505470276E-2
2.901625534E1,-2.026051283E-3,-5.553513765E-3,-2.302932739E-2
2.903414584E1,3.112584352E-3,7.400274277E-3,-1.978302002E-2
2.905204410E1,5.684494972E-4,-1.978576183E-3,-2.052021027E-2
2.906993814E1,1.221328974E-3,3.457337618E-3,-2.730178833E-2
2.908783273E1,-3.636300564E-3,-1.590549946E-3,-2.244472504E-2
2.910572696E1,-1.807570457E-3,-1.927316189E-4,-2.304077148E-2
2.912362131E1,1.542240381E-3,3.002136946E-3,-2.794837952E-2
2.914151535E1,6.216466427E-4,-5.544841290E-3,-1.914691925E-2
2.915939834E1,3.312557936E-3,4.263371229E-3,-2.518177032E-2
2.917730411E1,7.637113333E-3,-2.726376057E-3,-2.494049072E-2
2.919519821E1,-1.566708088E-4,5.909800529E-4,-3.129100800E-2
2.921309244E1,8.194953203E-3,-4.093676805E-3,-1.956462860E-2
2.923098739E1,-1.528859138E-5,-1.730322838E-4,-2.085208893E-2
2.924888132E1,3.515034914E-3,-6.792217493E-3,-2.166271210E-2
2.926676211E1,2.809464931E-4,-4.043102264E-3,-3.150367737E-2
2.928466684E1,3.962725401E-3,1.761585474E-3,-2.337455750E-2
2.930256412E1,2.744436264E-3,2.878397703E-3,-2.445030212E-2
2.932045840E1,3.976941109E-3,-8.728027344E-3,-2.646255493E-2
2.933835269E1,4.542171955E-4,3.390192986E-3,-1.869106293E-2
2.935624411E1,-4.770249128E-3,-6.477981806E-3,-1.225662231E-2
2.937414102E1,2.275556326E-3,-7.305473089E-3,-2.534103394E-2
2.939203531E1,-4.727840424E-4,-2.968043089E-3,-2.440547943E-2
2.940992978E1,9.774565697E-4,-1.305818558E-3,-2.157878876E-2
2.942782394E1,-3.286093473E-3,-6.869196892E-3,-1.541996002E-2
2.944571811E1,7.333755493E-4,-3.267794847E-3,-2.357006073E-2
2.946361252E1,4.560172558E-3,5.015730858E-4,-2.769947052E-2
2.948150705E1,-1.472860575E-3,-7.229745388E-3,-2.195167542E-2
2.949940195E1,-1.898407936E-4,1.065105200E-3,-1.897907257E-2
2.951729562E1,3.273099661E-3,-8.605927229E-3,-2.508068085E-2
2.953516934E1,5.247890949E-4,-9.623944759E-3,-1.515388489E-2
2.955308389E1,8.062720299E-4,4.297047853E-3,-2.495574951E-2
2.957097824E1,-3.566324711E-3,-3.508657217E-3,-1.697635651E-2
2.958887283E1,1.075297594E-3,-6.924837828E-3,-2.304077148E-2
2.960676694E1,1.664072275E-3,-8.903145790E-3,-2.519130707E-2
2.962464523E1,5.534291267E-4,1.351594925E-3,-2.387714386E-2
2.964255539E1,4.741251469E-4,-2.186447382E-3,-2.864742279E-2
2.966044968E1,2.812981606E-3,-1.882612705E-3,-1.980209351E-2
2.967834384E1,-1.050889492E-3,5.384206772E-3,-2.031993866E-2
2.969623825E1,-6.612241268E-4,3.224611282E-5,-3.212070465E-2
2.971413248E1,2.409815788E-4,-3.033846617E-3,-2.957725525E-2
2.973202481E1,4.664689302E-3,-6.166100502E-5,-1.890373230E-2
2.974992111E1,1.134574413E-4,-3.290981054E-3,-2.067565918E-2
2.976780374E1,3.765732050E-3,-7.629573345E-3,-2.642726898E-2
2.978570962E1,4.486799240E-3,-4.491716623E-3,-2.639675140E-2
2.980360397E1,-9.018778801E-4,-3.033250570E-3,-2.701663971E-2
2.982149789E1,4.423618317E-3,-6.265729666E-3,-2.242183685E-2
2.983939248E1,5.016922951E-4,-7.008105516E-3,-3.282451630E-2
2.985728677E1,2.606719732E-3,1.080602407E-3,-2.012157440E-2
2.987518204E1,2.405673265E-3,-7.846534252E-3,-1.827049255E-2
2.989307510E1,2.816528082E-3,8.232295513E-4,-2.095127106E-2
2.991096969E1,1.402020454E-3,-4.478871822E-3,-3.431892395E-2
2.992886398E1,-2.289682627E-3,-7.691532373E-3,-2.924537659E-2
2.994675821E1,4.938870668E-3,-4.861712456E-3,-1.885986328E-2
2.996465121E1,-1.409322023E-3,-1.556158066E-3,-1.920986176E-2
2.998254684E1,7.678568363E-4,-2.905935049E-3,-2.450370789E-2
3.000043960E1,-1.940310001E-3,-5.314141512E-3,-3.087711334E-2
3.001833511E1,4.278510809E-3,1.784145832E-3,-3.098773956E-2
3.003622671E1,1.350820065E-3,-2.609908581E-3,-1.481342316E-2
3.005412668E1,4.861325026E-3,-5.217194557E-4,-2.515697479E-2
3.007201803E1,2.751976252E-3,4.683732986E-4,-3.470230103E-2
3.008991226E1,2.127557993E-3,-4.224956036E-3,-2.246379852E-2
3.010780685E1,5.114078522E-4,-3.444641829E-3,-3.207492828E-2
3.012570084E1,3.971725702E-3,1.191794872E-3,-2.197170258E-2
3.014358078E1,8.756339550E-3,-4.518032074E-3,-1.836299896E-2
3.016147757E1,5.459576845E-3,-4.412829876E-4,-2.440547943E-2
3.017937253E1,3.860652447E-3,-5.753487349E-3,-2.274513245E-2
3.019728122E1,1.081913710E-3,-4.905074835E-3,-3.315544128E-2
3.021517233E1,2.911448479E-3,-1.294404268E-3,-2.558040619E-2
3.023306662E1,-7.690489292E-4,-1.081764698E-3,-2.254009247E-2
3.025096091E1,-7.045030594E-3,-1.559317112E-3,-2.915573120E-2
3.026885812E1,-2.133309841E-3,-2.312064171E-4,-2.380371094E-2
3.028674972E1,-1.417011023E-3,-4.871636629E-3,-3.096771240E-2
3.030464072E1,-6.275504827E-3,-6.158828735E-3,-1.844596863E-2
3.032253805E1,1.412600279E-3,-3.110975027E-3,-1.612377167E-2
3.034043234E1,-1.929700375E-4,-2.327144146E-3,-1.902580261E-2
3.035832657E1,1.194626093E-3,1.628756523E-3,-1.807594299E-2
3.037622085E1,7.632076740E-4,-1.015764475E-2,-2.542209625E-2
3.039411520E1,5.185037851E-3,-3.593415022E-3,-1.656627655E-2
3.041200949E1,-1.195758581E-3,-3.399252892E-4,-2.873992920E-2
3.042990481E1,-2.302527428E-3,-3.184378147E-3,-2.496910095E-2
3.044779831E1,-1.129806042E-4,1.292526722E-3,-2.270317078E-2
3.046568924E1,-4.519850016E-3,-7.315337658E-3,-3.378295898E-2
3.048358664E1,-1.430690289E-3,-5.485445261E-3,-2.866172791E-2
3.050148086E1,3.621339798E-3,2.627074718E-4,-2.804946899E-2
3.051937509E1,5.124777555E-3,-3.914952278E-3,-1.667976379E-2
3.053725473E1,4.069238901E-3,2.858340740E-4,-2.030849457E-2
3.055514877E1,-2.274632454E-3,-6.638765335E-4,-2.548408508E-2
3.057305777E1,-4.140496254E-3,-1.439899206E-3,-2.636146545E-2
3.059095230E1,-1.581251621E-3,1.303374767E-3,-2.557945251E-2
3.060884665E1,3.692269325E-3,-3.977745771E-3,-3.212642670E-2
3.062674081E1,7.311105728E-4,-8.035182953E-3,-3.098773956E-2
3.064463223E1,2.355694771E-3,-8.198350668E-3,-2.849960327E-2
3.066252920E1,4.901558161E-3,3.004640341E-3,-2.330303192E-2
3.068042349E1,5.477756262E-3,1.458942890E-3,-2.095985413E-2
3.069831784E1,-1.378297806E-3,-2.002149820E-3,-2.245235443E-2
3.071621213E1,-3.324091434E-3,-2.976894379E-3,-2.352142334E-2
3.073409439E1,1.759648323E-3,-3.744453192E-3,-2.242660522E-2
3.075200064E1,7.658541203E-3,-2.629876137E-3,-1.932907104E-2
3.076989792E1,-1.267760992E-3,-4.646509886E-3,-2.887058258E-2
3.078778934E1,6.264448166E-3,-4.766583443E-4,-3.184700012E-2
3.080568356E1,4.103451967E-3,3.186762333E-3,-2.420425415E-2
3.082357785E1,2.375692129E-3,5.086034536E-3,-2.515125275E-2
3.084147208E1,-1.171380281E-3,4.908472300E-3,-2.218818665E-2
3.085936630E1,2.211987972E-3,-2.451717854E-3,-2.261066437E-2
3.087726095E1,4.203021526E-4,8.441805840E-4,-2.639293671E-2
3.089515506E1,-1.681387424E-3,8.013844490E-5,-2.503108978E-2
3.091304934E1,-1.383990049E-3,6.360977888E-3,-2.357101440E-2
3.093094327E1,-4.307895899E-3,9.222239256E-3,-2.187156677E-2
3.094883792E1,-5.323380232E-3,-2.365887165E-3,-2.322196960E-2
3.096673215E1,2.735465765E-3,-2.863138914E-3,-1.961326599E-2
3.098462533E1,1.612573862E-3,4.492402077E-4,-2.469062805E-2
3.100252072E1,-5.462348461E-3,-1.736223698E-3,-2.259445190E-2
3.102041385E1,-7.781684399E-4,6.123691797E-3,-1.729965210E-2
3.103829751E1,-3.238886595E-3,-4.027783871E-4,-3.736305237E-2
3.105620352E1,1.543432474E-3,-1.749217510E-3,-1.819038391E-2
3.107410055E1,1.168251038E-5,2.572864294E-3,-2.247142792E-2
3.109199191E1,-5.623698235E-4,-1.435458660E-3,-3.121948242E-2
3.110988620E1,6.697922945E-3,2.710968256E-3,-2.149009705E-2
3.112778067E1,-1.134514809E-3,-1.463562250E-3,-1.692962646E-2
3.114567477E1,9.689629078E-4,7.974445820E-3,-2.442741394E-2
3.116357205E1,-1.444905996E-3,-9.683370590E-4,-3.007698059E-2
3.118146335E1,4.639923573E-4,-2.487272024E-3,-2.396678925E-2
3.119935757E1,3.524422646E-3,3.022849560E-4,-2.270126343E-2
3.121725192E1,-7.952451706E-4,-6.818860769E-3,-2.091312408E-2
3.123514621E1,6.685853004E-3,-4.663914442E-3,-2.542495728E-2
3.125304043E1,-3.417193890E-3,1.339048147E-3,-2.926635742E-2
3.127093478E1,-3.458559513E-4,-3.947019577E-3,-3.250789642E-2
3.128881900E1,8.491754532E-3,2.214819193E-3,-2.944278717E-2
3.130672330E1,5.474954844E-3,-2.500116825E-3,-3.293800354E-2
3.132461471E1,-1.642465591E-3,8.003622293E-3,-3.119373322E-2
3.134251193E1,4.177570343E-3,-2.596974373E-3,-2.681159973E-2
3.136040622E1,5.630910397E-3,2.728104591E-4,-2.558898926E-2
3.137830044E1,1.696407795E-3,6.041228771E-4,-2.560615540E-2
3.139619467E1,5.764216185E-3,2.560138702E-3,-2.370548248E-2
3.141408877E1,-2.087295055E-3,-2.683430910E-3,-2.296066284E-2
3.143198312E1,2.556681633E-3,-1.067429781E-3,-2.686500549E-2
3.144987765E1,-7.450580597E-4,5.256533623E-4,-2.850437164E-2
3.146777188E1,-2.424091101E-3,6.931722164E-4,-2.470970154E-2
3.148566312E1,1.324802637E-3,6.257355213E-3,-2.628135681E-2
3.150356058E1,-1.290678978E-3,-6.632179022E-3,-2.202129364E-2
3.152145450E1,-1.819252968E-3,-3.241360188E-3,-3.097343445E-2
3.153934903E1,1.318335533E-3,-1.001566648E-3,-2.094268799E-2
3.155724307E1,-5.514860153E-3,-5.408614874E-3,-3.351688385E-2
3.157513748E1,-3.846913576E-3,-3.210544586E-3,-2.787494659E-2
3.159303165E1,1.517832279E-3,-5.261570215E-3,-2.267837524E-2
3.161092593E1,-2.130985260E-3,-2.686709166E-3,-1.581096649E-2
3.162882217E1,-9.862363338E-3,8.819997311E-4,-2.155780792E-2
3.164671444E1,4.454195499E-3,4.189610481E-4,-2.685451508E-2
3.166460776E1,6.573945284E-3,2.622544765E-3,-2.188014984E-2
3.168250308E1,-1.551628113E-3,2.932846546E-3,-1.703357697E-2
3.170039712E1,-2.607762814E-3,4.436284304E-3,-2.838993073E-2
3.171829166E1,-7.150769234E-4,2.882987261E-3,-1.894474030E-2
3.173618289E1,-8.785724640E-4,2.314865589E-3,-1.976299286E-2
3.175408023E1,4.028201103E-3,6.289809942E-3,-2.572154999E-2
3.177197433E1,6.965994835E-4,-2.862274647E-3,-3.250789642E-2
3.178986862E1,-3.141164780E-3,-5.215317011E-3,-3.177165985E-2
3.180776291E1,2.122908831E-3,-2.690404654E-3,-2.198028564E-2
3.182565713E1,-5.616396666E-3,-2.553582191E-3,-1.523399353E-2
3.184355154E1,-3.789395094E-3,5.370587111E-3,-2.663326263E-2
3.186144577E1,4.282593727E-5,9.088426828E-3,-2.411842346E-2
3.187934012E1,-1.629471779E-3,2.142786980E-3,-3.413200378E-2
3.189723434E1,2.624422312E-3,3.057986498E-3,-2.919197083E-2
3.191512863E1,-1.690387726E-3,4.898428917E-3,-2.436733246E-2
3.193302286E1,-1.449942589E-3,1.472264528E-3,-2.269172668E-2
3.195091714E1,-2.888649702E-3,5.600959063E-3,-3.066635132E-2
3.196881149E1,-6.842881441E-3,4.037767649E-3,-2.557849884E-2
3.198670572E1,-1.434683800E-3,1.221835613E-3,-2.672576904E-2
3.200458719E1,7.723569870E-4,-2.977877855E-3,-1.763629913E-2
3.202249405E1,5.435317755E-3,-2.642601728E-3,-2.723026276E-2
3.204039133E1,-2.334803343E-3,-2.282798290E-3,-2.188873291E-2
3.205828262E1,-9.796321392E-4,-3.247082233E-3,-1.591014862E-2
3.207617813E1,4.256069660E-4,-9.576976299E-4,-3.233146667E-2
3.209407370E1,-4.628300667E-4,1.319289207E-3,-2.911186218E-2
3.211196573E1,7.321536541E-4,1.037865877E-3,-3.020763397E-2
3.212985983E1,2.850830555E-3,-1.429647207E-3,-2.822875977E-2
3.214775406E1,-1.979112625E-3,5.210578442E-3,-2.066516876E-2
3.216564810E1,-2.610296011E-3,2.024948597E-3,-2.782058716E-2
3.218354263E1,3.091096878E-4,-2.974569798E-3,-2.163887024E-2
3.220143503E1,2.306967974E-3,-2.390444279E-4,-2.536296844E-2
3.221933121E1,-1.231789589E-3,1.691937447E-3,-3.578281403E-2
3.223722531E1,2.777576447E-5,9.829252958E-3,-2.728080750E-2
3.225511691E1,3.666877747E-4,7.303357124E-4,-2.679538727E-2
3.227301382E1,-3.953456879E-3,-5.072414875E-3,-2.590942383E-2
3.229090811E1,-7.862150669E-3,-2.861499786E-3,-2.399921417E-2
3.230880270E1,6.064116955E-3,-4.833102226E-3,-2.306938171E-2
3.232669693E1,-1.321136951E-4,-6.271034479E-3,-2.098846436E-2
3.234458633E1,6.886452436E-3,-7.816404104E-3,-2.561378479E-2
3.236248532E1,-3.391206264E-4,1.851707697E-3,-2.597808838E-2
3.238037979E1,-2.150863409E-3,-3.914862871E-3,-3.487873077E-2
3.239827383E1,3.733307123E-3,-6.462782621E-3,-3.191661835E-2
3.241616818E1,-6.165206432E-4,9.662210941E-4,-1.625633240E-2
3.243406247E1,3.169387579E-3,1.689106226E-3,-1.921463013E-2
3.245195645E1,9.209811687E-4,-2.073705196E-3,-2.257537842E-2
3.246983920E1,1.066380739E-2,1.642763615E-3,-2.069377899E-2
3.248774533E1,2.662032843E-3,-7.046759129E-4,-1.660060883E-2
3.250563949E1,3.356784582E-3,-9.016394615E-4,-2.555942535E-2
3.252353372E1,6.502568722E-4,4.596263170E-3,-1.972961426E-2
3.254142789E1,4.501104355E-3,-3.115236759E-3,-2.444839478E-2
3.255932223E1,7.416903973E-4,-3.224909306E-4,-2.289390564E-2
3.257721262E1,-3.216624260E-3,2.318620682E-3,-2.996158600E-2
3.259510788E1,1.338273287E-3,4.793733358E-3,-2.792072296E-2
3.261300497E1,-7.075071335E-5,2.435117960E-3,-1.951694489E-2
3.263089932E1,1.472502947E-3,8.043050766E-4,-3.288269043E-2
3.264879367E1,8.797764778E-3,-1.626819372E-3,-1.057147980E-2
3.266668808E1,2.711176872E-3,6.467521191E-3,-2.167987823E-2
3.268458047E1,4.080206156E-3,-1.247972250E-3,-2.008438110E-2
3.270247647E1,2.764761448E-4,-1.810520887E-3,-2.268600464E-2
3.272037387E1,8.634746075E-3,2.883583307E-3,-2.842903137E-2
3.273826480E1,1.217713952E-2,4.095286131E-3,-2.200984955E-2
3.275614444E1,6.701350212E-4,3.169566393E-3,-2.865028381E-2
3.277405337E1,7.851630449E-3,-5.982458591E-3,-2.634143829E-2
3.279194766E1,8.112788200E-4,3.032803535E-3,-3.096199036E-2
3.280984500E1,7.233411074E-3,1.913398504E-3,-2.682876587E-2
3.282773654E1,2.210021019E-3,-4.400908947E-4,-3.151702881E-2
3.284561551E1,4.044592381E-3,-4.337847233E-3,-2.301788330E-2
3.286352493E1,1.026588678E-2,-4.324644804E-3,-3.060340881E-2
3.288141910E1,8.397251368E-3,-5.791276693E-3,-2.707195282E-2
3.289931338E1,8.963406086E-3,2.346605062E-3,-2.555751801E-2
3.291720749E1,4.474937916E-3,-2.560824156E-3,-1.932239532E-2
3.293509073E1,5.890101194E-3,2.489387989E-4,-2.470111847E-2
3.295299624E1,1.760005951E-3,2.967387438E-3,-2.792835236E-2
3.297089053E1,9.618103504E-4,1.519799232E-3,-1.853752136E-2
3.298878494E1,4.214048386E-3,-2.351701260E-3,-2.949047089E-2
3.300667905E1,4.756748676E-4,-1.209497452E-3,-1.443386078E-2
3.302456961E1,6.198704243E-3,-1.488924026E-4,-2.380752563E-2
3.304246768E1,-3.785997629E-3,1.331865788E-4,-2.842998505E-2
3.306036178E1,-1.278042793E-3,7.294267416E-3,-2.388954163E-2
3.307825607E1,8.805692196E-3,-3.914147615E-3,-2.648448944E-2
3.309613864E1,9.208172560E-3,-5.095362663E-3,-1.513290405E-2
3.311404434E1,1.976132393E-3,-7.235705853E-4,-3.080844879E-2
3.313193619E1,3.538817167E-3,6.373822689E-4,-2.623176575E-2
3.314983316E1,4.458755255E-3,-5.631029606E-3,-2.623748779E-2
3.316772745E1,3.114134073E-3,3.925412893E-3,-3.133392334E-2
3.318562460E1,-7.184207439E-3,-1.793056726E-3,-2.484416962E-2
3.320350400E1,-1.481771469E-4,3.851413727E-3,-3.172302246E-2
3.322141006E1,4.094064236E-3,-3.085672855E-3,-2.948474884E-2
3.323930459E1,-2.115607262E-3,2.482444048E-3,-2.694702148E-2
3.325718722E1,-6.375491619E-3,5.822777748E-4,-2.302265167E-2
3.327509457E1,-2.084970474E-3,-1.686543226E-3,-3.283596039E-2
3.329298727E1,-3.565728664E-3,-3.708928823E-3,-2.286148071E-2
3.331088687E1,3.941953182E-4,-6.926953793E-4,-1.794147491E-2
3.332877591E1,1.238167286E-3,-2.428591251E-4,-2.051544189E-2
3.334667032E1,3.047108650E-3,-3.896564245E-3,-2.038669586E-2
3.336456290E1,6.895661354E-3,1.719534397E-3,-1.870822906E-2
3.338244681E1,6.543904543E-3,7.684767246E-3,-1.972961426E-2
3.340035184E1,3.372520208E-3,5.931556225E-3,-2.689933777E-2
3.341823398E1,1.079082489E-3,-1.957535744E-3,-1.417350769E-2
3.343612955E1,1.979112625E-3,-1.069009304E-3,-3.042507172E-2
3.345403555E1,-1.667380333E-3,-1.058727503E-3,-3.661060333E-2
3.347193008E1,5.851060152E-3,2.600550652E-4,-2.365493774E-2
3.348982419E1,9.970992804E-3,2.451658249E-3,-3.269004822E-2
3.350771872E1,4.506230354E-3,-9.906291962E-4,-2.608299255E-2
3.352561240E1,7.583618164E-3,-4.593074322E-3,-1.701831818E-2
3.354350711E1,4.924654961E-3,4.683852196E-3,-2.701282501E-2
3.356140134E1,9.329497814E-3,-3.239184618E-3,-1.403045654E-2
3.357929532E1,4.158794880E-3,-2.896487713E-3,-2.583217621E-2
3.359717837E1,8.815050125E-3,-2.895683050E-3,-2.910900116E-2
3.361508420E1,1.007479429E-2,-5.570381880E-3,-2.934837341E-2
3.363297842E1,3.249675035E-3,1.884698868E-3,-2.478694916E-2
3.365087253E1,2.435654402E-3,3.896385431E-3,-2.595520020E-2
3.366876285E1,-6.954967976E-4,1.570522785E-3,-2.794742584E-2
3.368666135E1,1.437932253E-3,-1.023769379E-3,-2.656269073E-2
3.370455179E1,1.111450791E-2,-3.759115934E-3,-1.630210876E-2
3.372244968E1,3.644108772E-3,7.621347904E-4,-1.534748077E-2
3.374034469E1,1.141512394E-2,-4.458039999E-3,-2.869129181E-2
3.375823843E1,5.701482296E-3,3.979116678E-3,-3.400707245E-2
3.377612240E1,5.471974611E-3,-6.286203861E-4,-2.455425262E-2
3.379402646E1,-1.141637564E-3,-1.149520278E-2,-2.398490906E-2
3.381192105E1,1.492798328E-4,2.869129181E-3,-2.390670776E-2
3.382981515E1,1.070144773E-2,9.357035160E-4,-2.398586273E-2
3.384770969E1,-3.498077393E-3,-5.021691322E-5,-2.345657349E-2
3.386559915E1,6.425261497E-3,-6.219476461E-3,-2.002143860E-2
3.388349808E1,6.849437952E-3,2.172946930E-3,-2.946853638E-2
3.390139230E1,-3.598809242E-3,-5.928397179E-3,-3.546047211E-2
3.391928659E1,1.486301422E-3,-2.060800791E-3,-7.758140564E-3
3.393718082E1,4.053682089E-3,-3.107547760E-3,-2.996063232E-2
3.395507510E1,2.641409636E-3,2.462893724E-3,-2.283954620E-2
3.397296921E1,6.645321846E-4,2.406924963E-3,-2.958202362E-2
3.399086343E1,4.962533712E-3,7.935583591E-3,-2.469635010E-2
3.400876053E1,2.374887466E-3,1.302361488E-5,-2.248191833E-2
3.402664938E1,5.201876163E-3,8.209347725E-4,-2.265834808E-2
3.404454636E1,9.310752153E-3,-8.412599564E-4,-3.017330170E-2
3.406244058E1,-6.912648678E-4,-1.201063395E-3,-2.050018311E-2
3.408033487E1,3.015309572E-3,-1.657426357E-3,-3.116130829E-2
3.409822940E1,3.249108791E-3,-7.489115000E-3,-2.544498444E-2
3.411611160E1,1.462787390E-3,2.259552479E-3,-2.501773834E-2
3.413400570E1,7.376879454E-3,4.857569933E-3,-2.370166779E-2
3.415191214E1,7.372260094E-3,5.057752132E-4,-2.113533020E-2
3.416980606E1,3.697454929E-3,-9.558767080E-3,-2.478694916E-2
3.418770065E1,3.768682480E-3,-5.663573742E-3,-2.588462830E-2
3.420559848E1,8.825778961E-3,-1.483708620E-3,-2.582263947E-2
3.422348904E1,5.326032639E-3,2.846330404E-3,-3.116893768E-2
3.424138028E1,-8.542835712E-4,-3.936827183E-3,-3.194522858E-2
3.425928042E1,-6.558746099E-3,3.435492516E-3,-2.453517914E-2
3.427717184E1,3.229677677E-3,-1.080095768E-3,-2.960300446E-2
3.429506607E1,9.262859821E-3,-1.131892204E-3,-2.161979675E-2
3.431295999E1,3.296315670E-3,-6.654083729E-3,-2.404117584E-2
3.433085165E1,-2.633929253E-4,-6.870627403E-4,-2.481555939E-2
3.434874899E1,-2.569526434E-3,5.887150764E-4,-2.230167389E-2
3.436664322E1,-7.409036160E-3,-4.258632660E-3,-3.166580200E-2
3.438453732E1,2.939373255E-3,-6.692767143E-3,-2.527523041E-2
3.440241959E1,4.482060671E-3,-9.761452675E-4,-3.033161163E-2
3.442032590E1,3.639936447E-3,1.616179943E-4,-2.255344391E-2
3.443822012E1,4.606813192E-3,5.799025297E-3,-2.359580994E-2
3.445610348E1,1.222789288E-3,-3.887504339E-3,-2.596282959E-2
3.447400876E1,2.775937319E-3,-1.052841544E-2,-2.425861359E-2
3.449190298E1,2.926379442E-3,-7.449090481E-4,-1.974391937E-2
3.450979703E1,3.957450390E-3,-2.565771341E-3,-3.412532806E-2
3.452767691E1,2.852946520E-3,1.952260733E-3,-3.003025055E-2
3.454558560E1,3.576844931E-3,2.122282982E-3,-1.977443695E-2
3.456348001E1,2.923995256E-3,6.778597832E-3,-2.080059052E-2
3.458137442E1,4.833936691E-3,-5.811989307E-3,-2.731895447E-2
3.459925626E1,6.324112415E-3,5.049437284E-3,-3.329372406E-2
3.461716269E1,-6.575882435E-4,-3.274351358E-3,-2.237129211E-2
3.463505704E1,-3.344237804E-3,-3.888130188E-3,-3.097820282E-2
3.465295047E1,-6.570518017E-4,-6.852447987E-4,-2.513885498E-2
3.467084866E1,9.309738874E-3,-3.148138523E-3,-2.261638641E-2
3.468873996E1,1.474142075E-3,2.800107002E-3,-2.406024933E-2
3.470663418E1,8.598864079E-3,5.423247814E-3,-2.041912079E-2
3.472452823E1,3.792494535E-3,-8.542835712E-4,-2.043533325E-2
3.474242258E1,3.799319267E-3,-3.621578217E-3,-2.705478668E-2
3.476031973E1,3.138840199E-3,7.134854794E-3,-2.325916290E-2
3.477821103E1,-1.929163933E-3,-1.645833254E-3,-2.397060394E-2
3.479609036E1,-3.401637077E-4,-1.564055681E-3,-2.288532257E-2
3.481399966E1,-3.469735384E-3,2.972662449E-3,-2.393436432E-2
3.483189395E1,7.208496332E-3,4.194617271E-3,-1.883888245E-2
3.484978830E1,8.090317249E-3,6.132394075E-3,-2.616310120E-2
3.486768259E1,8.881390095E-4,-4.679948092E-3,-2.669048309E-2
3.488557663E1,6.027072668E-3,3.631383181E-3,-2.376651764E-2
3.490347092E1,2.466559410E-3,4.101306200E-3,-2.760410309E-2
3.492136514E1,-5.948603153E-3,-9.800165892E-3,-2.752685547E-2
3.493925949E1,2.632170916E-3,2.470910549E-3,-2.384948730E-2
3.495715378E1,7.741451263E-4,4.545480013E-3,-3.137874603E-2
3.497503610E1,1.956075430E-3,-4.115104675E-4,-2.110671997E-2
3.499294504E1,3.511160612E-3,-1.263010502E-2,-2.165222168E-2
3.501083633E1,-4.001617432E-3,-3.157556057E-3,-2.923583984E-2
3.502871921E1,6.282299757E-3,1.296073198E-3,-2.767181396E-2
3.504662515E1,7.271170616E-4,-3.486871719E-5,-2.885437012E-2
3.506450705E1,5.050301552E-4,-1.236617565E-3,-3.079891205E-2
3.508241354E1,3.728896379E-3,1.600086689E-4,-2.318763733E-2
3.510030783E1,2.661317587E-3,6.582230330E-3,-2.411174774E-2
3.511820230E1,-6.279170513E-3,-3.925293684E-3,-2.482414246E-2
3.513608493E1,5.500078201E-3,3.357261419E-3,-3.238964081E-2
3.515399032E1,6.057709455E-3,-9.165704250E-4,-2.191543579E-2
3.517188449E1,7.907211781E-3,-1.748681068E-3,-1.865291595E-2
3.518977896E1,3.012180328E-3,7.436871529E-3,-2.416324615E-2
3.520767331E1,2.455055714E-3,2.843439579E-4,-2.642536163E-2
3.522556753E1,3.855854273E-3,-4.426419735E-3,-3.031635284E-2
3.524346194E1,5.685359240E-3,-3.165155649E-3,-2.552127838E-2
3.526135220E1,6.420612335E-4,3.327697515E-3,-1.740169525E-2
3.527925040E1,1.055121422E-3,-7.091045380E-3,-2.172660828E-2
3.529714474E1,5.348831415E-3,-5.170702934E-3,-2.231693268E-2
3.531504184E1,4.122287035E-3,2.196431160E-4,-3.224563599E-2
3.533293619E1,5.895495415E-3,-7.370859385E-3,-2.566719055E-2
