"Time (s)","Acceleration x (m/s^2)","Acceleration y (m/s^2)","Acceleration z (m/s^2)"
1.640040000E-2,9.425328255E0,-1.031904817E0,2.037488461E0
1.863991900E-2,9.401400566E0,-1.083948612E0,1.970489502E0
2.087648300E-2,9.391230583E0,-1.135992527E0,1.937588096E0
2.311304700E-2,9.400801659E0,-1.174277663E0,1.908874273E0
2.534961100E-2,9.424132347E0,-1.222134113E0,1.895115495E0
2.758621200E-2,9.424132347E0,-1.236491084E0,1.875972986E0
2.982303600E-2,9.438488960E0,-1.231705427E0,1.842473388E0
3.206021800E-2,9.452845573E0,-1.241874933E0,1.837687731E0
3.429544400E-2,9.472586632E0,-1.217946768E0,1.819143414E0
3.653244400E-2,9.477970123E0,-1.156331539E0,1.847259045E0
3.876858900E-2,9.521040916E0,-1.142572761E0,1.876571178E0
4.100577100E-2,9.521040916E0,-1.128215909E0,1.905285001E0
4.324222200E-2,9.535398483E0,-1.119242787E0,1.929213285E0
4.547885500E-2,9.535996437E0,-1.100100160E0,1.910070658E0
4.771561000E-2,9.483354568E0,-1.118046403E0,1.847259045E0
4.995291500E-2,9.512666702E0,-1.098903775E0,1.814357758E0
5.218857200E-2,9.550951958E0,-1.109073281E0,1.781456470E0
5.442520500E-2,9.565906525E0,-1.104287624E0,1.752742529E0
5.666098400E-2,9.570692062E0,-1.089930773E0,1.757528186E0
5.889847200E-2,9.556335449E0,-1.089930773E0,1.719243050E0
6.113473900E-2,9.576076508E0,-1.075573802E0,1.705484390E0
6.337143300E-2,9.600004196E0,-1.057029366E0,1.719841242E0
6.560800500E-2,9.614361763E0,-1.033699393E0,1.782054663E0
6.784592000E-2,9.628718376E0,-1.014556766E0,1.815554142E0
7.008084500E-2,9.623932838E0,-1.005583763E0,1.862812400E0
7.231772200E-2,9.609575272E0,-9.667003751E-1,1.881955028E0
7.455398900E-2,9.586245537E0,-9.379864931E-1,1.900499344E0
7.679135500E-2,9.562317848E0,-9.134600163E-1,1.881356835E0
7.902768300E-2,9.558130264E0,-9.086744189E-1,1.871785522E0
8.126517100E-2,9.548559189E0,-8.943174481E-1,1.886142492E0
8.350509900E-2,9.558130264E0,-8.943174481E-1,1.886142492E0
8.575876100E-2,9.529416084E0,-8.895317912E-1,1.909472466E0
8.798776500E-2,9.538987160E0,-8.895317912E-1,1.904686809E0
9.022092000E-2,9.543772697E0,-8.703892231E-1,1.909472466E0
9.244089100E-2,9.538987160E0,-8.847461939E-1,1.914258122E0
9.469516300E-2,9.562915802E0,-8.805587292E-1,1.929213285E0
9.693167500E-2,9.552745819E0,-8.997012973E-1,1.947757602E0
9.917221400E-2,9.557532310E0,-9.092726111E-1,1.938186288E0
1.014050630E-1,9.567103386E0,-9.236295223E-1,1.924427629E0
1.036423070E-1,9.557532310E0,-9.182456732E-1,1.914856315E0
1.058777200E-1,9.561718941E0,-9.373882413E-1,1.914856315E0
1.081145360E-1,9.566504478E0,-9.565308690E-1,1.886142492E0
1.103483610E-1,9.576076508E0,-9.619147182E-1,1.890928149E0
1.125777320E-1,9.580862045E0,-9.804590940E-1,1.853241086E0
1.148242530E-1,9.566504478E0,-9.948160052E-1,1.847857237E0
1.170607640E-1,9.537791252E0,-1.003789067E0,1.833500385E0
1.192998990E-1,9.542576790E0,-1.003789067E0,1.847857237E0
1.215349460E-1,9.537791252E0,-1.008574724E0,1.847857237E0
1.237704810E-1,9.513862610E0,-1.003789067E0,1.852642894E0
1.260069310E-1,9.518648148E0,-9.894321561E-1,1.847857237E0
1.282404510E-1,9.518648148E0,-9.942178130E-1,1.843071699E0
1.304682960E-1,9.528220177E0,-9.846464992E-1,1.847857237E0
1.327168310E-1,9.500103951E0,-9.840483069E-1,1.800000787E0
1.349502290E-1,9.490532875E0,-9.834501147E-1,1.771286964E0
1.371814920E-1,9.475577354E0,-1.026520967E0,1.761715651E0
1.394245330E-1,9.466006279E0,-1.021735311E0,1.761117458E0
1.416512180E-1,9.461220741E0,-1.025922656E0,1.746760488E0
1.439025600E-1,9.451649666E0,-1.040279627E0,1.737189293E0
1.461357760E-1,9.475577354E0,-1.045663476E0,1.737787485E0
1.483758280E-1,9.489934921E0,-1.045663476E0,1.742573142E0
1.506097140E-1,9.475577354E0,-1.021735311E0,1.747358680E0
1.528472020E-1,9.485149384E0,-1.016949654E0,1.790429592E0
1.550796230E-1,9.504291534E0,-9.840483069E-1,1.847259045E0
1.573053320E-1,9.552147865E0,-9.708877802E-1,1.886142492E0
1.595431860E-1,9.571290970E0,-9.427721500E-1,1.924427629E0
1.617923920E-1,9.585647583E0,-9.475577474E-1,1.933998942E0
1.640317720E-1,9.575477600E0,-9.667003751E-1,1.938784599E0
1.662684670E-1,9.585049629E0,-9.762716293E-1,1.938784599E0
1.685019870E-1,9.585049629E0,-1.000199914E0,1.933998942E0
1.707384980E-1,9.628120422E0,-1.015154958E0,1.925025821E0
1.729753760E-1,9.594022751E0,-1.033699393E0,1.896311998E0
1.752126810E-1,9.589237213E0,-1.062413216E0,1.872383714E0
1.774482760E-1,9.594022751E0,-1.062413216E0,1.843669891E0
1.796848490E-1,9.598808289E0,-1.081555843E0,1.858026743E0
1.819211770E-1,9.598808289E0,-1.091127157E0,1.858026743E0
1.841579930E-1,9.594022751E0,-1.086341500E0,1.872383714E0
1.863946260E-1,9.564710617E0,-1.104885817E0,1.872383714E0
1.886313820E-1,9.574281693E0,-1.091127157E0,1.905285001E0
1.908679540E-1,9.555138588E0,-1.076171994E0,1.957927108E0
1.931052590E-1,9.593423843E0,-1.034297585E0,2.039283037E0
1.953374360E-1,9.613164902E0,-9.774680734E-1,2.072782516E0
1.975639990E-1,9.632308006E0,-9.445667267E-1,2.082353830E0
1.998137550E-1,9.594022751E0,-9.577272534E-1,2.053041935E0
2.020505710E-1,9.575477600E0,-9.714859724E-1,1.991426587E0
2.042905000E-1,9.537193298E0,-9.948160052E-1,1.938186288E0
2.065237160E-1,9.546764374E0,-1.004387259E0,1.866999865E0
2.087606540E-1,9.580264091E0,-1.033101201E0,1.819741607E0
2.109983250E-1,9.600004196E0,-1.023529887E0,1.805384636E0
2.132334330E-1,9.608977318E0,-1.028913736E0,1.838884234E0
2.154700050E-1,9.618548393E0,-1.028913736E0,1.848455548E0
2.177062110E-1,9.643074989E0,-9.864411354E-1,1.867598057E0
2.199431490E-1,9.638289452E0,-9.529415965E-1,1.905883193E0
2.221800270E-1,9.624530792E0,-9.194421172E-1,1.925025821E0
2.244142190E-1,9.634101868E0,-9.098708034E-1,1.920240164E0
2.266370580E-1,9.591629982E0,-8.949156404E-1,1.871785522E0
2.288760710E-1,9.562915802E0,-9.086744189E-1,1.838286042E0
2.311114840E-1,9.520442963E0,-9.122636318E-1,1.747358680E0
2.333522680E-1,9.525827408E0,-9.026923180E-1,1.690529227E0
2.355890840E-1,9.477970123E0,-9.158528447E-1,1.646860242E0
2.378279750E-1,9.449256897E0,-9.343972206E-1,1.632503271E0
2.400679040E-1,9.430113792E0,-9.535398483E-1,1.627717614E0
2.423094210E-1,9.449256897E0,-9.296116233E-1,1.651645780E0
2.445341530E-1,9.420542717E0,-9.200403094E-1,1.665404558E0
2.467723730E-1,9.444471359E0,-8.967102766E-1,1.713261008E0
2.490062600E-1,9.434301376E0,-8.871390224E-1,1.770688772E0
2.512456400E-1,9.458230019E0,-8.638089895E-1,1.823330879E0
2.534800150E-1,9.486943245E0,-8.356932998E-1,1.894517303E0
2.557172580E-1,9.543772697E0,-8.231309652E-1,1.990828395E0
2.579546240E-1,9.610772133E0,-7.956135273E-1,2.029113531E0
2.601907080E-1,9.629914284E0,-8.195417523E-1,2.044068813E0
2.624260590E-1,9.658030510E0,-8.488538265E-1,2.039283037E0
2.646644020E-1,9.643673897E0,-8.865407705E-1,2.000998020E0
2.669003640E-1,9.634101868E0,-9.104689956E-1,1.958525300E0
2.691372410E-1,9.634101868E0,-9.200403094E-1,1.948953986E0
2.713729590E-1,9.614959717E0,-9.146564603E-1,1.953141451E0
2.736106910E-1,9.600004196E0,-9.098708034E-1,1.986641049E0
2.758478120E-1,9.623932838E0,-8.769695163E-1,2.053640127E0
2.780827980E-1,9.671789169E0,-8.638089895E-1,2.091925144E0
2.803197970E-1,9.695717812E0,-8.356932998E-1,2.130210400E0
2.825583230E-1,9.671789169E0,-8.303094506E-1,2.149353027E0
2.847952000E-1,9.628718376E0,-8.297112584E-1,2.134397745E0
2.870340310E-1,9.576076508E0,-8.428717852E-1,2.096112728E0
2.892652310E-1,9.528818130E0,-8.518448472E-1,2.062014818E0
2.915014380E-1,9.452247620E0,-8.835497499E-1,1.975873351E0
2.937372160E-1,9.422935486E0,-9.164510965E-1,1.936989903E0
2.959767800E-1,9.423533440E0,-9.397810698E-1,1.861017823E0
2.982122530E-1,9.413962364E0,-9.541380405E-1,1.817947030E0
3.004498020E-1,9.476176262E0,-9.601200819E-1,1.837687731E0
3.026852150E-1,9.533005714E0,-9.798609018E-1,1.843071699E0
3.049214820E-1,9.561718941E0,-9.852447510E-1,1.890928149E0
3.071572610E-1,9.561120987E0,-9.996016622E-1,1.890928149E0
3.093947480E-1,9.556335449E0,-1.023529887E0,1.890928149E0
3.116318700E-1,9.522237778E0,-1.051645517E0,1.857428551E0
3.138691750E-1,9.512666702E0,-1.075573802E0,1.852642894E0
3.161056860E-1,9.493523598E0,-1.094118118E0,1.814357758E0
3.183447000E-1,9.440881729E0,-1.102493048E0,1.785045743E0
3.205776100E-1,9.431310654E0,-1.125823021E0,1.722832322E0
3.228155240E-1,9.455238342E0,-1.135992527E0,1.704287887E0
3.250522190E-1,9.474381447E0,-1.169492126E0,1.680957913E0
3.272857390E-1,9.507881165E0,-1.160519004E0,1.661815286E0
3.295190770E-1,9.522835732E0,-1.141376376E0,1.676172256E0
3.317598610E-1,9.508479118E0,-1.122233868E0,1.671386600E0
3.339981420E-1,9.518050194E0,-1.117448211E0,1.695314884E0
3.362359350E-1,9.527621269E0,-1.089332461E0,1.714457393E0
3.384722630E-1,9.556933403E0,-1.066002488E0,1.743171334E0
3.407085910E-1,9.565906525E0,-1.075573802E0,1.747956991E0
3.429445530E-1,9.561718941E0,-1.084546804E0,1.695913076E0
3.451849100E-1,9.561718941E0,-1.070788145E0,1.724028707E0
3.474156230E-1,9.561718941E0,-1.080359459E0,1.719243050E0
3.496526220E-1,9.561718941E0,-1.080359459E0,1.714457393E0
3.518897430E-1,9.552147865E0,-1.084546804E0,1.709671736E0
3.541279640E-1,9.566504478E0,-1.089930773E0,1.710269928E0
3.563628880E-1,9.571290970E0,-1.075573802E0,1.724626899E0
3.585996440E-1,9.576076508E0,-1.056431174E0,1.715055585E0
3.608357280E-1,9.576076508E0,-1.046859860E0,1.747956991E0
3.630735810E-1,9.581459999E0,-1.013360381E0,1.747956991E0
3.653102760E-1,9.586245537E0,-1.009172916E0,1.771885157E0
3.675468480E-1,9.591031075E0,-9.756734371E-1,1.776670814E0
3.697828090E-1,9.576674461E0,-9.948160052E-1,1.791027784E0
3.720224950E-1,9.576674461E0,-9.804590940E-1,1.814955950E0
3.742550390E-1,9.558130264E0,-9.511470199E-1,1.805384636E0
3.764916110E-1,9.552745819E0,-9.463613629E-1,1.828714728E0
3.787272680E-1,9.548559189E0,-9.086744189E-1,1.852642894E0
3.809669530E-1,9.557532310E0,-9.373882413E-1,1.852642894E0
3.832023660E-1,9.576674461E0,-9.188438654E-1,1.881356835E0
3.854389990E-1,9.610174179E0,-9.194421172E-1,1.910668850E0
3.876749610E-1,9.629316330E0,-9.002995491E-1,1.929811478E0
3.899125710E-1,9.595816612E0,-8.907282352E-1,1.943570137E0
3.921481660E-1,9.605388641E0,-8.907282352E-1,1.967498422E0
3.943846170E-1,9.604789734E0,-9.050851464E-1,1.991426587E0
3.966203350E-1,9.581459999E0,-8.997012973E-1,1.977069736E0
3.988579440E-1,9.591031075E0,-8.859425783E-1,1.977069736E0
4.010954930E-1,9.562317848E0,-8.997012973E-1,1.966900229E0
4.033313940E-1,9.537791252E0,-9.134600163E-1,1.966900229E0
4.055682710E-1,9.523433685E0,-9.182456732E-1,1.957328916E0
4.078042940E-1,9.494720459E0,-9.272187948E-1,1.952543259E0
4.100412940E-1,9.470791817E0,-9.409775138E-1,1.932802439E0
4.122785370E-1,9.475577354E0,-9.361918569E-1,1.923231244E0
4.145150490E-1,9.480362892E0,-9.505487680E-1,1.919043779E0
4.167508880E-1,9.471389771E0,-9.409775138E-1,1.895115495E0
4.189894750E-1,9.500103951E0,-9.415757060E-1,1.895115495E0
4.212233620E-1,9.509077072E0,-9.607182741E-1,1.885544300E0
4.234615210E-1,9.504291534E0,-9.607182741E-1,1.899901152E0
4.256969940E-1,9.509675026E0,-9.559326172E-1,1.875972986E0
4.279328950E-1,9.518648148E0,-9.702895880E-1,1.885544300E0
4.301698340E-1,9.499505997E0,-9.840483069E-1,1.866401672E0
4.324080540E-1,9.518648148E0,-9.846464992E-1,1.857428551E0
4.346445040E-1,9.533603668E0,-9.798609018E-1,1.833500385E0
4.368803440E-1,9.547960281E0,-9.846464992E-1,1.823929071E0
4.391174050E-1,9.547362328E0,-9.846464992E-1,1.843071699E0
4.413537320E-1,9.556933403E0,-9.852447510E-1,1.852642894E0
4.435932960E-1,9.556933403E0,-9.708877802E-1,1.862214208E0
4.458260230E-1,9.585647583E0,-9.852447510E-1,1.838884234E0
4.480632050E-1,9.600004196E0,-9.762716293E-1,1.862812400E0
4.502982510E-1,9.604789734E0,-9.810572863E-1,1.877169371E0
4.525364720E-1,9.600004196E0,-9.762716293E-1,1.891526341E0
4.547734720E-1,9.614361763E0,-9.714859724E-1,1.872383714E0
4.570088230E-1,9.633503914E0,-9.672985673E-1,1.891526341E0
4.592465550E-1,9.613762856E0,-9.960124493E-1,1.905883193E0
4.614827000E-1,9.604191780E0,-1.000199914E0,1.920240164E0
4.637225680E-1,9.599406242E0,-9.768698215E-1,1.933998942E0
4.659754970E-1,9.609575272E0,-9.816554785E-1,1.910668850E0
4.682054170E-1,9.589835167E0,-1.004985452E0,1.933998942E0
4.704424160E-1,9.589835167E0,-1.000199914E0,1.953141451E0
4.726744720E-1,9.585049629E0,-1.000199914E0,1.933998942E0
4.749089700E-1,9.560523033E0,-1.000199914E0,1.953141451E0
4.771338840E-1,9.561120987E0,-9.810572863E-1,1.972284079E0
4.793869970E-1,9.536594391E0,-1.009172916E0,1.966900229E0
4.816222880E-1,9.517452240E0,-1.009172916E0,1.976471543E0
4.838628880E-1,9.488738060E0,-1.018146038E0,1.980658889E0
4.860954930E-1,9.440881729E0,-1.012163997E0,1.937588096E0
4.883323700E-1,9.431908607E0,-9.930213690E-1,1.942373753E0
4.905688820E-1,9.402596474E0,-9.882357717E-1,1.965703845E0
4.928051490E-1,9.393025398E0,-9.876375198E-1,1.956132531E0
4.950390960E-1,9.412766457E0,-9.690931439E-1,1.965703845E0
4.972678560E-1,9.427123070E0,-9.601200819E-1,2.003988981E0
4.995151710E-1,9.416953087E0,-9.601200819E-1,2.023131609E0
5.017515600E-1,9.436096191E0,-9.649057388E-1,2.032702923E0
5.039909390E-1,9.416953087E0,-9.601200819E-1,2.056631088E0
5.062246430E-1,9.407382011E0,-9.409775138E-1,2.084746838E0
5.084618260E-1,9.406784058E0,-9.505487680E-1,2.094317913E0
5.106992530E-1,9.412167549E0,-9.218349457E-1,2.123031855E0
5.129349090E-1,9.425926208E0,-9.272187948E-1,2.161317110E0
5.151721530E-1,9.435498238E0,-9.367900491E-1,2.146960020E0
5.174045140E-1,9.421140671E0,-9.367900491E-1,2.170888424E0
5.196326020E-1,9.430113792E0,-9.415757060E-1,2.199602127E0
5.218806490E-1,9.420542717E0,-9.655039310E-1,2.194816589E0
5.241174660E-1,9.444471359E0,-9.421738982E-1,2.190030813E0
5.263539160E-1,9.454640388E0,-9.278169870E-1,2.175673962E0
5.285783420E-1,9.464211464E0,-9.278169870E-1,2.171486616E0
5.308271820E-1,9.483952522E0,-9.044869542E-1,2.185843468E0
5.330647310E-1,9.488738060E0,-8.997012973E-1,2.176272154E0
5.353033180E-1,9.492925644E0,-9.427721500E-1,2.133201361E0
5.375367160E-1,9.498309135E0,-9.236295223E-1,2.133201361E0
5.397731670E-1,9.493523598E0,-9.182456732E-1,2.123630047E0
5.420098000E-1,9.493523598E0,-9.182456732E-1,2.100300074E0
5.442466770E-1,9.494122505E0,-9.038887620E-1,2.109273195E0
5.464831880E-1,9.479166985E0,-9.278169870E-1,2.099701881E0
5.487200660E-1,9.498908043E0,-8.991031051E-1,2.071586132E0
5.509573090E-1,9.498908043E0,-8.991031051E-1,2.057229280E0
5.531928440E-1,9.494122505E0,-9.038887620E-1,2.052443504E0
5.554263030E-1,9.498908043E0,-8.991031051E-1,2.052443504E0
5.576495090E-1,9.504291534E0,-8.751748800E-1,2.028515339E0
5.598813200E-1,9.509077072E0,-8.751748800E-1,2.033301115E0
5.621273530E-1,9.513862610E0,-8.799605370E-1,2.023729801E0
5.643789410E-1,9.533603668E0,-8.614161611E-1,2.018944025E0
5.666172220E-1,9.553344727E0,-8.231309652E-1,2.029113531E0
5.688531230E-1,9.581459999E0,-8.285148144E-1,2.053041935E0
5.710853610E-1,9.576674461E0,-8.333004713E-1,2.057827473E0
5.733217500E-1,9.595816612E0,-8.434699774E-1,2.081755638E0
5.755580790E-1,9.576674461E0,-8.291130662E-1,2.105085611E0
5.777951390E-1,9.609575272E0,-8.434699774E-1,2.124826431E0
5.800318330E-1,9.575477600E0,-8.578268886E-1,2.133799553E0
5.822693210E-1,9.595218658E0,-8.434699774E-1,2.120040894E0
5.845049170E-1,9.600004196E0,-8.578268886E-1,2.110469580E0
5.867425270E-1,9.647860527E0,-8.440681696E-1,2.111067772E0
5.889778170E-1,9.662218094E0,-8.542376757E-1,2.101496458E0
5.912146950E-1,9.699904442E0,-8.739784956E-1,2.120639086E0
5.934476660E-1,9.747760773E0,-8.745766878E-1,2.145165443E0
5.956728860E-1,9.766903877E0,-8.799605370E-1,2.169093609E0
5.979175150E-1,9.790832520E0,-8.656035662E-1,2.169093609E0
6.001608620E-1,9.824331284E0,-8.757730722E-1,2.193620205E0
6.024007910E-1,9.823733330E0,-8.859425783E-1,2.241476536E0
6.046366920E-1,9.866804123E0,-8.673982024E-1,2.236690998E0
6.068703950E-1,9.870991707E0,-8.769695163E-1,2.289333105E0
6.091072730E-1,9.894919395E0,-8.679963946E-1,2.318047047E0
6.113435400E-1,9.929018021E0,-8.542376757E-1,2.328216314E0
6.135804170E-1,9.961918831E0,-8.644071817E-1,2.361716032E0
6.158169290E-1,1.000498962E1,-8.751748800E-1,2.380858421E0
6.180535010E-1,1.000917721E1,-8.847461939E-1,2.414358139E0
6.202903170E-1,9.990034103E0,-8.697910309E-1,2.409572363E0
6.225232880E-1,9.942177773E0,-8.787640929E-1,2.428116798E0
6.247458840E-1,9.917651176E0,-8.979067206E-1,2.418545485E0
6.269998510E-1,9.826724052E0,-9.296116233E-1,2.398804665E0
6.292363620E-1,9.750154495E0,-9.523434043E-1,2.340778828E0
6.314773280E-1,9.760323524E0,-1.004387259E0,2.178664923E0
6.337098120E-1,9.729815483E0,-1.054038405E0,1.687538147E0
6.359462620E-1,9.791430473E0,-1.060020447E0,1.745564103E0
6.381829560E-1,9.707681656E0,-1.109073281E0,1.353739381E0
6.404203830E-1,9.598808289E0,-1.228714466E0,-2.733799815E-1
6.426556740E-1,9.680762291E0,-1.226919770E0,-9.308080077E-1
6.448921850E-1,9.629316330E0,-1.185643673E0,-3.589234054E-1
6.471288790E-1,9.393025398E0,-1.140778184E0,-9.391828626E-2
6.493655130E-1,9.212367058E0,-1.101894855E0,4.193421602E-1
6.516024510E-1,9.044869423E0,-1.088136077E0,1.028315544E0
6.538398170E-1,8.870791435E0,-1.098305583E0,1.751546144E0
6.560755340E-1,8.852247238E0,-1.039681435E0,2.442473650E0
6.583130220E-1,8.839086533E0,-1.003190875E0,2.919243574E0
6.605480690E-1,8.910273552E0,-9.433703423E-1,3.133999348E0
6.627849460E-1,9.001798630E0,-9.110672474E-1,3.159124136E0
6.650182220E-1,9.099306107E0,-8.691928387E-1,2.997608662E0
6.672461280E-1,9.135198593E0,-7.920243144E-1,2.816352367E0
6.694946630E-1,9.169894218E0,-6.041877270E-1,2.463410854E0
6.717311740E-1,9.055039406E0,-2.219343036E-1,1.908874273E0
6.739708590E-1,9.186046600E0,-2.374876440E-1,1.695314884E0
6.762056610E-1,9.326025963E0,-2.811566591E-1,1.439282775E0
6.784411960E-1,9.456435204E0,-3.302095234E-1,1.240678549E0
6.806776460E-1,9.595218658E0,-4.127618968E-1,1.074975610E0
6.829140360E-1,9.676574707E0,-4.995017350E-1,9.661021233E-1
6.851506080E-1,9.809974670E0,-5.539384484E-1,9.433703423E-1
6.873873020E-1,9.870991707E0,-6.412764788E-1,9.583254457E-1
6.896193580E-1,9.960722923E0,-6.813562512E-1,1.016949654E0
6.918378030E-1,1.002114105E1,-7.543373108E-1,1.103091240E0
6.940768170E-1,1.006361389E1,-7.884350419E-1,1.194018483E0
6.963093610E-1,1.002831936E1,-8.267202377E-1,1.284347534E0
6.985419050E-1,9.964311600E0,-8.697910309E-1,1.417747378E0
7.007744490E-1,9.891928673E0,-8.685946465E-1,1.488335729E0
7.030069930E-1,9.829116821E0,-8.775677085E-1,1.545165181E0
7.052395370E-1,9.766903877E0,-8.721838593E-1,1.568495274E0
7.075029630E-1,9.718449593E0,-8.859425783E-1,1.606182218E0
7.097402070E-1,9.680164337E0,-8.853443861E-1,1.639083505E0
7.119938090E-1,9.646664619E0,-8.703892231E-1,1.648654819E0
7.142283050E-1,9.607781410E0,-8.943174481E-1,1.686341763E0
7.164655500E-1,9.583254814E0,-8.985049129E-1,1.719243050E0
7.186991310E-1,9.568898201E0,-8.937192559E-1,1.738385677E0
7.209358250E-1,9.553942680E0,-8.985049129E-1,1.771286964E0
7.231727630E-1,9.525228500E0,-9.080761671E-1,1.795215130E0
7.254103120E-1,9.486943245E0,-9.026923180E-1,1.813759565E0
7.276443820E-1,9.462417603E0,-9.020941257E-1,1.832902193E0
7.298784520E-1,9.438488960E0,-8.829515576E-1,1.846660852E0
7.321183810E-1,9.400203705E0,-8.775677085E-1,1.860419631E0
7.343548310E-1,9.410373688E0,-8.440681696E-1,1.846660852E0
7.365898160E-1,9.406186104E0,-8.153542876E-1,1.865205288E0
7.388284640E-1,9.391828537E0,-8.153542876E-1,1.846062660E0
7.410652200E-1,9.358329773E0,-8.147560954E-1,1.865205288E0
7.433025850E-1,9.373284340E0,-7.860422134E-1,1.836491346E0
7.455386690E-1,9.397212982E0,-7.914260626E-1,1.841277003E0
7.477758520E-1,9.378069878E0,-7.812566161E-1,1.807777524E0
7.500112040E-1,9.373284340E0,-7.860422134E-1,1.788634896E0
7.522478370E-1,9.373882294E0,-7.716853023E-1,1.769492388E0
7.544822110E-1,9.369096756E0,-7.806583643E-1,1.759921074E0
7.567095060E-1,9.407382011E0,-7.812566161E-1,1.727019787E0
7.589458350E-1,9.431310654E0,-7.914260626E-1,1.718046665E0
7.611941260E-1,9.479764938E0,-7.728816867E-1,1.694118381E0
7.634333830E-1,9.537193298E0,-7.926225066E-1,1.685145378E0
7.656714820E-1,9.604191780E0,-7.986045480E-1,1.671386600E0
7.679040870E-1,9.643074989E0,-7.698906660E-1,1.643270969E0
7.701404150E-1,9.667003632E0,-8.279166222E-1,1.596012712E0
7.723769870E-1,9.710074425E0,-8.093722463E-1,1.606182218E0
7.746138040E-1,9.714262009E0,-8.237292171E-1,1.615753531E0
7.768504370E-1,9.738788605E0,-8.285148144E-1,1.591825247E0
7.790869480E-1,9.766903877E0,-8.578268886E-1,1.601994753E0
7.813237640E-1,9.747760773E0,-8.530412912E-1,1.596610904E0
7.835610690E-1,9.752547264E0,-8.673982024E-1,1.578066587E0
7.857967260E-1,9.771689415E0,-8.578268886E-1,1.578066587E0
7.880334810E-1,9.776474953E0,-8.769695163E-1,1.549352646E0
7.902695650E-1,9.795618057E0,-8.673982024E-1,1.544566989E0
7.925031470E-1,9.786046028E0,-8.961120844E-1,1.554138303E0
7.947279400E-1,9.781260490E0,-9.056833982E-1,1.544566989E0
7.969714700E-1,9.747162819E0,-9.146564603E-1,1.539781332E0
7.992163430E-1,9.771091461E0,-9.439685345E-1,1.530210137E0
8.014568820E-1,9.781260490E0,-9.343972206E-1,1.492523074E0
8.036912570E-1,9.771091461E0,-9.481559992E-1,1.478166223E0
8.059258150E-1,9.751948357E0,-9.667003751E-1,1.454237938E0
8.081621440E-1,9.718449593E0,-9.762716293E-1,1.453639746E0
8.103989600E-1,9.723833084E0,-9.571290612E-1,1.429711580E0
8.126355320E-1,9.718449593E0,-9.900303483E-1,1.420140266E0
8.148721040E-1,9.694520950E0,-9.852447510E-1,1.429711580E0
8.171089210E-1,9.699306488E0,-1.009172916E0,1.415354609E0
8.193462250E-1,9.708279610E0,-1.023529887E0,1.439282775E0
8.215801730E-1,9.703494072E0,-1.023529887E0,1.444068432E0
8.238117410E-1,9.655637741E0,-1.027717352E0,1.443470240E0
8.260544780E-1,9.678967476E0,-1.042672515E0,1.467996716E0
8.282915380E-1,9.674181938E0,-1.056431174E0,1.463211060E0
8.305297580E-1,9.650253296E0,-1.046859860E0,1.467398524E0
8.327647440E-1,9.602396965E0,-1.046261668E0,1.466800332E0
8.349985080E-1,9.578469276E0,-1.026520967E0,1.466800332E0
8.372268410E-1,9.540184021E0,-1.001994491E0,1.490130305E0
8.394743990E-1,9.550353050E0,-9.786644578E-1,1.499701619E0
8.417109720E-1,9.550353050E0,-9.690931439E-1,1.523629785E0
8.439503510E-1,9.545567513E0,-9.451649189E-1,1.566700578E0
8.461843600E-1,9.530612946E0,-9.451649189E-1,1.604387641E0
8.484206880E-1,9.521639824E0,-9.068797827E-1,1.647458434E0
8.506572610E-1,9.535398483E0,-9.074779749E-1,1.680957913E0
8.528940160E-1,9.501898766E0,-8.925228715E-1,1.718644857E0
8.551313820E-1,9.487542152E0,-8.781659007E-1,1.733001828E0
8.573669770E-1,9.454042435E0,-8.542376757E-1,1.780260086E0
8.595992160E-1,9.415757179E0,-8.440681696E-1,1.817947030E0
8.618225440E-1,9.391828537E0,-8.392825127E-1,1.826920033E0
8.640766940E-1,9.377471924E0,-8.051848412E-1,1.826920033E0
8.663135710E-1,9.373284340E0,-7.908278704E-1,1.841277003E0
8.685553920E-1,9.334999084E0,-7.854440212E-1,1.811964989E0
8.707867160E-1,9.320044518E0,-7.950153351E-1,1.835893154E0
8.730242040E-1,9.315258980E0,-8.141579032E-1,1.840678811E0
8.752592510E-1,9.320044518E0,-8.093722463E-1,1.835893154E0
8.774961280E-1,9.348757744E0,-8.189435601E-1,1.812563181E0
8.797323950E-1,9.329615593E0,-8.476574421E-1,1.798206210E0
8.819693940E-1,9.343374252E0,-8.572286963E-1,1.798206210E0
8.842063330E-1,9.386445045E0,-9.008977413E-1,1.779661894E0
8.864423560E-1,9.443872452E0,-9.014959335E-1,1.756331801E0
8.886790500E-1,9.443274498E0,-9.541380405E-1,1.765903115E0
8.909137300E-1,9.476774216E0,-9.643075466E-1,1.770688772E0
8.931404150E-1,9.485747337E0,-9.738788009E-1,1.761715651E0
8.953887670E-1,9.504889488E0,-1.007378340E0,1.728216171E0
8.976249730E-1,9.504889488E0,-1.007976532E0,1.737787485E0
8.998648410E-1,9.519247055E0,-1.027119160E0,1.723430514E0
9.020986670E-1,9.509675026E0,-1.050449133E0,1.680957913E0
9.043350560E-1,9.528220177E0,-1.070189953E0,1.680957913E0
9.065721160E-1,9.561718941E0,-1.089332461E0,1.652842283E0
9.088092990E-1,9.556933403E0,-1.094118118E0,1.648056626E0
9.110447730E-1,9.542576790E0,-1.108475089E0,1.647458434E0
9.132814670E-1,9.552147865E0,-1.103689432E0,1.628913999E0
9.155175510E-1,9.571290970E0,-1.094118118E0,1.628913999E0
9.177544290E-1,9.556933403E0,-1.113260746E0,1.595414519E0
9.199910010E-1,9.552745819E0,-1.107876897E0,1.595414519E0
9.222278780E-1,9.576076508E0,-1.122832060E0,1.576271892E0
9.244646950E-1,9.556933403E0,-1.136590719E0,1.557129383E0
9.266989470E-1,9.610174179E0,-1.109073281E0,1.552941918E0
9.289252660E-1,9.620343208E0,-1.089332461E0,1.496112347E0
9.311738620E-1,9.649057388E0,-1.104287624E0,1.491326690E0
9.334103740E-1,9.605986595E0,-1.084546804E0,1.495514154E0
9.356471290E-1,9.597013474E0,-1.079761267E0,1.476371527E0
9.378724090E-1,9.611370087E0,-1.051047325E0,1.500299811E0
9.401213110E-1,9.635298729E0,-1.070788145E0,1.520040631E0
9.423570290E-1,9.625128746E0,-1.104287624E0,1.538584948E0
9.445974460E-1,9.591629982E0,-1.051047325E0,1.562513232E0
9.468298680E-1,9.586843491E0,-1.055832982E0,1.562513232E0
9.490666840E-1,9.567701340E0,-1.046261668E0,1.595414519E0
9.513027080E-1,9.563513756E0,-1.012762189E0,1.619342685E0
9.535395240E-1,9.524630547E0,-1.021735311E0,1.666600943E0
9.557731660E-1,9.528818130E0,-1.027119160E0,1.728814363E0
9.580010720E-1,9.509077072E0,-1.017547846E0,1.766501307E0
9.602498510E-1,9.547362328E0,-1.008574724E0,1.823929071E0
9.624871560E-1,9.604789734E0,-1.009771109E0,1.814955950E0
9.647256810E-1,9.588638306E0,-1.071984529E0,1.929213285E0
9.669592020E-1,9.792626381E0,-9.972088337E-1,1.692921996E0
9.691953470E-1,9.504291534E0,-1.041476011E0,1.766501307E0
9.714324070E-1,9.605986595E0,-9.948160052E-1,1.710269928E0
9.736689790E-1,9.664012909E0,-9.714859724E-1,1.696511269E0
9.759056130E-1,9.595218658E0,-1.033101201E0,1.743769526E0
9.781424290E-1,9.633503914E0,-1.038485050E0,1.786840320E0
9.803799170E-1,9.609575272E0,-1.057029366E0,1.762912035E0
9.826152680E-1,9.527621269E0,-1.070788145E0,1.804786444E0
9.848518410E-1,9.494122505E0,-1.079162955E0,1.766501307E0
9.870881080E-1,9.542576790E0,-1.061216831E0,1.757528186E0
9.893249850E-1,9.552147865E0,-1.055832982E0,1.714457393E0
9.915614970E-1,9.513862610E0,-1.060020447E0,1.704886079E0
9.937978860E-1,9.528220177E0,-1.060618639E0,1.690529227E0
9.960350070E-1,9.558130264E0,-1.036690354E0,1.648056626E0
9.982724950E-1,9.506086349E0,-1.006780148E0,1.604387641E0
1.000507908E0,9.439684868E0,-9.768698215E-1,1.565504193E0
1.002744419E0,9.454640388E0,-9.391828775E-1,1.560718536E0
1.004976047E0,9.407382011E0,-8.955138922E-1,1.536790371E0
1.007199009E0,9.451051712E0,-8.769695163E-1,1.541576028E0
1.009454380E0,9.484550476E0,-8.578268886E-1,1.523031592E0
1.011691684E0,9.456435204E0,-8.476574421E-1,1.465603828E0
1.013932163E0,9.519845009E0,-8.009973764E-1,1.456032634E0
1.016161960E0,9.524630547E0,-8.105686903E-1,1.442273855E0
1.018385837E0,9.586843491E0,-7.920243144E-1,1.442872047E0
1.020625522E0,9.548559189E0,-7.818548083E-1,1.437488198E0
1.022873264E0,9.582656860E0,-7.872386575E-1,1.385444283E0
1.025109775E0,9.683155060E0,-7.938188910E-1,1.400399446E0
1.027338474E0,9.717252731E0,-7.890332937E-1,1.329213023E0
1.029586704E0,9.684351921E0,-7.932206988E-1,1.276570916E0
1.031820163E0,9.712467194E0,-8.171489239E-1,1.243669510E0
1.034057895E0,9.703494072E0,-7.926225066E-1,1.210170031E0
1.036282199E0,9.751948357E0,-7.938188910E-1,1.186840057E0
1.038529819E0,9.742377281E0,-8.075776696E-1,1.182054400E0
1.040765903E0,9.805189133E0,-7.704889178E-1,1.144367456E0
1.043005222E0,9.852447510E0,-7.998009920E-1,1.177866936E0
1.045239231E0,9.929018021E0,-8.009973764E-1,1.164108157E0
1.047473362E0,1.003908730E1,-8.075776696E-1,1.184447169E0
1.049702671E0,1.008634567E1,-8.368897438E-1,1.247258782E0
1.051950046E0,1.004327488E1,-8.362914920E-1,1.203589797E0
1.054182895E0,9.943374634E0,-8.392825127E-1,1.155135155E0
1.056410007E0,9.900303841E0,-8.338986635E-1,1.111466169E0
1.058646763E0,9.872187614E0,-8.189435601E-1,1.077966571E0
1.060895237E0,9.724431038E0,-7.782655358E-1,1.033699393E0
1.063134800E0,9.572486877E0,-7.184450030E-1,1.008574724E0
1.065371372E0,9.553942680E0,-6.610172391E-1,1.046261668E0
1.067605259E0,9.553942680E0,-6.275177598E-1,1.041476011E0
1.069842563E0,9.520442963E0,-5.982056856E-1,1.103091240E0
1.072078159E0,9.573084831E0,-5.898307562E-1,1.141974568E0
1.074314731E0,9.621540070E0,-5.569294691E-1,1.141974568E0
1.076551060E0,9.659226418E0,-5.623133183E-1,1.176072359E0
1.078787876E0,9.674181938E0,-5.437689424E-1,1.156929731E0
1.081024753E0,9.634700775E0,-5.814558864E-1,1.228116274E0
1.083262241E0,9.605986595E0,-5.814558864E-1,1.261017561E0
1.085497898E0,9.643673897E0,-6.011967063E-1,1.271187067E0
1.087735386E0,9.677172661E0,-6.059823632E-1,1.252642632E0
1.089970432E0,9.672387123E0,-6.155536175E-1,1.247856975E0
1.092207309E0,9.690931320E0,-6.496513486E-1,1.247856975E0
1.094443638E0,9.744172096E0,-6.598208547E-1,1.219741344E0
1.096680759E0,9.757930756E0,-6.693921089E-1,1.224527001E0
1.098917270E0,9.766903877E0,-7.124629617E-1,1.248455167E0
1.101153599E0,9.767501831E0,-7.124629617E-1,1.210768223E0
1.103390415E0,9.776474953E0,-7.417750359E-1,1.229910851E0
1.105627903E0,9.809376717E0,-7.567301393E-1,1.272981644E0
1.107860568E0,9.780662537E0,-7.465606928E-1,1.286740422E0
1.110088962E0,9.746564865E0,-7.794619799E-1,1.291526079E0
1.112336521E0,9.718449593E0,-7.411768436E-1,1.290927768E0
1.114573581E0,9.684351921E0,-7.692924738E-1,1.290927768E0
1.116812657E0,9.708279610E0,-7.645068169E-1,1.295713425E0
1.119046360E0,9.646066666E0,-7.830511928E-1,1.295115232E0
1.121282932E0,9.641280174E0,-7.776673436E-1,1.280758262E0
1.123520542E0,9.535996437E0,-7.668996453E-1,1.280160069E0
1.125756138E0,9.497711182E0,-7.806583643E-1,1.274776220E0
1.127992710E0,9.492327690E0,-7.806583643E-1,1.303490162E0
1.130229282E0,9.473783493E0,-7.465606928E-1,1.289133191E0
1.132453891E0,9.445667267E0,-7.268198729E-1,1.264606714E0
1.134690464E0,9.450452805E0,-7.274180651E-1,1.255035520E0
1.136927036E0,9.416953087E0,-7.357929349E-1,1.226321578E0
1.139163608E0,9.407382011E0,-7.262216806E-1,1.216750264E0
1.141401218E0,9.470193863E0,-7.322037220E-1,1.207777262E0
1.143636509E0,9.517452240E0,-7.375875711E-1,1.222732425E0
1.145873325E0,9.628120422E0,-7.345965505E-1,1.218544960E0
1.148110019E0,9.613762856E0,-7.339983582E-1,1.228116274E0
1.150347202E0,9.665806770E0,-7.639086246E-1,1.228714466E0
1.152583591E0,9.699306488E0,-7.740781307E-1,1.223928809E0
1.154821018E0,9.718449593E0,-7.788637877E-1,1.181456208E0
1.157056430E0,9.737591743E0,-7.836494446E-1,1.167099237E0
1.159294773E0,9.742377281E0,-7.884350419E-1,1.158126116E0
1.161530491E0,9.742377281E0,-8.027920127E-1,1.167697430E0
1.163767001E0,9.728020668E0,-8.123632669E-1,1.167099237E0
1.166005588E0,9.775876999E0,-7.794619799E-1,1.186840057E0
1.168239231E0,9.766305923E0,-7.794619799E-1,1.196411371E0
1.170476963E0,9.737591743E0,-7.645068169E-1,1.214955688E0
1.172717808E0,9.756733894E0,-7.555337548E-1,1.238883972E0
1.174956699E0,9.757332802E0,-7.316055298E-1,1.205384374E0
1.177188266E0,9.785448074E0,-7.513462901E-1,1.229910851E0
1.179421359E0,9.781859398E0,-7.124629617E-1,1.196411371E0
1.181658603E0,9.724431038E0,-7.214360237E-1,1.186241865E0
1.183896275E0,9.719645500E0,-7.022934556E-1,1.152742267E0
1.186131626E0,9.744172096E0,-6.927221417E-1,1.157527924E0
1.188368198E0,9.759127617E0,-6.640082598E-1,1.119840980E0
1.190604954E0,9.764511108E0,-6.448656917E-1,1.086341500E0
1.192842441E0,9.754341125E0,-6.592226624E-1,1.081555843E0
1.195079319E0,9.768698692E0,-6.640082598E-1,1.086341500E0
1.197314548E0,9.754341125E0,-6.735795736E-1,1.076770186E0
1.199551792E0,9.707083702E0,-6.675975323E-1,1.047458172E0
1.201791049E0,9.677172661E0,-6.963114142E-1,1.080957651E0
1.204039402E0,9.725028992E0,-7.064808607E-1,1.090528965E0
1.206275546E0,9.744172096E0,-7.214360237E-1,1.095912814E0
1.208512180E0,9.753743172E0,-7.310073376E-1,1.081555843E0
1.210746311E0,9.757930756E0,-7.310073376E-1,1.110269666E0
1.212983494E0,9.724431038E0,-7.447660565E-1,1.091127157E0
1.215219272E0,9.690931320E0,-7.489534616E-1,1.071386337E0
1.217455600E0,9.667003632E0,-7.633104324E-1,1.085743308E0
1.219692173E0,9.699904442E0,-7.878368497E-1,1.114457130E0
1.221925693E0,9.738189697E0,-7.740781307E-1,1.152742267E0
1.224153598E0,9.689735413E0,-7.974081635E-1,1.181456208E0
1.226402866E0,9.655637741E0,-7.920243144E-1,1.214357495E0
1.228639011E0,9.612566948E0,-8.153542876E-1,1.213759303E0
1.230879307E0,9.646066666E0,-7.968099117E-1,1.209571838E0
1.233111667E0,9.641280174E0,-8.015955687E-1,1.223928809E0
1.235348301E0,9.636494637E0,-7.872386575E-1,1.237687469E0
1.237584202E0,9.631111145E0,-8.111668825E-1,1.256830096E0
1.239821323E0,9.616754532E0,-8.063812256E-1,1.252044439E0
1.242058079E0,9.669994354E0,-8.069794178E-1,1.238285661E0
1.244294590E0,9.683753014E0,-8.261220455E-1,1.262213945E0
1.246531589E0,9.659825325E0,-8.165507317E-1,1.238285661E0
1.248768772E0,9.626325607E0,-8.398807645E-1,1.233500123E0
1.251004184E0,9.602396965E0,-8.440681696E-1,1.223330617E0
1.253240757E0,9.530612946E0,-8.380861282E-1,1.208375454E0
1.255477268E0,9.531210899E0,-8.333004713E-1,1.179661512E0
1.257710971E0,9.507282257E0,-8.327022791E-1,1.136590719E0
1.259938755E0,9.535996437E0,-8.380861282E-1,1.127617717E0
1.262187046E0,9.594022751E0,-8.243274093E-1,1.113858938E0
1.264424167E0,9.574879646E0,-8.051848412E-1,1.122832060E0
1.266664402E0,9.598808289E0,-8.003991842E-1,1.104287624E0
1.268897068E0,9.618548393E0,-7.860422134E-1,1.104287624E0
1.271133518E0,9.613762856E0,-7.956135273E-1,1.085145116E0
1.273369602E0,9.623334885E0,-7.674978375E-1,1.113858938E0
1.275606418E0,9.643074989E0,-7.674978375E-1,1.080359459E0
1.277843052E0,9.686145782E0,-7.489534616E-1,1.095314622E0
1.280079929E0,9.667003632E0,-7.585247755E-1,1.100100160E0
1.282316745E0,9.637691498E0,-7.722834945E-1,1.085145116E0
1.284554050E0,9.628120422E0,-7.818548083E-1,1.099501967E0
1.286786533E0,9.637691498E0,-7.866404653E-1,1.099501967E0
1.289010898E0,9.604191780E0,-7.908278704E-1,1.089930773E0
1.291250217E0,9.637691498E0,-7.962117195E-1,1.061815023E0
1.293498997E0,9.647860527E0,-7.914260626E-1,1.042672515E0
1.295738926E0,9.699904442E0,-8.111668825E-1,1.048056364E0
1.297976475E0,9.737591743E0,-8.548358679E-1,1.052842021E0
1.300209323E0,9.728618622E0,-8.452646136E-1,1.033699393E0
1.302446628E0,9.732806206E0,-8.787640929E-1,1.015154958E0
1.304681980E0,9.742377281E0,-8.883354068E-1,1.010369420E0
1.306918979E0,9.747162819E0,-8.883354068E-1,1.010369420E0
1.309155003E0,9.718449593E0,-9.068797827E-1,9.720842242E-1
1.311391697E0,9.736993790E0,-9.122636318E-1,1.024726272E0
1.313628635E0,9.746564865E0,-9.170492887E-1,1.015154958E0
1.315864963E0,9.751350403E0,-9.026923180E-1,1.039083242E0
1.318101657E0,9.736993790E0,-9.074779749E-1,1.062413216E0
1.320339084E0,9.722636223E0,-8.979067206E-1,1.086341500E0
1.322574741E0,9.731609344E0,-9.170492887E-1,1.134197950E0
1.324811313E0,9.735796928E0,-9.361918569E-1,1.119840980E0
1.327045383E0,9.740582466E0,-9.224331379E-1,1.134197950E0
1.329276401E0,9.721440315E0,-9.314061999E-1,1.148554921E0
1.331520969E0,9.717252731E0,-9.170492887E-1,1.124626637E0
1.333757419E0,9.717252731E0,-9.074779749E-1,1.081555843E0
1.335996433E0,9.713065147E0,-9.116654396E-1,1.033699393E0
1.338231724E0,9.703494072E0,-9.212366939E-1,1.000199914E0
1.340467441E0,9.703494072E0,-9.254241586E-1,9.816554785E-1
1.342704197E0,9.684949875E0,-9.206385016E-1,9.475577474E-1
1.344937412E0,9.665806770E0,-9.296116233E-1,9.188438654E-1
1.347164829E0,9.656235695E0,-9.248259664E-1,8.901300430E-1
1.349413547E0,9.660423279E0,-9.631111026E-1,8.949156404E-1
1.351650120E0,9.656235695E0,-9.625129104E-1,8.763712645E-1
1.353890049E0,9.660423279E0,-9.864411354E-1,8.715856671E-1
1.356124607E0,9.670592308E0,-9.678967595E-1,8.715856671E-1
1.358361118E0,9.674779892E0,-9.822536707E-1,9.146564603E-1
1.360596470E0,9.703494072E0,-9.732806087E-1,9.098708034E-1
1.362832798E0,9.698110580E0,-9.732806087E-1,9.577272534E-1
1.365066379E0,9.750752449E0,-9.744769931E-1,9.816554785E-1
1.367291721E0,9.751350403E0,-9.409775138E-1,9.768698215E-1
1.369531833E0,9.770493507E0,-9.218349457E-1,1.015154958E0
1.371779819E0,9.775279045E0,-9.176474810E-1,1.019940615E0
1.374018039E0,9.795019150E0,-8.889335990E-1,1.010967612E0
1.376248142E0,9.805189133E0,-8.554341197E-1,1.025324464E0
1.378489048E0,9.800403595E0,-8.315058947E-1,1.034297585E0
1.380725620E0,9.805189133E0,-8.273184299E-1,1.039083242E0
1.382964023E0,9.801001549E0,-7.938188910E-1,1.043868899E0
1.385196079E0,9.781859398E0,-7.836494446E-1,1.072582722E0
1.387422519E0,9.801001549E0,-7.555337548E-1,1.072582722E0
1.389668064E0,9.801001549E0,-7.698906660E-1,1.086939692E0
1.391906650E0,9.796813965E0,-7.316055298E-1,1.086939692E0
1.394133030E0,9.782457352E0,-7.357929349E-1,1.072582722E0
1.396370761E0,9.762716293E0,-7.501499057E-1,1.091127157E0
1.398618137E0,9.748359680E0,-7.310073376E-1,1.105484009E0
1.400857822E0,9.758528709E0,-7.166503668E-1,1.071984529E0
1.403094578E0,9.739386559E0,-7.351947427E-1,1.091127157E0
1.405327915E0,9.748359680E0,-7.501499057E-1,1.095912814E0
1.407564975E0,9.733404160E0,-7.782655358E-1,1.091127157E0
1.409802036E0,9.734002113E0,-7.734799385E-1,1.062413216E0
1.412037876E0,9.734002113E0,-7.830511928E-1,1.067198873E0
1.414271213E0,9.729216576E0,-7.686942816E-1,1.057627559E0
1.416498875E0,9.686145782E0,-7.824530005E-1,1.042672515E0
1.418747593E0,9.667003632E0,-7.818548083E-1,1.033101201E0
1.420981235E0,9.662218094E0,-7.866404653E-1,1.047458172E0
1.423211764E0,9.661619186E0,-8.009973764E-1,1.080957651E0
1.425457553E0,9.637691498E0,-7.818548083E-1,1.109073281E0
1.427694797E0,9.637691498E0,-7.770691514E-1,1.094716311E0
1.429933201E0,9.628120422E0,-7.818548083E-1,1.113858938E0
1.432167026E0,9.637691498E0,-7.627122402E-1,1.104287624E0
1.434403355E0,9.628718376E0,-7.435696125E-1,1.113858938E0
1.436640232E0,9.589835167E0,-7.573283911E-1,1.127617717E0
1.438876987E0,9.561120987E0,-7.423732281E-1,1.146760225E0
1.441114292E0,9.585647583E0,-7.334001660E-1,1.118046403E0
1.443350132E0,9.619745255E0,-6.957131624E-1,1.142572761E0
1.445587436E0,9.605388641E0,-6.813562512E-1,1.146760225E0
1.447822788E0,9.586245537E0,-6.855437160E-1,1.151545882E0
1.450059543E0,9.576674461E0,-6.711867452E-1,1.156331539E0
1.452295689E0,9.567103386E0,-6.855437160E-1,1.137188911E0
1.454532749E0,9.596415520E0,-6.568298340E-1,1.141974568E0
1.456769260E0,9.601201057E0,-6.472585201E-1,1.118046403E0
1.459002780E0,9.635298729E0,-6.478567123E-1,1.080359459E0
1.461230991E0,9.635298729E0,-6.478567123E-1,1.061216831E0
1.463480015E0,9.630513191E0,-6.616154313E-1,1.022931695E0
1.465715671E0,9.640084267E0,-6.664010882E-1,1.018744230E0
1.467955113E0,9.664012909E0,-6.765705943E-1,9.948160052E-1
1.470188450E0,9.664012909E0,-6.957131624E-1,9.804590940E-1
1.472425083E0,9.649057388E0,-7.334001660E-1,9.900303483E-1
1.474661899E0,9.643673897E0,-7.477570772E-1,9.948160052E-1
1.476898472E0,9.643673897E0,-7.621139884E-1,9.756734371E-1
1.479135349E0,9.643074989E0,-7.908278704E-1,1.004387259E0
1.481372593E0,9.643074989E0,-8.051848412E-1,9.948160052E-1
1.483608188E0,9.628120422E0,-8.386843204E-1,1.018744230E0
1.485844761E0,9.666405678E0,-8.249256015E-1,1.023529887E0
1.488079502E0,9.689735413E0,-8.398807645E-1,1.062413216E0
1.490311497E0,9.665208817E0,-8.632107973E-1,1.080957651E0
1.492554172E0,9.635896683E0,-9.014959335E-1,1.090528965E0
1.494790806E0,9.626325607E0,-9.296116233E-1,1.100100160E0
1.497029575E0,9.616155624E0,-9.439685345E-1,1.109671474E0
1.499265720E0,9.577272415E0,-9.625129104E-1,1.123430252E0
1.501500827E0,9.553344727E0,-9.816554785E-1,1.128215909E0
1.503737400E0,9.524032593E0,-9.858429432E-1,1.141974568E0
1.505973789E0,9.523433685E0,-1.019342422E0,1.156331539E0
1.508210483E0,9.552745819E0,-1.024726272E0,1.147358418E0
1.510447300E0,9.503693581E0,-1.076770186E0,1.151545882E0
1.512684543E0,9.508479118E0,-1.081555843E0,1.141974568E0
1.514921970E0,9.527621269E0,-1.086341500E0,1.170688510E0
1.517163852E0,9.493523598E0,-1.104885817E0,1.161117196E0
1.519393101E0,9.493523598E0,-1.104885817E0,1.151545882E0
1.521629917E0,9.498309135E0,-1.114457130E0,1.141974568E0
1.523864658E0,9.474979401E0,-1.085743308E0,1.150947690E0
1.526099887E0,9.518050194E0,-1.071984529E0,1.146760225E0
1.528327915E0,9.541978836E0,-1.077368379E0,1.151545882E0
1.530576267E0,9.527621269E0,-1.062413216E0,1.151545882E0
1.532813327E0,9.561718941E0,-1.058225870E0,1.137787223E0
1.535050510E0,9.614361763E0,-1.044467092E0,1.124028444E0
1.537274936E0,9.604789734E0,-1.034895778E0,1.137787223E0
1.539522495E0,9.595816612E0,-1.025324464E0,1.118644595E0
1.541759067E0,9.614959717E0,-1.015753269E0,1.104885817E0
1.543998387E0,9.605986595E0,-9.966106415E-1,1.099501967E0
1.546232212E0,9.582656860E0,-9.768698215E-1,1.075573802E0
1.548468723E0,9.554540634E0,-9.284151793E-1,1.051645517E0
1.550705600E0,9.559925079E0,-9.092726111E-1,1.018146038E0
1.552939975E0,9.617352486E0,-9.050851464E-1,9.996016622E-1
1.555163852E0,9.689137459E0,-9.206385016E-1,1.004985452E0
1.557400363E0,9.722636223E0,-9.164510965E-1,1.024128079E0
1.559639500E0,9.784850121E0,-9.272187948E-1,1.019940615E0
1.561891453E0,9.823135376E0,-9.230313301E-1,9.870393276E-1
1.564127903E0,9.862018585E0,-9.140582681E-1,9.972088337E-1
1.566364108E0,9.847661972E0,-9.278169870E-1,9.732806087E-1
1.568598117E0,9.838089943E0,-9.182456732E-1,9.822536707E-1
1.570835483E0,9.838688850E0,-8.943174481E-1,9.493523836E-1
1.573071445E0,9.857831001E0,-8.943174481E-1,9.302098155E-1
1.575307956E0,9.848857880E0,-8.847461939E-1,9.062815905E-1
1.577544224E0,9.810572624E0,-8.787640929E-1,8.871390224E-1
1.579780796E0,9.796216011E0,-8.691928387E-1,8.626125455E-1
1.582017856E0,9.811170578E0,-8.787640929E-1,8.392825127E-1
1.584255161E0,9.835099220E0,-8.745766878E-1,8.344969153E-1
1.586491062E0,9.825528145E0,-8.787640929E-1,8.009973764E-1
1.588728245E0,9.801599503E0,-8.781659007E-1,7.866404653E-1
1.590960483E0,9.787840843E0,-8.685946465E-1,7.627122402E-1
1.593187229E0,9.792028427E0,-8.781659007E-1,7.770691514E-1
1.595427707E0,9.777671814E0,-8.877372146E-1,7.627122402E-1
1.597661655E0,9.782457352E0,-8.925228715E-1,7.579265833E-1
1.599912814E0,9.777671814E0,-9.014959335E-1,7.531409264E-1
1.602148044E0,9.772287369E0,-9.302098155E-1,7.483552694E-1
1.604386631E0,9.787242889E0,-9.260223508E-1,7.483552694E-1
1.606621189E0,9.786644936E0,-9.445667267E-1,7.339983582E-1
1.608856479E0,9.781859398E0,-9.637092948E-1,7.292127013E-1
1.611092808E0,9.791430473E0,-9.786644578E-1,7.298108935E-1
1.613329258E0,9.801001549E0,-9.690931439E-1,7.106683254E-1
1.615565891E0,9.786046028E0,-9.924231768E-1,7.250252366E-1
1.617802585E0,9.786046028E0,-9.828519225E-1,7.345965505E-1
1.620038792E0,9.766903877E0,-9.876375198E-1,7.244270444E-1
1.622273960E0,9.762118340E0,-9.924231768E-1,7.435696125E-1
1.624513279E0,9.719047546E0,-1.010967612E0,7.339983582E-1
1.626746128E0,9.680164337E0,-1.019940615E0,7.429714203E-1
1.628971530E0,9.632308006E0,-1.033699393E0,7.567301393E-1
1.631210300E0,9.632308006E0,-1.024128079E0,7.519445419E-1
1.633458774E0,9.637093544E0,-1.028913736E0,7.567301393E-1
1.635695347E0,9.617352486E0,-1.033699393E0,7.854440212E-1
1.637923130E0,9.593423843E0,-1.042672515E0,7.848458290E-1
1.640168735E0,9.593423843E0,-1.028315544E0,7.896314859E-1
1.642406040E0,9.588638306E0,-1.028315544E0,8.039883971E-1
1.644644505E0,9.579067230E0,-1.018744230E0,7.992027402E-1
1.646877964E0,9.564710617E0,-1.018744230E0,8.231309652E-1
1.649114536E0,9.540184021E0,-1.027717352E0,8.416753411E-1
1.651351352E0,9.525827408E0,-1.037288666E0,8.847461939E-1
1.653588230E0,9.534799576E0,-1.046859860E0,8.751748800E-1
1.655825474E0,9.577870369E0,-1.061815023E0,8.943174481E-1
1.658058383E0,9.568299294E0,-1.047458172E0,9.038887620E-1
1.660286899E0,9.611370087E0,-1.057627559E0,8.997012973E-1
1.662533970E0,9.644869804E0,-1.063011408E0,9.188438654E-1
1.664770786E0,9.659226418E0,-1.054038405E0,9.002995491E-1
1.667010105E0,9.674181938E0,-1.049252748E0,8.859425783E-1
1.669244175E0,9.702896118E0,-1.054038405E0,8.530412912E-1
1.671480503E0,9.708279610E0,-1.039681435E0,8.147560954E-1
1.673717075E0,9.737591743E0,-1.034895778E0,7.627122402E-1
1.675953891E0,9.756733894E0,-1.039681435E0,7.100701332E-1
1.678191501E0,9.771689415E0,-1.030708313E0,6.867401004E-1
1.680424106E0,9.791430473E0,-1.006780148E0,6.532405615E-1
1.682648715E0,9.782457352E0,-1.006181955E0,5.862415433E-1
1.684884495E0,9.811769485E0,-9.780662656E-1,5.676971674E-1
1.687120457E0,9.797411919E0,-9.774680734E-1,5.437689424E-1
1.689363743E0,9.821340561E0,-9.780662656E-1,5.198407173E-1
1.691597629E0,9.812367439E0,-9.678967595E-1,4.959124923E-1
1.693837925E0,9.779465675E0,-9.290133715E-1,4.911268353E-1
1.696086154E0,9.822537422E0,-9.248259664E-1,4.624129832E-1
1.698322605E0,9.832706451E0,-9.104689956E-1,4.582255483E-1
1.700558994E0,9.842277527E0,-8.919246197E-1,4.677968323E-1
1.702792515E0,9.861420631E0,-9.014959335E-1,4.247260094E-1
1.705026096E0,9.866206169E0,-9.014959335E-1,4.342973232E-1
1.707253391E0,9.856635094E0,-8.871390224E-1,4.582255483E-1
1.709499973E0,9.848259926E0,-8.679963946E-1,4.055834413E-1
1.711739048E0,9.853045464E0,-8.632107973E-1,4.151547253E-1
1.713979343E0,9.838688850E0,-8.482556343E-1,4.007977843E-1
1.716212680E0,9.872187614E0,-8.536394835E-1,3.960121572E-1
1.718448276E0,9.853643417E0,-8.249256015E-1,4.007977843E-1
1.720684849E0,9.844072342E0,-8.147560954E-1,4.055834413E-1
1.722921665E0,9.805787086E0,-8.237292171E-1,4.001995921E-1
1.725155856E0,9.805787086E0,-7.908278704E-1,4.049852192E-1
1.727384128E0,9.791430473E0,-7.950153351E-1,4.480560422E-1
1.729631870E0,9.753145218E0,-7.992027402E-1,4.378865361E-1
1.731868870E0,9.767501831E0,-7.902296782E-1,4.522434771E-1
1.734104221E0,9.767501831E0,-7.902296782E-1,4.474578202E-1
1.736329136E0,9.728618622E0,-7.992027402E-1,4.426721931E-1
1.738577671E0,9.710074425E0,-7.890332937E-1,4.468596280E-1
1.740814304E0,9.724431038E0,-7.800601721E-1,4.378865361E-1
1.743054050E0,9.757930756E0,-7.944171429E-1,4.283152521E-1
1.745287388E0,9.772287369E0,-7.902296782E-1,4.522434771E-1
1.747524509E0,9.753743172E0,-7.752745152E-1,4.091726840E-1
1.749761814E0,9.739386559E0,-7.896314859E-1,3.804588020E-1
1.751997593E0,9.734601021E0,-7.698906660E-1,3.708875179E-1
1.754230564E0,9.749555588E0,-7.609176040E-1,3.613162339E-1
1.756457798E0,9.739984512E0,-7.459624410E-1,3.517449200E-1
1.758707004E0,9.759127617E0,-7.322037220E-1,3.475574851E-1
1.760943699E0,9.764511108E0,-7.178468108E-1,3.332005441E-1
1.763183323E0,9.764511108E0,-7.322037220E-1,3.188436031E-1
1.765417026E0,9.759725571E0,-7.226324677E-1,3.092723191E-1
1.767654270E0,9.745966911E0,-6.981059909E-1,2.805584669E-1
1.769889683E0,9.736394882E0,-7.028916478E-1,2.709871531E-1
1.772126499E0,9.765109062E0,-7.268198729E-1,2.566302419E-1
1.774362827E0,9.784252167E0,-7.082754970E-1,2.566302419E-1
1.776599704E0,9.799206734E0,-7.082754970E-1,2.333002090E-1
1.778836216E0,9.774680138E0,-7.124629617E-1,2.327020019E-1
1.781072788E0,9.774680138E0,-7.220342159E-1,2.327020019E-1
1.783309604E0,9.779465675E0,-7.220342159E-1,2.237289101E-1
1.785546909E0,9.784850121E0,-7.268198729E-1,1.950150430E-1
1.787782505E0,9.789635658E0,-7.130611539E-1,1.998006850E-1
1.790019016E0,9.803992271E0,-6.987041831E-1,1.950150430E-1
1.792255100E0,9.808777809E0,-7.130611539E-1,2.141576260E-1
1.794491977E0,9.832706451E0,-7.088736892E-1,2.189432681E-1
1.796729038E0,9.836894035E0,-7.232306600E-1,2.428714931E-1
1.798966404E0,9.827322960E0,-7.328019142E-1,2.428714931E-1
1.801202243E0,9.789037704E0,-7.369893789E-1,2.572284341E-1
1.803439487E0,9.798010826E0,-7.417750359E-1,2.715853751E-1
1.805674839E0,9.793225288E0,-7.561319470E-1,2.476571500E-1
1.807911655E0,9.764511108E0,-7.363911867E-1,2.805584669E-1
1.810147983E0,9.750154495E0,-7.411768436E-1,2.709871531E-1
1.812384800E0,9.731609344E0,-7.220342159E-1,2.805584669E-1
1.814621433E0,9.697511673E0,-7.405785918E-1,2.799602449E-1
1.816858188E0,9.731011391E0,-7.363911867E-1,2.662015259E-1
1.819094760E0,9.711869240E0,-7.357929349E-1,2.608176768E-1
1.821333347E0,9.698110580E0,-7.262216806E-1,2.464607358E-1
1.823572727E0,9.711869240E0,-7.549355626E-1,2.279163599E-1
1.825804294E0,9.722038269E0,-7.453642488E-1,2.231307179E-1
1.828040745E0,9.702297211E0,-7.591229677E-1,2.231307179E-1
1.830275913E0,9.711869240E0,-7.932206988E-1,2.183450609E-1
1.832514194E0,9.678369522E0,-7.782655358E-1,1.944168359E-1
1.834750461E0,9.664012909E0,-8.063812256E-1,1.746760458E-1
1.836987400E0,9.668199539E0,-8.350951076E-1,1.657029688E-1
1.839224643E0,9.678369522E0,-8.303094506E-1,1.513460279E-1
1.841460483E0,9.654440880E0,-8.255237937E-1,1.513460279E-1
1.843696872E0,9.658628464E0,-8.488538265E-1,1.178465188E-1
1.845933384E0,9.673583984E0,-8.303094506E-1,1.034895778E-1
1.848169895E0,9.659825325E0,-8.153542876E-1,8.913264424E-2
1.850406528E0,9.687940598E0,-8.398807645E-1,7.058826834E-2
1.852643100E0,9.687940598E0,-8.494520187E-1,5.144568533E-2
1.854880222E0,9.659825325E0,-8.344969153E-1,3.170489892E-2
1.857114597E0,9.664610863E0,-8.434699774E-1,-2.033899166E-2
1.859341343E0,9.679565430E0,-8.344969153E-1,-4.905286431E-2
1.861589390E0,9.698708534E0,-8.297112584E-1,-6.759724021E-2
1.863825901E0,9.713663101E0,-8.105686903E-1,-9.631111473E-2
1.866065402E0,9.732806206E0,-8.159525394E-1,-7.716853172E-2
1.868299411E0,9.766903877E0,-8.063812256E-1,-1.100698411E-1
1.870536838E0,9.752547264E0,-8.063812256E-1,-1.148554832E-1
1.872772495E0,9.738189697E0,-8.105686903E-1,-1.250249892E-1
1.875006809E0,9.781260490E0,-8.015955687E-1,-1.339980662E-1
1.877233189E0,9.795618057E0,-8.213363886E-1,-1.339980662E-1
1.879482212E0,9.814760208E0,-8.165507317E-1,-1.148554832E-1
1.881718357E0,9.833304405E0,-8.362914920E-1,-9.511470050E-2
1.883958408E0,9.833304405E0,-8.410771489E-1,-9.990034252E-2
1.886190403E0,9.847661972E0,-8.458628058E-1,-9.032905847E-2
1.888420078E0,9.842277527E0,-8.602197170E-1,-8.075776696E-2
1.890655796E0,9.832108498E0,-8.841479421E-1,-6.640082598E-2
1.892902622E0,9.860821724E0,-8.991031051E-1,-6.161518395E-2
1.895140232E0,9.870393753E0,-9.086744189E-1,-4.247260094E-2
1.897379123E0,9.827322960E0,-8.937192559E-1,-3.349951655E-2
1.899611179E0,9.821938515E0,-9.176474810E-1,-9.571290575E-3
1.901848179E0,9.841081619E0,-9.182456732E-1,-8.973085321E-3
1.904083958E0,9.840482712E0,-9.373882413E-1,5.982056609E-4
1.906320835E0,9.816555023E0,-9.421738982E-1,2.871387079E-2
1.908557895E0,9.816555023E0,-9.278169870E-1,2.871387079E-2
1.910795444E0,9.806983948E0,-9.272187948E-1,9.571290575E-3
1.913030857E0,9.792626381E0,-9.224331379E-1,1.914258115E-2
1.915267307E0,9.759127617E0,-9.266205430E-1,2.333002165E-2
1.917503330E0,9.725627899E0,-9.116654396E-1,3.708875179E-2
1.919740329E0,9.707083702E0,-8.925228715E-1,2.273181453E-2
1.921977268E0,9.692726135E0,-8.775677085E-1,1.794617064E-2
1.924210544E0,9.678369522E0,-8.632107973E-1,3.230310604E-2
1.926438816E0,9.683753014E0,-8.392825127E-1,5.144568533E-2
1.928687717E0,9.702896118E0,-8.207381964E-1,2.273181453E-2
1.930923374E0,9.693922997E0,-8.015955687E-1,3.230310604E-2
1.933162631E0,9.684949875E0,-7.818548083E-1,1.316052489E-2
1.935396274E0,9.670592308E0,-7.674978375E-1,1.256231871E-2
1.937633091E0,9.670592308E0,-7.627122402E-1,-2.033899166E-2
1.939869968E0,9.671191216E0,-7.483552694E-1,-1.136590727E-2
1.942107212E0,9.666405678E0,-7.286145091E-1,-3.529413417E-2
1.944343052E0,9.686145782E0,-7.196413875E-1,-8.733802289E-2
1.946580417E0,9.681360245E0,-7.244270444E-1,-6.819544733E-2
1.948815952E0,9.729815483E0,-7.292127013E-1,-1.250249892E-1
1.951052524E0,9.763314247E0,-7.202396393E-1,-1.435693651E-1
1.953285862E0,9.749555588E0,-7.058826685E-1,-1.585244983E-1
1.955513645E0,9.778269768E0,-6.963114142E-1,-1.770688742E-1
1.957762180E0,9.783653259E0,-7.010970116E-1,-2.153540403E-1
1.959998630E0,9.821340561E0,-7.208378315E-1,-2.243271172E-1
1.962238865E0,9.840482712E0,-7.208378315E-1,-2.291127741E-1
1.964472995E0,9.869794846E0,-7.118647099E-1,-2.237289101E-1
1.966708896E0,9.863813400E0,-7.501499057E-1,-2.093719840E-1
1.968945286E0,9.869196892E0,-7.357929349E-1,-2.045863420E-1
1.971181431E0,9.855438232E0,-7.351947427E-1,-2.620140910E-1
1.973418186E0,9.816555023E0,-7.399803996E-1,-2.338984162E-1
1.975654758E0,9.835697174E0,-7.447660565E-1,-2.626122832E-1
1.977891452E0,9.826126099E0,-7.495517135E-1,-2.434697002E-1
1.980128452E0,9.840482712E0,-7.495517135E-1,-2.530409992E-1
1.982365574E0,9.840482712E0,-7.543373108E-1,-2.482553422E-1
1.984601352E0,9.801599503E0,-7.920243144E-1,-2.626122832E-1
1.986837620E0,9.787840843E0,-7.585247755E-1,-2.482553422E-1
1.989074009E0,9.763913155E0,-7.674978375E-1,-2.584248483E-1
1.991307773E0,9.725028992E0,-7.668996453E-1,-2.440679073E-1
1.993535495E0,9.701101303E0,-7.764709592E-1,-2.494517565E-1
1.995784336E0,9.686744690E0,-7.758727670E-1,-2.446661144E-1
1.998021335E0,9.672985077E0,-7.567301393E-1,-2.638086975E-1
2.000261387E0,9.668199539E0,-7.471588850E-1,-2.590230405E-1
2.002493870E0,9.644271851E0,-7.513462901E-1,-2.500499785E-1
2.004730198E0,9.624530792E0,-7.561319470E-1,-2.309073806E-1
2.006966831E0,9.629316330E0,-7.561319470E-1,-2.021935135E-1
2.009203647E0,9.638887405E0,-7.513462901E-1,-2.069791555E-1
2.011440525E0,9.619745255E0,-7.561319470E-1,-1.878365725E-1
2.013677768E0,9.623932838E0,-7.752745152E-1,-1.591227055E-1
2.015913608E0,9.638289452E0,-7.758727670E-1,-1.734796464E-1
2.018150913E0,9.633503914E0,-7.854440212E-1,-1.543370634E-1
2.020383274E0,9.628120422E0,-8.135597110E-1,-1.495514214E-1
2.022611057E0,9.646664619E0,-8.285148144E-1,-1.064806059E-1
2.024859104E0,9.636494637E0,-8.333004713E-1,-8.255238086E-2
2.027095981E0,9.650852203E0,-8.338986635E-1,-7.298108935E-2
2.029335789E0,9.636494637E0,-8.386843204E-1,-3.529413417E-2
2.031569431E0,9.674181938E0,-8.536394835E-1,-5.982056726E-3
2.033806247E0,9.664012909E0,-8.679963946E-1,1.256231871E-2
2.036043491E0,9.687940598E0,-8.775677085E-1,-1.196411322E-3
2.038279026E0,9.683155060E0,-8.775677085E-1,3.589233849E-3
2.040515415E0,9.741181374E0,-8.925228715E-1,-3.409772366E-2
2.042751987E0,9.750752449E0,-8.973084688E-1,-8.614161611E-2
2.044987522E0,9.760921478E0,-8.925228715E-1,-1.435693651E-1
2.047220310E0,9.780064583E0,-9.164510965E-1,-2.147558331E-1
2.049461948E0,9.795019150E0,-9.302098155E-1,-2.907279432E-1
2.051695895E0,9.767501831E0,-9.104689956E-1,-3.768695593E-1
2.053922947E0,9.791430473E0,-9.248259664E-1,-4.534398913E-1
2.056159885E0,9.768099785E0,-9.385846853E-1,-5.198407173E-1
2.058407993E0,9.749555588E0,-9.284151793E-1,-6.107679605E-1
2.060647433E0,9.731011391E0,-9.230313301E-1,-6.442674994E-1
2.062884312E0,9.745966911E0,-9.182456732E-1,-7.016952634E-1
2.065115146E0,9.765109062E0,-9.134600163E-1,-7.058826685E-1
2.067342136E0,9.769894600E0,-8.991031051E-1,-7.154539824E-1
2.069587680E0,9.794421196E0,-8.805587292E-1,-7.154539824E-1
2.071828708E0,9.789635658E0,-8.566305041E-1,-7.010970116E-1
2.074063022E0,9.813564301E0,-8.476574421E-1,-6.723831892E-1
2.076284458E0,9.861420631E0,-8.434699774E-1,-6.436693072E-1
2.078537388E0,9.865608215E0,-8.297112584E-1,-5.766702294E-1
2.080773899E0,9.879366875E0,-8.255237937E-1,-4.905286431E-1
2.083015171E0,9.898509026E0,-8.356932998E-1,-4.378865361E-1
2.085248325E0,9.883553505E0,-8.261220455E-1,-4.145565331E-1
2.087484165E0,9.878170013E0,-8.356932998E-1,-3.332005441E-1
2.089721225E0,9.878767967E0,-8.069794178E-1,-3.140579760E-1
2.091956577E0,9.873384476E0,-8.219345808E-1,-2.763710022E-1
2.094190586E0,9.853643417E0,-8.309076428E-1,-2.333002090E-1
2.096417759E0,9.839286804E0,-8.261220455E-1,-2.285145670E-1
2.098666599E0,9.800403595E0,-8.590233326E-1,-2.338984162E-1
2.100903293E0,9.756733894E0,-8.727820516E-1,-2.105683982E-1
2.103142735E0,9.689137459E0,-9.098708034E-1,-2.159522474E-1
2.105376743E0,9.684949875E0,-9.002995491E-1,-2.159522474E-1
2.107613743E0,9.689735413E0,-9.050851464E-1,-2.344966233E-1
2.109849399E0,9.689735413E0,-9.002995491E-1,-2.536391914E-1
2.112085972E0,9.694520950E0,-9.002995491E-1,-2.775674164E-1
2.114322544E0,9.680762291E0,-8.997012973E-1,-3.158525825E-1
2.116559177E0,9.662218094E0,-8.709874153E-1,-3.349951804E-1
2.118795933E0,9.652048111E0,-9.134600163E-1,-3.684946895E-1
2.121032261E0,9.643074989E0,-9.134600163E-1,-3.924229145E-1
2.123267978E0,9.652647018E0,-9.230313301E-1,-4.259224236E-1
2.125498081E0,9.648459435E0,-9.080761671E-1,-4.881358147E-1
2.127728000E0,9.634101868E0,-9.080761671E-1,-5.168496966E-1
2.129968540E0,9.629914284E0,-9.170492887E-1,-5.497509837E-1
2.132216464E0,9.639486313E0,-9.266205430E-1,-5.880361795E-1
2.134454562E0,9.620343208E0,-9.355936646E-1,-6.406782866E-1
2.136690890E0,9.611370087E0,-9.451649189E-1,-6.837490797E-1
2.138925327E0,9.606584549E0,-9.349954724E-1,-6.981059909E-1
2.141161960E0,9.606584549E0,-9.445667267E-1,-7.076773047E-1
2.143399265E0,9.601799011E0,-9.493523836E-1,-6.981059909E-1
2.145634739E0,9.611370087E0,-9.397810698E-1,-7.220342159E-1
2.147871311E0,9.616754532E0,-9.349954724E-1,-7.501499057E-1
2.150107395E0,9.626325607E0,-9.212366939E-1,-7.310073376E-1
2.152344272E0,9.640682220E0,-9.308080077E-1,-7.453642488E-1
2.154581394E0,9.678967476E0,-9.218349457E-1,-7.405785918E-1
2.156818943E0,9.722636223E0,-9.128618240E-1,-7.591229677E-1
2.159054538E0,9.741181374E0,-9.320043921E-1,-7.447660565E-1
2.161291782E0,9.798608780E0,-9.379864931E-1,-7.345965505E-1
2.163527073E0,9.836894035E0,-9.385846853E-1,-7.387840152E-1
2.165763950E0,9.865608215E0,-9.439685345E-1,-7.196413875E-1
2.168000278E0,9.903294563E0,-9.445667267E-1,-6.951149702E-1
2.170237095E0,9.960722923E0,-9.499505758E-1,-6.807580590E-1
2.172473667E0,9.965508461E0,-9.649057388E-1,-6.664010882E-1
2.174710239E0,9.999007225E0,-9.649057388E-1,-6.753742099E-1
2.176947055E0,1.002772141E1,-9.607182741E-1,-6.610172391E-1
2.179184421E0,1.000798035E1,-9.846464992E-1,-6.323033571E-1
2.181420200E0,9.988240242E0,-9.798609018E-1,-6.083751321E-1
2.183656528E0,9.964311600E0,-9.936196208E-1,-6.329016089E-1
2.185890659E0,9.944570541E0,-1.027119160E0,-5.994020700E-1
2.188120823E0,9.915857315E0,-1.021735311E0,-5.665007830E-1
2.190366245E0,9.872786522E0,-1.025922656E0,-5.952146053E-1
2.192602817E0,9.853045464E0,-1.045065284E0,-5.670989752E-1
2.194841892E0,9.824331284E0,-1.058824062E0,-5.670989752E-1
2.197077244E0,9.771689415E0,-1.067198873E0,-5.772684813E-1
2.199312778E0,9.756733894E0,-1.067198873E0,-5.629115105E-1
2.201549167E0,9.742377281E0,-1.062413216E0,-5.437689424E-1
2.203785618E0,9.732806206E0,-1.076770186E0,-5.395814776E-1
2.206022129E0,9.708279610E0,-1.076171994E0,-5.156532526E-1
2.208258579E0,9.727422714E0,-1.086341500E0,-5.156532526E-1
2.210495334E0,9.703494072E0,-1.080957651E0,-5.012963414E-1
2.212732212E0,9.708877563E0,-1.061815023E0,-5.108676553E-1
2.214968112E0,9.717850685E0,-1.057627559E0,-4.725824594E-1
2.217199253E0,9.727422714E0,-1.076770186E0,-4.677968323E-1
2.219441684E0,9.717850685E0,-1.067198873E0,-4.342973232E-1
2.221678013E0,9.722636223E0,-1.067198873E0,-4.486542344E-1
2.223913303E0,9.713065147E0,-1.043270707E0,-4.438686073E-1
2.226139682E0,9.708279610E0,-1.038485050E0,-4.348955154E-1
2.228389011E0,9.713065147E0,-1.038485050E0,-4.253242314E-1
2.230625034E0,9.717850685E0,-1.038485050E0,-4.390829504E-1
2.232865147E0,9.708279610E0,-1.038485050E0,-4.492524564E-1
2.235095004E0,9.695118904E0,-9.948160052E-1,-4.540380836E-1
2.237323459E0,9.680164337E0,-1.004387259E0,-4.492524564E-1
2.239570591E0,9.690333366E0,-9.996016622E-1,-4.875376225E-1
2.241807407E0,9.675976753E0,-9.996016622E-1,-5.114658475E-1
2.244046910E0,9.680762291E0,-9.948160052E-1,-5.162515044E-1
2.246280613E0,9.667003632E0,-9.607182741E-1,-5.162515044E-1
2.248517673E0,9.681958199E0,-9.421738982E-1,-5.162515044E-1
2.250754917E0,9.667003632E0,-9.511470199E-1,-5.210371017E-1
2.252987522E0,9.648459435E0,-9.224331379E-1,-5.401797295E-1
2.255212009E0,9.658030510E0,-9.176474810E-1,-5.162515044E-1
2.257451878E0,9.681958199E0,-9.182456732E-1,-5.258227587E-1
2.259699985E0,9.658628464E0,-9.176474810E-1,-5.497509837E-1
2.261939793E0,9.667601585E0,-9.032905698E-1,-5.162515044E-1
2.264175998E0,9.658030510E0,-9.032905698E-1,-5.162515044E-1
2.266410312E0,9.658628464E0,-9.032905698E-1,-5.306084156E-1
2.268647678E0,9.672985077E0,-9.128618240E-1,-5.401797295E-1
2.270882908E0,9.681958199E0,-9.230313301E-1,-5.162515044E-1
2.273119602E0,9.681958199E0,-9.326026440E-1,-5.114658475E-1
2.275355686E0,9.672387123E0,-9.511470199E-1,-5.353940725E-1
2.277592869E0,9.686744690E0,-9.469595551E-1,-5.258227587E-1
2.279829319E0,9.700503349E0,-9.565308690E-1,-5.114658475E-1
2.282065830E0,9.676574707E0,-9.613165259E-1,-5.066801906E-1
2.284303073E0,9.680762291E0,-9.804590940E-1,-4.779663086E-1
2.286540317E0,9.695118904E0,-9.804590940E-1,-4.827519655E-1
2.288774265E0,9.684949875E0,-1.013958573E0,-4.683950245E-1
2.291003330E0,9.675378799E0,-1.028315544E0,-4.731806815E-1
2.293236545E0,9.656235695E0,-1.008574724E0,-4.588237405E-1
2.295485386E0,9.655637741E0,-1.037288666E0,-4.588237405E-1
2.297723667E0,9.646066666E0,-1.046859860E0,-4.636093974E-1
2.299962498E0,9.636494637E0,-1.061216831E0,-4.498506486E-1
2.302195346E0,9.631709099E0,-1.061216831E0,-4.546363056E-1
2.304432712E0,9.616754532E0,-1.084546804E0,-4.594219327E-1
2.306668308E0,9.611968994E0,-1.098903775E0,-4.594219327E-1
2.308905063E0,9.640682220E0,-1.099501967E0,-4.683950245E-1
2.311141147E0,9.655039787E0,-1.113858938E0,-4.779663086E-1
2.313377903E0,9.655039787E0,-1.104287624E0,-4.636093974E-1
2.315614475E0,9.683753014E0,-1.104885817E0,-4.869394004E-1
2.317852512E0,9.698110580E0,-1.138385415E0,-4.869394004E-1
2.320090610E0,9.698110580E0,-1.128814101E0,-5.108676553E-1
2.322313511E0,9.712467194E0,-1.138385415E0,-5.204389095E-1
2.324560825E0,9.713065147E0,-1.119242787E0,-5.252245665E-1
2.326795993E0,9.741779327E0,-1.105484009E0,-5.198407173E-1
2.329036655E0,9.794421196E0,-1.096511006E0,-5.246263742E-1
2.331270603E0,9.789635658E0,-1.082154036E0,-5.102694035E-1
2.333507358E0,9.785448074E0,-1.077368379E0,-5.150550604E-1
2.335743686E0,9.795019150E0,-1.063011408E0,-5.150550604E-1
2.337980503E0,9.814760208E0,-1.030110121E0,-5.102694035E-1
2.340217747E0,9.819545746E0,-1.006181955E0,-5.144568682E-1
2.342453464E0,9.834501266E0,-9.726824164E-1,-5.383850932E-1
2.344690281E0,9.835099220E0,-9.391828775E-1,-5.383850932E-1
2.346926609E0,9.835697174E0,-8.967102766E-1,-5.288137794E-1
2.349163364E0,9.841081619E0,-8.865407705E-1,-5.527420044E-1
2.351399631E0,9.841081619E0,-8.775677085E-1,-5.479564071E-1
2.353636204E0,9.832108498E0,-8.434699774E-1,-5.623133183E-1
2.355873020E0,9.817750931E0,-8.291130662E-1,-5.772684813E-1
2.358107395E0,9.803992271E0,-8.237292171E-1,-5.868397355E-1
2.360334018E0,9.785448074E0,-7.902296782E-1,-6.107679605E-1
2.362582615E0,9.761520386E0,-7.896314859E-1,-6.251249313E-1
2.364819126E0,9.751948357E0,-7.938188910E-1,-6.634100676E-1
2.367058750E0,9.766903877E0,-7.657032609E-1,-6.634100676E-1
2.369292881E0,9.738189697E0,-7.698906660E-1,-6.969096065E-1
2.371530308E0,9.714262009E0,-7.932206988E-1,-7.022934556E-1
2.373765964E0,9.709476471E0,-7.932206988E-1,-7.166503668E-1
2.376003208E0,9.714262009E0,-8.027920127E-1,-7.304090858E-1
2.378238499E0,9.723833084E0,-7.836494446E-1,-7.351947427E-1
2.380475437E0,9.728618622E0,-7.980063558E-1,-7.543373108E-1
2.382711887E0,9.738189697E0,-8.075776696E-1,-7.399803996E-1
2.384945285E0,9.737591743E0,-8.321040869E-1,-7.304090858E-1
2.387173069E0,9.728020668E0,-8.362914920E-1,-7.351947427E-1
2.389421360E0,9.728020668E0,-8.554341197E-1,-7.256234884E-1
2.391658542E0,9.732208252E0,-8.656035662E-1,-7.064808607E-1
2.393898777E0,9.745966911E0,-8.991031051E-1,-6.969096065E-1
2.396131443E0,9.755537987E0,-8.847461939E-1,-6.777670383E-1
2.398368015E0,9.760323524E0,-8.949156404E-1,-6.586244106E-1
2.400604526E0,9.764511108E0,-9.236295223E-1,-6.203392744E-1
2.402841160E0,9.763913155E0,-9.236295223E-1,-6.155536175E-1
2.405074985E0,9.768698692E0,-9.332008362E-1,-6.011967063E-1
2.407299533E0,9.763913155E0,-9.475577474E-1,-5.868397355E-1
2.409539341E0,9.787840843E0,-9.385846853E-1,-6.059823632E-1
2.411788303E0,9.763314247E0,-9.475577474E-1,-5.820540786E-1
2.414024998E0,9.772886276E0,-9.577272534E-1,-5.772684813E-1
2.416255955E0,9.768099785E0,-9.523434043E-1,-5.772684813E-1
2.418497105E0,9.744172096E0,-9.714859724E-1,-5.868397355E-1
2.420733677E0,9.753743172E0,-9.714859724E-1,-6.107679605E-1
2.422969455E0,9.729815483E0,-9.613165259E-1,-5.970092416E-1
2.425193088E0,9.725627899E0,-9.661021233E-1,-6.394818425E-1
2.427428989E0,9.710672379E0,-9.702895880E-1,-6.305087805E-1
2.429669285E0,9.696315765E0,-9.894321561E-1,-6.161518097E-1
2.431919467E0,9.681958199E0,-9.894321561E-1,-6.113662124E-1
2.434153049E0,9.691530228E0,-9.846464992E-1,-6.305087805E-1
2.436380405E0,9.667601585E0,-9.846464992E-1,-6.017948985E-1
2.438626255E0,9.686145782E0,-9.894321561E-1,-5.874379873E-1
2.440863376E0,9.681958199E0,-9.894321561E-1,-6.017948985E-1
2.443103611E0,9.672387123E0,-9.990034699E-1,-6.209374666E-1
2.445336277E0,9.691530228E0,-9.942178130E-1,-6.161518097E-1
2.447573704E0,9.701101303E0,-9.750752449E-1,-5.970092416E-1
2.449808872E0,9.696315765E0,-9.846464992E-1,-6.017948985E-1
2.452047398E0,9.720243454E0,-9.804590940E-1,-5.970092416E-1
2.454287448E0,9.710672379E0,-9.804590940E-1,-5.826523304E-1
2.456517429E0,9.705886841E0,-9.804590940E-1,-5.970092416E-1
2.458755649E0,9.725028992E0,-9.756734371E-1,-5.922235847E-1
2.460990818E0,9.734601021E0,-9.661021233E-1,-5.916253924E-1
2.463229465E0,9.720243454E0,-9.661021233E-1,-5.874379873E-1
2.465466343E0,9.734601021E0,-9.756734371E-1,-6.059823632E-1
2.467701877E0,9.748957634E0,-9.667003751E-1,-5.916253924E-1
2.469938266E0,9.748957634E0,-9.571290612E-1,-5.964110494E-1
2.472174778E0,9.759127617E0,-9.571290612E-1,-6.251249313E-1
2.474411350E0,9.778269768E0,-9.427721500E-1,-6.107679605E-1
2.476648044E0,9.763913155E0,-9.332008362E-1,-5.916253924E-1
2.478884800E0,9.769296646E0,-9.236295223E-1,-6.203392744E-1
2.481121616E0,9.788438797E0,-9.050851464E-1,-6.155536175E-1
2.483358738E0,9.802796364E0,-8.955138922E-1,-5.964110494E-1
2.485594577E0,9.798010826E0,-9.098708034E-1,-6.293123364E-1
2.487831272E0,9.793225288E0,-9.002995491E-1,-6.203392744E-1
2.490063877E0,9.817750931E0,-8.811569214E-1,-6.293123364E-1
2.492290745E0,9.803992271E0,-8.668000102E-1,-6.628118753E-1
2.494540500E0,9.817750931E0,-8.620143533E-1,-6.436693072E-1
2.496777439E0,9.795019150E0,-8.141579032E-1,-6.538388133E-1
2.499017551E0,9.790233612E0,-8.183453679E-1,-6.538388133E-1
2.501251560E0,9.790233612E0,-8.135597110E-1,-6.634100676E-1
2.503487095E0,9.761520386E0,-8.135597110E-1,-6.442674994E-1
2.505723667E0,9.756733894E0,-8.039883971E-1,-6.681957245E-1
2.507959995E0,9.737591743E0,-8.081758618E-1,-6.681957245E-1
2.510196811E0,9.704092026E0,-8.123632669E-1,-6.640082598E-1
2.512433628E0,9.694520950E0,-8.027920127E-1,-6.496513486E-1
2.514670933E0,9.675378799E0,-8.027920127E-1,-6.406782866E-1
2.516906772E0,9.670592308E0,-7.980063558E-1,-6.406782866E-1
2.519142978E0,9.641879082E0,-8.069794178E-1,-6.741777658E-1
2.521375034E0,9.637093544E0,-7.830511928E-1,-6.646065116E-1
2.523616306E0,9.632308006E0,-7.734799385E-1,-6.454638839E-1
2.525852817E0,9.632308006E0,-7.974081635E-1,-6.502495408E-1
2.528090489E0,9.631709099E0,-8.261220455E-1,-6.358926296E-1
2.530325901E0,9.637093544E0,-7.974081635E-1,-6.358926296E-1
2.532562290E0,9.656235695E0,-8.021938205E-1,-6.646065116E-1
2.534799655E0,9.650852203E0,-8.069794178E-1,-6.406782866E-1
2.537036960E0,9.655637741E0,-8.213363886E-1,-6.502495408E-1
2.539272556E0,9.665208817E0,-8.165507317E-1,-6.598208547E-1
2.541508823E0,9.679565430E0,-8.267202377E-1,-6.496513486E-1
2.543745335E0,9.665208817E0,-8.261220455E-1,-6.502495408E-1
2.545981968E0,9.679565430E0,-8.362914920E-1,-6.448656917E-1
2.548218784E0,9.703494072E0,-8.362914920E-1,-6.496513486E-1
2.550452121E0,9.707681656E0,-8.464609981E-1,-6.352944374E-1
2.552677280E0,9.703494072E0,-8.362914920E-1,-6.687939167E-1
2.554919224E0,9.727422714E0,-8.512466550E-1,-6.687939167E-1
2.557168796E0,9.751350403E0,-8.321040869E-1,-6.538388133E-1
2.559393344E0,9.741779327E0,-8.464609981E-1,-6.825526357E-1
2.561646518E0,9.751350403E0,-8.560323119E-1,-6.538388133E-1
2.563872837E0,9.731609344E0,-8.608179688E-1,-6.544370055E-1
2.566114536E0,9.747162819E0,-8.416753411E-1,-7.064808607E-1
2.568346530E0,9.741779327E0,-8.512466550E-1,-6.729813814E-1
2.570584751E0,9.756135941E0,-8.656035662E-1,-6.729813814E-1
2.572821811E0,9.741779327E0,-8.608179688E-1,-6.681957245E-1
2.575054660E0,9.727422714E0,-8.560323119E-1,-6.544370055E-1
2.577282261E0,9.731609344E0,-8.703892231E-1,-6.352944374E-1
2.579530552E0,9.717252731E0,-8.847461939E-1,-6.305087805E-1
2.581767124E0,9.711869240E0,-8.943174481E-1,-6.352944374E-1
2.584005099E0,9.745966911E0,-8.847461939E-1,-6.346961856E-1
2.586228976E0,9.731609344E0,-8.703892231E-1,-6.352944374E-1
2.588460544E0,9.721440315E0,-8.799605370E-1,-6.065805554E-1
2.590714634E0,9.750752449E0,-8.709874153E-1,-6.346961856E-1
2.592952060E0,9.745368004E0,-8.853443861E-1,-5.922235847E-1
2.595190952E0,9.726823807E0,-8.608179688E-1,-6.113662124E-1
2.597422886E0,9.707681656E0,-8.512466550E-1,-6.017948985E-1
2.599659946E0,9.707083702E0,-8.656035662E-1,-5.922235847E-1
2.601896457E0,9.707083702E0,-8.751748800E-1,-5.778666735E-1
2.604132908E0,9.693324089E0,-8.697910309E-1,-6.113662124E-1
2.606369907E0,9.697511673E0,-8.847461939E-1,-5.545366406E-1
2.608607212E0,9.702297211E0,-8.799605370E-1,-5.587241054E-1
2.610842869E0,9.716654778E0,-8.799605370E-1,-5.635097623E-1
2.613079380E0,9.740582466E0,-8.566305041E-1,-5.300102234E-1
2.615315708E0,9.745368004E0,-8.566305041E-1,-5.347958803E-1
2.617552524E0,9.764511108E0,-8.476574421E-1,-5.395814776E-1
2.619789097E0,9.740582466E0,-8.422735929E-1,-5.300102234E-1
2.622025608E0,9.740582466E0,-8.470591903E-1,-5.300102234E-1
2.624259372E0,9.754940033E0,-8.524430394E-1,-5.347958803E-1
2.626485324E0,9.765109062E0,-8.285148144E-1,-5.347958803E-1
2.628720493E0,9.759725571E0,-8.476574421E-1,-5.204389095E-1
2.630960361E0,9.754940033E0,-8.428717852E-1,-5.300102234E-1
2.633211398E0,9.731011391E0,-8.470591903E-1,-5.252245665E-1
2.635448093E0,9.707083702E0,-8.656035662E-1,-5.539384484E-1
2.637684605E0,9.692726135E0,-8.751748800E-1,-5.641079545E-1
2.639918247E0,9.711869240E0,-8.656035662E-1,-5.395814776E-1
2.642155307E0,9.716654778E0,-8.799605370E-1,-5.443671346E-1
2.644392429E0,9.721440315E0,-8.799605370E-1,-5.491527915E-1
2.646628269E0,9.721440315E0,-8.799605370E-1,-5.587241054E-1
2.648864719E0,9.716055870E0,-9.038887620E-1,-5.778666735E-1
2.651100986E0,9.706484795E0,-8.991031051E-1,-5.730810165E-1
2.653338169E0,9.692726135E0,-9.032905698E-1,-5.922235847E-1
2.655574741E0,9.682557106E0,-9.128618240E-1,-5.784648657E-1
2.657812107E0,9.677771568E0,-9.320043921E-1,-5.736792088E-1
2.660047824E0,9.653842926E0,-9.176474810E-1,-5.784648657E-1
2.662285190E0,9.639486313E0,-9.218349457E-1,-5.880361795E-1
2.664520542E0,9.639486313E0,-9.218349457E-1,-5.593222976E-1
2.666757358E0,9.634700775E0,-9.218349457E-1,-5.593222976E-1
2.668993687E0,9.624530792E0,-9.361918569E-1,-5.407779217E-1
2.671230503E0,9.634101868E0,-9.314061999E-1,-5.449653864E-1
2.673467014E0,9.663414001E0,-9.272187948E-1,-5.641079545E-1
2.675703403E0,9.677172661E0,-9.367900491E-1,-5.545366406E-1
2.677940464E0,9.701101303E0,-9.421738982E-1,-5.635097623E-1
2.680177768E0,9.715457916E0,-9.373882413E-1,-5.635097623E-1
2.682413425E0,9.734601021E0,-9.475577474E-1,-5.682953596E-1
2.684648166E0,9.754341125E0,-9.332008362E-1,-5.629115105E-1
2.686879124E0,9.763913155E0,-9.427721500E-1,-5.868397355E-1
2.689122776E0,9.773484230E0,-9.284151793E-1,-5.964110494E-1
2.691359348E0,9.778269768E0,-9.379864931E-1,-6.059823632E-1
2.693597751E0,9.787840843E0,-9.475577474E-1,-6.340979934E-1
2.695833103E0,9.773484230E0,-9.427721500E-1,-6.442674994E-1
2.698070408E0,9.778867722E0,-9.427721500E-1,-6.580262184E-1
2.700306003E0,9.769296646E0,-9.284151793E-1,-6.586244106E-1
2.702542515E0,9.740582466E0,-9.421738982E-1,-6.681957245E-1
2.704778843E0,9.731011391E0,-9.469595551E-1,-6.777670383E-1
2.707015659E0,9.706484795E0,-9.655039310E-1,-6.592226624E-1
2.709252231E0,9.716055870E0,-9.559326172E-1,-6.586244106E-1
2.711488804E0,9.711270332E0,-9.655039310E-1,-6.586244106E-1
2.713725620E0,9.696913719E0,-9.607182741E-1,-6.544370055E-1
2.715962925E0,9.701699257E0,-9.607182741E-1,-6.592226624E-1
2.718198520E0,9.715457916E0,-9.661021233E-1,-6.161518097E-1
2.720435093E0,9.705886841E0,-9.661021233E-1,-5.922235847E-1
2.722668369E0,9.710672379E0,-9.613165259E-1,-5.874379873E-1
2.724893222E0,9.744172096E0,-9.714859724E-1,-5.820540786E-1
2.727133884E0,9.763314247E0,-9.571290612E-1,-5.676971674E-1
2.729382602E0,9.768099785E0,-9.667003751E-1,-6.059823632E-1
2.731621250E0,9.773484230E0,-9.475577474E-1,-6.299105883E-1
2.733858311E0,9.802796364E0,-9.284151793E-1,-6.867401004E-1
2.736090855E0,9.812965393E0,-9.140582681E-1,-7.250252366E-1
2.738327976E0,9.813564301E0,-8.805587292E-1,-7.489534616E-1
2.740564243E0,9.804591179E0,-8.662018180E-1,-7.776673436E-1
2.742800876E0,9.766305923E0,-8.751748800E-1,-7.872386575E-1
2.745034641E0,9.766305923E0,-8.703892231E-1,-7.920243144E-1
2.747259616E0,9.752547264E0,-8.458628058E-1,-8.063812256E-1
2.749500583E0,9.723833084E0,-8.452646136E-1,-8.309076428E-1
2.751745334E0,9.704092026E0,-8.500502706E-1,-7.926225066E-1
2.753974888E0,9.709476471E0,-8.309076428E-1,-7.830511928E-1
2.756222812E0,9.708877563E0,-8.452646136E-1,-7.782655358E-1
2.758456577E0,9.703494072E0,-8.506484628E-1,-7.022934556E-1
2.760696568E0,9.707681656E0,-8.841479421E-1,-6.544370055E-1
2.762930027E0,9.712467194E0,-8.889335990E-1,-6.448656917E-1
2.765163852E0,9.725627899E0,-9.278169870E-1,-5.826523304E-1
2.767391696E0,9.720243454E0,-9.332008362E-1,-5.252245665E-1
2.769641208E0,9.701101303E0,-9.421738982E-1,-5.210371017E-1
2.771876438E0,9.720243454E0,-9.379864931E-1,-5.060819983E-1
2.774112766E0,9.729216576E0,-9.379864931E-1,-4.492524564E-1
2.776337070E0,9.757930756E0,-9.433703423E-1,-4.582255483E-1
2.778585972E0,9.762716293E0,-9.481559992E-1,-4.534398913E-1
2.780822788E0,9.767501831E0,-9.433703423E-1,-4.582255483E-1
2.783062168E0,9.772886276E0,-9.242277741E-1,-4.773681164E-1
2.785296299E0,9.772886276E0,-9.146564603E-1,-4.869394004E-1
2.787533725E0,9.753743172E0,-8.955138922E-1,-4.821537733E-1
2.789766086E0,9.744770050E0,-8.901300430E-1,-5.156532526E-1
2.791993442E0,9.735796928E0,-8.566305041E-1,-5.204389095E-1
2.794238926E0,9.754940033E0,-8.518448472E-1,-5.443671346E-1
2.796466831E0,9.745368004E0,-8.422735929E-1,-5.443671346E-1
2.798718662E0,9.722038269E0,-7.992027402E-1,-5.401797295E-1
2.800952915E0,9.736993790E0,-7.944171429E-1,-5.395814776E-1
2.803191746E0,9.741779327E0,-7.657032609E-1,-5.443671346E-1
2.805426120E0,9.723235130E0,-7.513462901E-1,-5.593222976E-1
2.807661655E0,9.718449593E0,-7.555337548E-1,-5.688936114E-1
2.809898227E0,9.736993790E0,-7.609176040E-1,-5.491527915E-1
2.812134556E0,9.732806206E0,-7.274180651E-1,-5.401797295E-1
2.814371311E0,9.747162819E0,-7.226324677E-1,-5.347958803E-1
2.816607944E0,9.728020668E0,-7.178468108E-1,-5.449653864E-1
2.818841525E0,9.723833084E0,-7.082754970E-1,-5.449653864E-1
2.821069431E0,9.728618622E0,-7.226324677E-1,-5.593222976E-1
2.823318943E0,9.738189697E0,-6.891329288E-1,-5.306084156E-1
2.825554538E0,9.714262009E0,-7.034898400E-1,-5.353940725E-1
2.827794041E0,9.719047546E0,-6.987041831E-1,-5.449653864E-1
2.830027012E0,9.714262009E0,-7.076773047E-1,-5.593222976E-1
2.832263706E0,9.719047546E0,-6.981059909E-1,-5.784648657E-1
2.834500705E0,9.719047546E0,-7.316055298E-1,-5.784648657E-1
2.836737156E0,9.708877563E0,-7.316055298E-1,-5.593222976E-1
2.838974277E0,9.718449593E0,-7.465606928E-1,-5.497509837E-1
2.841211460E0,9.723235130E0,-7.417750359E-1,-5.497509837E-1
2.843447178E0,9.727422714E0,-7.800601721E-1,-5.353940725E-1
2.845683872E0,9.722636223E0,-7.704889178E-1,-5.497509837E-1
2.847919895E0,9.727422714E0,-7.800601721E-1,-5.306084156E-1
2.850156528E0,9.722636223E0,-7.944171429E-1,-5.401797295E-1
2.852393223E0,9.736394882E0,-8.039883971E-1,-5.395814776E-1
2.854626743E0,9.741181374E0,-8.087740541E-1,-5.300102234E-1
2.856852023E0,9.731609344E0,-8.087740541E-1,-5.347958803E-1
2.859091770E0,9.731609344E0,-8.183453679E-1,-5.204389095E-1
2.861339451E0,9.755537987E0,-8.189435601E-1,-5.347958803E-1
2.863579136E0,9.755537987E0,-8.141579032E-1,-5.300102234E-1
2.865815585E0,9.745966911E0,-8.374879360E-1,-5.491527915E-1
2.868049411E0,9.745966911E0,-8.183453679E-1,-5.252245665E-1
2.870286167E0,9.740582466E0,-8.470591903E-1,-5.204389095E-1
2.872523472E0,9.769296646E0,-8.428717852E-1,-5.204389095E-1
2.874759311E0,9.769296646E0,-8.380861282E-1,-5.204389095E-1
2.876996616E0,9.778867722E0,-8.333004713E-1,-5.108676553E-1
2.879231968E0,9.808179855E0,-8.338986635E-1,-5.294120312E-1
2.881468784E0,9.798608780E0,-8.243274093E-1,-5.150550604E-1
2.883703464E0,9.812965393E0,-8.243274093E-1,-5.150550604E-1
2.885932346E0,9.836894035E0,-8.105686903E-1,-5.102694035E-1
2.888166477E0,9.827322960E0,-7.914260626E-1,-5.150550604E-1
2.890414829E0,9.846465111E0,-7.914260626E-1,-5.150550604E-1
2.892653537E0,9.832706451E0,-7.914260626E-1,-5.246263742E-1
2.894892185E0,9.827322960E0,-7.914260626E-1,-5.054838061E-1
2.897124790E0,9.818349838E0,-7.812566161E-1,-5.054838061E-1
2.899361118E0,9.817750931E0,-8.003991842E-1,-4.959124923E-1
2.901597690E0,9.812367439E0,-8.105686903E-1,-4.767699242E-1
2.903834507E0,9.803394318E0,-8.051848412E-1,-4.821537733E-1
2.906071140E0,9.802796364E0,-8.243274093E-1,-4.630111754E-1
2.908307651E0,9.778867722E0,-8.147560954E-1,-4.534398913E-1
2.910544468E0,9.778269768E0,-8.338986635E-1,-4.438686073E-1
2.912781772E0,9.754940033E0,-8.141579032E-1,-4.253242314E-1
2.915014377E0,9.773484230E0,-8.291130662E-1,-4.342973232E-1
2.917242038E0,9.754341125E0,-8.476574421E-1,-4.253242314E-1
2.919490513E0,9.720243454E0,-8.476574421E-1,-4.013960063E-1
2.921726414E0,9.725028992E0,-8.620143533E-1,-4.301098585E-1
2.923963963E0,9.710672379E0,-8.620143533E-1,-3.870390654E-1
2.926200168E0,9.720243454E0,-8.476574421E-1,-3.589234054E-1
2.928437046E0,9.715457916E0,-8.476574421E-1,-3.684946895E-1
2.930675082E0,9.705886841E0,-8.380861282E-1,-3.684946895E-1
2.932910190E0,9.734601021E0,-8.434699774E-1,-3.439682424E-1
2.935146518E0,9.734601021E0,-8.524430394E-1,-3.583251834E-1
2.937382847E0,9.725028992E0,-8.333004713E-1,-3.583251834E-1
2.939619724E0,9.720243454E0,-8.333004713E-1,-3.589234054E-1
2.941857029E0,9.729815483E0,-8.237292171E-1,-3.583251834E-1
2.944094089E0,9.744770050E0,-8.147560954E-1,-3.726821244E-1
2.946329929E0,9.764511108E0,-7.860422134E-1,-3.774677813E-1
2.948567051E0,9.778867722E0,-7.764709592E-1,-4.007977843E-1
2.950798129E0,9.759725571E0,-7.908278704E-1,-3.822534084E-1
2.953022678E0,9.745368004E0,-8.045865893E-1,-4.013960063E-1
2.955275364E0,9.711270332E0,-8.374879360E-1,-4.013960063E-1
2.957512363E0,9.672985077E0,-8.225327730E-1,-4.211367965E-1
2.959753452E0,9.672985077E0,-8.327022791E-1,-3.924229145E-1
2.961985752E0,9.653842926E0,-8.321040869E-1,-4.259224236E-1
2.964222751E0,9.658030510E0,-8.321040869E-1,-3.828516304E-1
2.966459690E0,9.672387123E0,-8.422735929E-1,-3.684946895E-1
2.968695347E0,9.711270332E0,-8.285148144E-1,-3.780659735E-1
2.970929050E0,9.701699257E0,-8.279166222E-1,-3.876372576E-1
2.973157017E0,9.705886841E0,-8.285148144E-1,-3.684946895E-1
2.975405002E0,9.702297211E0,-7.854440212E-1,-3.732803464E-1
2.977641391E0,9.720842361E0,-8.237292171E-1,-3.678964674E-1
2.979881015E0,9.705886841E0,-8.428717852E-1,-3.828516304E-1
2.982115024E0,9.720243454E0,-8.428717852E-1,-3.774677813E-1
2.984352390E0,9.681360245E0,-8.662018180E-1,-3.684946895E-1
2.986587986E0,9.676574707E0,-8.662018180E-1,-3.589234054E-1
2.988822666E0,9.671789169E0,-8.901300430E-1,-3.493520916E-1
2.991052463E0,9.676574707E0,-8.949156404E-1,-3.684946895E-1
2.993297397E0,9.667003632E0,-8.991031051E-1,-3.780659735E-1
2.995534153E0,9.661619186E0,-8.997012973E-1,-3.541377485E-1
2.997772922E0,9.671191216E0,-9.092726111E-1,-3.493520916E-1
3.000005466E0,9.656833649E0,-9.278169870E-1,-3.589234054E-1
3.002235141E0,9.695118904E0,-9.284151793E-1,-3.445664644E-1
3.004480503E0,9.699306488E0,-9.385846853E-1,-3.445664644E-1
3.006717075E0,9.713663101E0,-9.481559992E-1,-3.296113312E-1
3.008956088E0,9.723833084E0,-9.433703423E-1,-3.583251834E-1
3.011190281E0,9.723833084E0,-9.290133715E-1,-3.583251834E-1
3.013427341E0,9.728618622E0,-9.385846853E-1,-3.535395563E-1
3.015664524E0,9.723235130E0,-9.481559992E-1,-3.535395563E-1
3.017897250E0,9.723235130E0,-9.481559992E-1,-3.535395563E-1
3.020125705E0,9.723833084E0,-9.385846853E-1,-3.822534084E-1
3.022372776E0,9.714262009E0,-9.290133715E-1,-3.535395563E-1
3.024609714E0,9.728618622E0,-9.337990284E-1,-3.726821244E-1
3.026849217E0,9.699904442E0,-9.332008362E-1,-3.774677813E-1
3.029083042E0,9.705288887E0,-9.044869542E-1,-3.822534084E-1
3.031319370E0,9.714859962E0,-9.002995491E-1,-3.966103494E-1
3.033555942E0,9.700503349E0,-9.044869542E-1,-3.780659735E-1
3.035793064E0,9.690931320E0,-9.092726111E-1,-3.828516304E-1
3.038030552E0,9.676574707E0,-8.949156404E-1,-3.684946895E-1
3.040265720E0,9.700503349E0,-8.901300430E-1,-3.684946895E-1
3.042502475E0,9.676574707E0,-8.853443861E-1,-3.637090325E-1
3.044738682E0,9.690931320E0,-8.997012973E-1,-3.684946895E-1
3.046975437E0,9.690333366E0,-8.901300430E-1,-3.397808075E-1
3.049209262E0,9.710074425E0,-8.859425783E-1,-3.349951804E-1
3.051434116E0,9.723833084E0,-8.955138922E-1,-3.343969584E-1
3.053673984E0,9.719645500E0,-8.907282352E-1,-3.583251834E-1
3.055923069E0,9.723833084E0,-9.002995491E-1,-3.391826153E-1
3.058161105E0,9.733404160E0,-9.056833982E-1,-3.391826153E-1
3.060397739E0,9.733404160E0,-9.152546525E-1,-3.296113312E-1
3.062631321E0,9.728618622E0,-9.200403094E-1,-3.200400174E-1
3.064868259E0,9.737591743E0,-9.439685345E-1,-3.343969584E-1
3.067104831E0,9.747760773E0,-9.343972206E-1,-3.439682424E-1
3.069341343E0,9.766903877E0,-9.296116233E-1,-3.583251834E-1
3.071578159E0,9.766903877E0,-9.152546525E-1,-3.720839322E-1
3.073815464E0,9.762118340E0,-9.296116233E-1,-3.864408433E-1
3.076051059E0,9.777072906E0,-9.152546525E-1,-3.864408433E-1
3.078287632E0,9.777072906E0,-9.296116233E-1,-4.055834413E-1
3.080523899E0,9.767501831E0,-9.200403094E-1,-4.103690982E-1
3.082760532E0,9.777072906E0,-9.056833982E-1,-4.151547253E-1
3.084994602E0,9.753145218E0,-9.098708034E-1,-4.199403822E-1
3.087219577E0,9.768099785E0,-9.050851464E-1,-4.486542344E-1
3.089457370E0,9.748957634E0,-8.859425783E-1,-4.534398913E-1
3.091708042E0,9.710074425E0,-9.140582681E-1,-4.348955154E-1
3.093946385E0,9.710074425E0,-9.092726111E-1,-4.396811724E-1
3.096183567E0,9.710672379E0,-8.949156404E-1,-4.396811724E-1
3.098416538E0,9.686744690E0,-8.901300430E-1,-4.301098585E-1
3.100653415E0,9.696315765E0,-8.662018180E-1,-4.205385745E-1
3.102890171E0,9.686744690E0,-8.662018180E-1,-4.163511395E-1
3.105123569E0,9.725028992E0,-8.715856671E-1,-4.157529473E-1
3.107351657E0,9.691530228E0,-8.709874153E-1,-4.067798555E-1
3.109600864E0,9.711270332E0,-8.566305041E-1,-4.253242314E-1
3.111836460E0,9.734601021E0,-8.476574421E-1,-4.013960063E-1
3.114073093E0,9.734601021E0,-8.620143533E-1,-3.918247223E-1
3.116298618E0,9.734601021E0,-8.668000102E-1,-3.870390654E-1
3.118546177E0,9.744172096E0,-8.763712645E-1,-3.822534084E-1
3.120779941E0,9.748359680E0,-8.865407705E-1,-3.535395563E-1
3.123007603E0,9.748359680E0,-8.817551732E-1,-3.774677813E-1
3.125241428E0,9.757930756E0,-8.913264275E-1,-3.439682424E-1
3.127478427E0,9.747760773E0,-9.200403094E-1,-3.391826153E-1
3.129719760E0,9.752547264E0,-9.248259664E-1,-3.583251834E-1
3.131968784E0,9.776474953E0,-9.206385016E-1,-3.248256743E-1
3.134202000E0,9.786046028E0,-9.302098155E-1,-3.290131092E-1
3.136430088E0,9.781260490E0,-9.302098155E-1,-3.337987661E-1
3.138675205E0,9.786046028E0,-9.206385016E-1,-3.385843933E-1
3.140911655E0,9.771689415E0,-9.296116233E-1,-3.391826153E-1
3.143151585E0,9.756733894E0,-9.391828775E-1,-3.248256743E-1
3.145385837E0,9.728020668E0,-9.290133715E-1,-3.200400174E-1
3.147621921E0,9.738189697E0,-9.104689956E-1,-3.104687333E-1
3.149858188E0,9.737591743E0,-9.296116233E-1,-3.200400174E-1
3.152094578E0,9.728020668E0,-9.391828775E-1,-3.104687333E-1
3.154331272E0,9.718449593E0,-9.337990284E-1,-3.014956415E-1
3.156568271E0,9.718449593E0,-9.242277741E-1,-3.062812984E-1
3.158805942E0,9.723833084E0,-9.146564603E-1,-3.110669553E-1
3.161041294E0,9.714262009E0,-9.098708034E-1,-3.062812984E-1
3.163278660E0,9.704092026E0,-9.242277741E-1,-3.110669553E-1
3.165514072E0,9.719047546E0,-9.146564603E-1,-3.110669553E-1
3.167750766E0,9.709476471E0,-9.050851464E-1,-3.206382394E-1
3.169987095E0,9.714262009E0,-9.002995491E-1,-3.158525825E-1
3.172223850E0,9.714262009E0,-9.146564603E-1,-3.158525825E-1
3.174460483E0,9.714262009E0,-9.098708034E-1,-3.062812984E-1
3.176697056E0,9.714262009E0,-8.859425783E-1,-2.967100143E-1
3.178933872E0,9.728618622E0,-9.152546525E-1,-3.062812984E-1
3.181171177E0,9.714262009E0,-9.098708034E-1,-3.302095234E-1
3.183406528E0,9.742975235E0,-9.104689956E-1,-3.248256743E-1
3.185642368E0,9.742975235E0,-9.200403094E-1,-3.152543902E-1
3.187879673E0,9.751948357E0,-9.343972206E-1,-3.008974493E-1
3.190116550E0,9.728020668E0,-9.391828775E-1,-3.152543902E-1
3.192353550E0,9.756733894E0,-9.535398483E-1,-3.008974493E-1
3.194589695E0,9.766903877E0,-9.158528447E-1,-3.152543902E-1
3.196826694E0,9.766305923E0,-9.397810698E-1,-2.865405083E-1
3.199063755E0,9.795019150E0,-9.349954724E-1,-3.050848842E-1
3.201299656E0,9.780662537E0,-9.397810698E-1,-3.200400174E-1
3.203536167E0,9.804591179E0,-9.445667267E-1,-3.337987661E-1
3.205772556E0,9.795019150E0,-9.349954724E-1,-3.242274821E-1
3.208009250E0,9.786046028E0,-9.302098155E-1,-3.242274821E-1
3.210245579E0,9.771091461E0,-9.397810698E-1,-3.200400174E-1
3.212482212E0,9.776474953E0,-9.254241586E-1,-3.439682424E-1
3.214719272E0,9.766903877E0,-9.248259664E-1,-3.391826153E-1
3.216956638E0,9.747760773E0,-9.104689956E-1,-3.056831062E-1
3.219192173E0,9.732806206E0,-9.248259664E-1,-3.152543902E-1
3.221425815E0,9.742377281E0,-9.248259664E-1,-3.056831062E-1
3.223654270E0,9.728618622E0,-9.104689956E-1,-2.967100143E-1
3.225901645E0,9.723235130E0,-9.200403094E-1,-2.727817893E-1
3.228138767E0,9.728020668E0,-9.200403094E-1,-2.679961324E-1
3.230378757E0,9.737591743E0,-9.296116233E-1,-2.679961324E-1
3.232612155E0,9.708877563E0,-9.296116233E-1,-2.584248483E-1
3.234849155E0,9.732208252E0,-9.343972206E-1,-2.440679073E-1
3.237084507E0,9.737591743E0,-9.152546525E-1,-2.344966233E-1
3.239321262E0,9.746564865E0,-9.206385016E-1,-2.344966233E-1
3.241557651E0,9.751350403E0,-9.158528447E-1,-2.057827413E-1
3.243794468E0,9.770493507E0,-9.116654396E-1,-2.099701911E-1
3.246031101E0,9.755537987E0,-9.397810698E-1,-1.914258152E-1
3.248267795E0,9.765109062E0,-9.684949517E-1,-2.051845491E-1
3.250503513E0,9.756135941E0,-9.397810698E-1,-2.057827413E-1
3.252739048E0,9.741181374E0,-9.589236975E-1,-2.009970993E-1
3.254973667E0,9.760921478E0,-9.493523836E-1,-2.243271172E-1
3.257199619E0,9.750752449E0,-9.589236975E-1,-2.249253243E-1
3.259451145E0,9.735796928E0,-9.828519225E-1,-1.962114573E-1
3.261687046E0,9.745966911E0,-9.828519225E-1,-2.201396823E-1
3.263927219E0,9.731609344E0,-1.001396298E0,-2.392822653E-1
3.266160190E0,9.740582466E0,-1.020538807E0,-2.434697002E-1
3.268397251E0,9.765109062E0,-9.924231768E-1,-2.578266263E-1
3.270631320E0,9.779465675E0,-9.876375198E-1,-2.721835673E-1
3.272857944E0,9.775876999E0,-9.541380405E-1,-3.008974493E-1
3.275103854E0,9.780662537E0,-9.302098155E-1,-3.008974493E-1
3.277332554E0,9.805189133E0,-9.020941257E-1,-2.817548811E-1
3.279582676E0,9.809974670E0,-8.829515576E-1,-2.907279432E-1
3.281816440E0,9.781260490E0,-8.871390224E-1,-2.817548811E-1
3.284055392E0,9.786644936E0,-8.632107973E-1,-3.008974493E-1
3.286289890E0,9.738189697E0,-8.530412912E-1,-2.584248483E-1
3.288525059E0,9.729216576E0,-8.195417523E-1,-2.536391914E-1
3.290752659E0,9.719047546E0,-8.338986635E-1,-2.201396823E-1
3.292991977E0,9.705288887E0,-8.051848412E-1,-2.255235314E-1
3.295235569E0,9.705288887E0,-8.099704385E-1,-2.063809484E-1
3.297474277E0,9.705288887E0,-8.243274093E-1,-2.255235314E-1
3.299708102E0,9.710074425E0,-8.195417523E-1,-2.159522474E-1
3.301934604E0,9.695717812E0,-8.045865893E-1,-2.398804724E-1
3.304182468E0,9.667003632E0,-8.183453679E-1,-2.685943544E-1
3.306419651E0,9.657432556E0,-8.087740541E-1,-2.446661144E-1
3.308657810E0,9.662218094E0,-8.093722463E-1,-2.303091735E-1
3.310891880E0,9.656833649E0,-8.422735929E-1,-2.350948304E-1
3.313128147E0,9.661619186E0,-8.524430394E-1,-2.350948304E-1
3.315364780E0,9.675976753E0,-8.428717852E-1,-2.446661144E-1
3.317598361E0,9.675378799E0,-8.859425783E-1,-2.159522474E-1
3.319826145E0,9.699306488E0,-8.865407705E-1,-2.063809484E-1
3.322074802E0,9.703494072E0,-9.152546525E-1,-1.872383654E-1
3.324312412E0,9.713065147E0,-8.913264275E-1,-1.818545163E-1
3.326551121E0,9.732208252E0,-9.206385016E-1,-1.866401732E-1
3.328784519E0,9.731609344E0,-9.397810698E-1,-1.722832322E-1
3.331020786E0,9.741181374E0,-9.349954724E-1,-1.770688742E-1
3.333257541E0,9.750752449E0,-9.397810698E-1,-1.866401732E-1
3.335494175E0,9.769894600E0,-9.451649189E-1,-1.860419661E-1
3.337730747E0,9.755537987E0,-9.589236975E-1,-1.866401732E-1
3.339967563E0,9.765109062E0,-9.589236975E-1,-2.003988922E-1
3.342204929E0,9.760323524E0,-9.541380405E-1,-1.818545163E-1
3.344440708E0,9.755537987E0,-9.541380405E-1,-2.147558331E-1
3.346677036E0,9.765109062E0,-9.541380405E-1,-1.956132501E-1
3.348913364E0,9.760323524E0,-9.541380405E-1,-1.818545163E-1
3.351150181E0,9.770493507E0,-9.403793216E-1,-1.956132501E-1
3.353386997E0,9.775279045E0,-9.212366939E-1,-1.764706671E-1
3.355622532E0,9.775279045E0,-9.164510965E-1,-1.956132501E-1
3.357854038E0,9.784850121E0,-9.116654396E-1,-1.764706671E-1
3.360085666E0,9.780064583E0,-9.068797827E-1,-1.716850251E-1
3.362333042E0,9.760921478E0,-8.925228715E-1,-1.722832322E-1
3.364570468E0,9.765707016E0,-8.925228715E-1,-1.674975902E-1
3.366809117E0,9.765707016E0,-9.020941257E-1,-1.483550072E-1
3.369042759E0,9.751350403E0,-8.823533654E-1,-1.531406492E-1
3.371279636E0,9.765707016E0,-8.877372146E-1,-1.435693651E-1
3.373517124E0,9.760921478E0,-8.877372146E-1,-1.339980662E-1
3.375753025E0,9.771091461E0,-8.590233326E-1,-1.339980662E-1
3.377990329E0,9.751948357E0,-8.446664214E-1,-1.339980662E-1
3.380225620E0,9.746564865E0,-8.685946465E-1,-1.196411327E-1
3.382462436E0,9.765707016E0,-8.638089895E-1,-9.571290761E-2
3.384698765E0,9.756135941E0,-8.781659007E-1,-8.195417374E-2
3.386935520E0,9.756135941E0,-8.685946465E-1,-7.716853172E-2
3.389171848E0,9.736993790E0,-8.590233326E-1,-6.281159073E-2
3.391408542E0,9.736394882E0,-8.590233326E-1,-1.016949583E-2
3.393645786E0,9.716654778E0,-8.781659007E-1,3.589233849E-3
3.395882908E0,9.735198975E0,-8.931210637E-1,4.187439755E-2
3.398118442E0,9.720842361E0,-8.877372146E-1,5.144568533E-2
3.400354709E0,9.726225853E0,-8.733802438E-1,4.187439755E-2
3.402591282E0,9.735796928E0,-8.883354068E-1,1.854437590E-2
3.404827915E0,9.721440315E0,-8.925228715E-1,-2.931207791E-2
3.407064792E0,9.736394882E0,-8.829515576E-1,-6.759724021E-2
3.409301243E0,9.756135941E0,-8.829515576E-1,-1.052841991E-1
3.411537937E0,9.722636223E0,-8.871390224E-1,-1.585244983E-1
3.413775486E0,9.693922997E0,-8.961120844E-1,-1.968096644E-1
3.416011265E0,9.679565430E0,-9.242277741E-1,-2.303091735E-1
3.418247654E0,9.626923561E0,-9.284151793E-1,-2.446661144E-1
3.420482822E0,9.622735977E0,-9.278169870E-1,-2.685943544E-1
3.422716282E0,9.588638306E0,-9.463613629E-1,-2.787638307E-1
3.424954440E0,9.593423843E0,-9.559326172E-1,-2.883351147E-1
3.427182407E0,9.588638306E0,-9.655039310E-1,-2.787638307E-1
3.429431797E0,9.607781410E0,-9.565308690E-1,-2.733799815E-1
3.431668064E0,9.622138023E0,-9.517452121E-1,-2.494517565E-1
3.433906712E0,9.640682220E0,-9.714859724E-1,-2.350948304E-1
3.436140232E0,9.678967476E0,-9.672985673E-1,-2.063809484E-1
3.438376804E0,9.702297211E0,-9.870393276E-1,-1.722832322E-1
3.440613559E0,9.735796928E0,-9.876375198E-1,-1.770688742E-1
3.442850376E0,9.749555588E0,-9.972088337E-1,-1.435693651E-1
3.445084506E0,9.768698692E0,-1.012163997E0,-1.100698411E-1
3.447308811E0,9.768698692E0,-9.930213690E-1,-1.052841991E-1
3.449548862E0,9.778269768E0,-1.016949654E0,-1.196411327E-1
3.451793186E0,9.778269768E0,-1.007378340E0,-1.244267747E-1
3.454019504E0,9.792626381E0,-1.017547846E0,-1.286142170E-1
3.456255405E0,9.782457352E0,-1.031306505E0,-1.142572835E-1
3.458505893E0,9.768698692E0,-1.026520967E0,-1.244267747E-1
3.460745701E0,9.768698692E0,-1.021735311E0,-1.196411327E-1
3.462983249E0,9.763913155E0,-1.007378340E0,-1.004985496E-1
3.465213229E0,9.744172096E0,-1.007378340E0,-8.135596663E-2
3.467438632E0,9.720243454E0,-9.972088337E-1,-5.324030295E-2
3.469676792E0,9.716055870E0,-9.732806087E-1,-5.802594870E-2
3.471925266E0,9.716055870E0,-9.780662656E-1,-4.366901144E-2
3.474161960E0,9.706484795E0,-9.637092948E-1,-4.845465720E-2
3.476391270E0,9.701101303E0,-9.780662656E-1,-3.409772366E-2
3.478635288E0,9.696913719E0,-9.589236975E-1,-3.409772366E-2
3.480871677E0,9.701699257E0,-9.445667267E-1,-1.555334684E-2
3.483111301E0,9.716055870E0,-9.308080077E-1,-1.495514158E-2
3.485345981E0,9.711270332E0,-9.349954724E-1,-2.931207791E-2
3.487579685E0,9.711270332E0,-9.355936646E-1,-1.495514158E-2
3.489810581E0,9.711869240E0,-9.302098155E-1,-3.409772366E-2
3.492055454E0,9.716654778E0,-9.062815905E-1,-4.845465720E-2
3.494288486E0,9.721440315E0,-9.116654396E-1,-5.324030295E-2
3.496518589E0,9.707083702E0,-9.254241586E-1,-2.931207791E-2
3.498764194E0,9.722038269E0,-9.062815905E-1,-6.759724021E-2
3.501001316E0,9.716654778E0,-9.254241586E-1,-5.802594870E-2
3.503241672E0,9.726225853E0,-9.116654396E-1,-5.324030295E-2
3.505474460E0,9.726225853E0,-9.164510965E-1,-3.888336942E-2
3.507710972E0,9.726225853E0,-9.260223508E-1,-5.802594870E-2
3.509946995E0,9.721440315E0,-9.403793216E-1,-4.845465720E-2
3.512183872E0,9.717252731E0,-9.062815905E-1,-6.281159073E-2
3.514420932E0,9.726225853E0,-9.349954724E-1,-7.716853172E-2
3.516655246E0,9.726225853E0,-9.260223508E-1,-6.759724021E-2
3.518881870E0,9.745368004E0,-9.260223508E-1,-9.152546525E-2
3.521131077E0,9.760323524E0,-9.260223508E-1,-1.148554832E-1
3.523366489E0,9.769894600E0,-9.355936646E-1,-1.674975902E-1
3.525606602E0,9.793823242E0,-9.314061999E-1,-1.429711580E-1
3.527839878E0,9.793225288E0,-9.553344250E-1,-1.381855011E-1
3.530076511E0,9.803394318E0,-9.409775138E-1,-1.381855011E-1
3.532313205E0,9.808179855E0,-9.601200819E-1,-1.621137410E-1
3.534549595E0,9.812965393E0,-9.601200819E-1,-1.573280841E-1
3.536786960E0,9.798608780E0,-9.547362328E-1,-1.716850251E-1
3.539024936E0,9.812367439E0,-9.649057388E-1,-1.525424421E-1
3.541259556E0,9.803394318E0,-9.601200819E-1,-1.621137410E-1
3.543495884E0,9.812367439E0,-9.744769931E-1,-1.668993831E-1
3.545732212E0,9.817152977E0,-9.792626500E-1,-1.716850251E-1
3.547966342E0,9.812367439E0,-9.696913958E-1,-1.573280841E-1
3.550191257E0,9.803394318E0,-9.696913958E-1,-1.716850251E-1
3.552430698E0,9.817750931E0,-9.696913958E-1,-1.668993831E-1
3.554676242E0,9.803394318E0,-9.547362328E-1,-1.860419661E-1
3.556904453E0,9.808179855E0,-9.786644578E-1,-2.099701911E-1
3.559142857E0,9.803394318E0,-9.882357717E-1,-2.147558331E-1
3.561388706E0,9.789037704E0,-9.882357717E-1,-2.051845491E-1
3.563628024E0,9.783653259E0,-9.978070259E-1,-2.147558331E-1
3.565862338E0,9.793225288E0,-9.882357717E-1,-1.860419661E-1
3.568088108E0,9.802796364E0,-9.930213690E-1,-1.812563092E-1
3.570334751E0,9.826724052E0,-1.007976532E0,-1.998006850E-1
3.572571811E0,9.811769485E0,-1.017547846E0,-1.668993831E-1
3.574811679E0,9.802198410E0,-1.031306505E0,-1.716850251E-1
3.577044834E0,9.802198410E0,-1.017547846E0,-1.573280841E-1
3.579281528E0,9.792626381E0,-1.022333503E0,-1.286142170E-1
3.581517612E0,9.787840843E0,-1.021735311E0,-1.286142170E-1
3.583751438E0,9.768099785E0,-1.050449133E0,-1.004985496E-1
3.585979221E0,9.772886276E0,-1.021735311E0,-9.092725813E-2
3.588228550E0,9.772886276E0,-1.017547846E0,-7.178468257E-2
3.590464389E0,9.772886276E0,-1.036690354E0,-6.699903309E-2
3.592704746E0,9.792028427E0,-1.007976532E0,-6.221338734E-2
3.594934726E0,9.801599503E0,-9.942178130E-1,-3.828516230E-2
3.597163669E0,9.791430473E0,-1.013360381E0,-1.435693540E-2
3.599410435E0,9.791430473E0,-1.018146038E0,0.000000000E0
3.601647007E0,9.800403595E0,-1.027717352E0,4.785645381E-2
3.603886447E0,9.795618057E0,-1.022931695E0,5.742774159E-2
3.606120395E0,9.781260490E0,-1.013360381E0,7.597211748E-2
3.608357273E0,9.757332802E0,-1.031904817E0,9.032905847E-2
3.610594516E0,9.728020668E0,-1.036690354E0,1.184447184E-1
3.612830112E0,9.703494072E0,-1.055234790E0,1.328016520E-1
3.615063693E0,9.708877563E0,-1.051047325E0,1.280160099E-1
3.617291050E0,9.699306488E0,-1.031306505E0,1.280160099E-1
3.619539829E0,9.684949875E0,-1.040877819E0,1.375873089E-1
3.621773471E0,9.694520950E0,-1.031306505E0,1.519442350E-1
3.624000828E0,9.675378799E0,-1.021735311E0,1.369891018E-1
3.626233127E0,9.669994354E0,-1.040877819E0,1.417747438E-1
3.628475132E0,9.674779892E0,-1.040877819E0,1.513460279E-1
3.630725681E0,9.656235695E0,-1.021137118E0,1.561316848E-1
3.632962925E0,9.661021233E0,-1.012163997E0,1.561316848E-1
3.635198581E0,9.651450157E0,-1.011565804E0,1.274178028E-1
3.637432407E0,9.661021233E0,-9.930213690E-1,1.657029688E-1
3.639668857E0,9.680164337E0,-9.978070259E-1,1.609173268E-1
3.641905308E0,9.680164337E0,-1.002592683E0,1.609173268E-1
3.644142368E0,9.665806770E0,-1.007378340E0,1.704886109E-1
3.646379673E0,9.665806770E0,-9.786644578E-1,1.992024779E-1
3.648615329E0,9.656235695E0,-9.738788009E-1,2.081755698E-1
3.650851841E0,9.646664619E0,-9.690931439E-1,2.081755698E-1
3.653088169E0,9.641879082E0,-9.643075466E-1,2.273181528E-1
3.655322055E0,9.647262573E0,-9.403793216E-1,2.321037948E-1
3.657550144E0,9.647262573E0,-9.451649189E-1,2.321037948E-1
3.659799411E0,9.656833649E0,-9.260223508E-1,2.321037948E-1
3.662035251E0,9.661619186E0,-9.308080077E-1,2.321037948E-1
3.664275425E0,9.652647018E0,-9.068797827E-1,2.273181528E-1
3.666507542E0,9.671789169E0,-8.925228715E-1,2.039881349E-1
3.668744419E0,9.667003632E0,-8.973084688E-1,2.081755698E-1
3.670980930E0,9.676574707E0,-9.026923180E-1,2.135594189E-1
3.673217563E0,9.686145782E0,-8.979067206E-1,1.896311939E-1
3.675454136E0,9.690931320E0,-9.170492887E-1,1.896311939E-1
3.677690708E0,9.686744690E0,-9.068797827E-1,1.513460279E-1
3.679927768E0,9.705288887E0,-9.170492887E-1,1.561316848E-1
3.682164829E0,9.705288887E0,-9.361918569E-1,1.423729509E-1
3.684399204E0,9.714859962E0,-9.457631707E-1,1.328016520E-1
3.686632053E0,9.719645500E0,-9.505487680E-1,1.232303679E-1
3.688873325E0,9.719645500E0,-9.553344250E-1,1.088734269E-1
3.691110202E0,9.705288887E0,-9.643075466E-1,9.930214286E-2
3.693348179E0,9.705288887E0,-9.786644578E-1,1.040877849E-1
3.695583347E0,9.719645500E0,-9.792626500E-1,9.451649338E-2
3.697820346E0,9.738788605E0,-9.744769931E-1,9.930214286E-2
3.700057407E0,9.724431038E0,-9.696913958E-1,9.451649338E-2
3.702293308E0,9.757930756E0,-9.750752449E-1,1.094716340E-1
3.704529758E0,9.752547264E0,-9.984052777E-1,8.554340899E-2
3.706765964E0,9.742975235E0,-1.003190875E0,1.094716340E-1
3.709003025E0,9.743574142E0,-9.840483069E-1,8.075776696E-2
3.711239719E0,9.767501831E0,-9.702895880E-1,9.990034252E-2
3.713475925E0,9.772287369E0,-9.702895880E-1,8.075776696E-2
3.715712925E0,9.753145218E0,-9.792626500E-1,9.032905847E-2
3.717950168E0,9.777671814E0,-9.511470199E-1,9.511470050E-2
3.720184482E0,9.748359680E0,-9.649057388E-1,1.046859920E-1
3.722416782E0,9.777671814E0,-9.511470199E-1,9.032905847E-2
3.724658665E0,9.753145218E0,-9.649057388E-1,9.511470050E-2
3.726895298E0,9.738788605E0,-9.792626500E-1,1.040877849E-1
3.729133762E0,9.738788605E0,-9.649057388E-1,8.973085135E-2
3.731369724E0,9.734002113E0,-9.649057388E-1,7.537391037E-2
3.733605808E0,9.738788605E0,-9.744769931E-1,8.973085135E-2
3.735842808E0,9.719645500E0,-9.601200819E-1,8.015955985E-2
3.738078159E0,9.720243454E0,-9.457631707E-1,8.015955985E-2
3.740314914E0,9.748359680E0,-9.792626500E-1,6.640082598E-2
3.742551304E0,9.738788605E0,-9.744769931E-1,5.682953820E-2
3.744788181E0,9.734601021E0,-9.696913958E-1,5.204389244E-2
3.747024997E0,9.710074425E0,-9.786644578E-1,6.580262631E-2
3.749260654E0,9.723833084E0,-9.936196208E-1,8.494520187E-2
3.751494663E0,9.699904442E0,-1.002592683E0,9.451649338E-2
3.753735386E0,9.733404160E0,-9.936196208E-1,1.088734269E-1
3.755971164E0,9.728618622E0,-9.888339639E-1,1.136590764E-1
3.758208469E0,9.733404160E0,-9.936196208E-1,1.136590764E-1
3.760444126E0,9.733404160E0,-9.792626500E-1,1.184447184E-1
3.762680698E0,9.742975235E0,-9.936196208E-1,1.184447184E-1
3.764919834E0,9.723235130E0,-1.003190875E0,1.519442350E-1
3.767163120E0,9.742377281E0,-1.017547846E0,1.232303679E-1
3.769390964E0,9.723235130E0,-1.022333503E0,1.375873089E-1
3.771628147E0,9.723235130E0,-1.022333503E0,1.328016520E-1
3.773861240E0,9.732806206E0,-1.027119160E0,1.136590764E-1
3.776100071E0,9.723235130E0,-1.031904817E0,1.423729509E-1
3.778336399E0,9.728020668E0,-1.022333503E0,1.375873089E-1
3.780573337E0,9.742377281E0,-1.013360381E0,1.471585929E-1
3.782810093E0,9.751948357E0,-1.018146038E0,1.519442350E-1
3.785043552E0,9.718449593E0,-1.007976532E0,1.567298770E-1
3.787274265E0,9.738189697E0,-9.936196208E-1,1.375873089E-1
3.789530552E0,9.719047546E0,-9.888339639E-1,1.519442350E-1
3.791756382E0,9.713663101E0,-1.003190875E0,1.471585929E-1
3.793994297E0,9.709476471E0,-9.696913958E-1,1.423729509E-1
3.796221469E0,9.719047546E0,-9.696913958E-1,1.567298770E-1
3.798467625E0,9.719047546E0,-9.840483069E-1,1.471585929E-1
3.800709079E0,9.733404160E0,-9.744769931E-1,1.375873089E-1
3.802941563E0,9.714262009E0,-9.840483069E-1,1.375873089E-1
3.805173068E0,9.695118904E0,-9.834501147E-1,1.328016520E-1
3.807399265E0,9.690333366E0,-9.930213690E-1,1.040877849E-1
3.809646274E0,9.690333366E0,-9.882357717E-1,1.513460279E-1
3.811885593E0,9.675378799E0,-1.002592683E0,1.465603858E-1
3.814122105E0,9.689735413E0,-9.978070259E-1,1.752742529E-1
3.816343601E0,9.675378799E0,-1.012163997E0,1.752742529E-1
3.818580356E0,9.708877563E0,-1.007976532E0,1.806581169E-1
3.820831821E0,9.708877563E0,-9.984052777E-1,2.039881349E-1
3.823071934E0,9.713065147E0,-1.012762189E0,2.231307179E-1
3.825309909E0,9.732806206E0,-9.846464992E-1,2.380858511E-1
3.827541538E0,9.770493507E0,-1.018744230E0,2.476571500E-1
3.829778049E0,9.765109062E0,-1.042672515E0,2.572284341E-1
3.832014378E0,9.750752449E0,-1.033101201E0,2.715853751E-1
3.834248264E0,9.736394882E0,-1.032503009E0,2.709871531E-1
3.836475864E0,9.731609344E0,-1.022931695E0,2.805584669E-1
3.838724460E0,9.712467194E0,-1.042074203E0,2.805584669E-1
3.840961521E0,9.712467194E0,-1.022931695E0,2.805584669E-1
3.843201817E0,9.707681656E0,-1.008574724E0,3.044866920E-1
3.845434482E0,9.689137459E0,-9.984052777E-1,2.853440940E-1
3.847671116E0,9.693324089E0,-1.027119160E0,2.901297510E-1
3.849906956E0,9.669396400E0,-1.007976532E0,3.134597540E-1
3.852143833E0,9.669396400E0,-1.007976532E0,3.134597540E-1
3.854378635E0,9.655039787E0,-1.022333503E0,2.991028428E-1
3.856609226E0,9.640682220E0,-1.007378340E0,3.086741269E-1
3.858853122E0,9.621540070E0,-1.007378340E0,3.032902777E-1
3.861091343E0,9.616754532E0,-1.016949654E0,3.080759048E-1
3.863328891E0,9.602396965E0,-1.030708313E0,2.985046208E-1
3.865563816E0,9.607182503E0,-1.011565804E0,3.080759048E-1
3.867800083E0,9.626325607E0,-1.031306505E0,3.038884699E-1
3.870036655E0,9.607182503E0,-1.025922656E0,3.032902777E-1
3.872273471E0,9.621540070E0,-1.021735311E0,3.080759048E-1
3.874510715E0,9.649655342E0,-1.040877819E0,2.943171859E-1
3.876746616E0,9.655039787E0,-1.027119160E0,3.086741269E-1
3.878983982E0,9.655039787E0,-1.031904817E0,2.991028428E-1
3.881219517E0,9.678967476E0,-1.031904817E0,3.038884699E-1
3.883453586E0,9.683155060E0,-1.065404296E0,3.044866920E-1
3.885680209E0,9.721440315E0,-1.056431174E0,3.044866920E-1
3.887920383E0,9.702297211E0,-1.056431174E0,2.805584669E-1
3.890165745E0,9.721440315E0,-1.061216831E0,2.614158690E-1
3.892404697E0,9.745368004E0,-1.076171994E0,2.763710022E-1
3.894641696E0,9.750154495E0,-1.090528965E0,2.715853751E-1
3.896876743E0,9.754940033E0,-1.090528965E0,2.380858511E-1
3.899112156E0,9.754940033E0,-1.080957651E0,2.620140910E-1
3.901348667E0,9.759725571E0,-1.090528965E0,2.237289101E-1
3.903585178E0,9.764511108E0,-1.090528965E0,2.333002090E-1
3.905821872E0,9.759725571E0,-1.095314622E0,2.141576260E-1
3.908058628E0,9.759725571E0,-1.099501967E0,2.141576260E-1
3.910294956E0,9.750154495E0,-1.094716311E0,2.093719840E-1
3.912532077E0,9.750752449E0,-1.075573802E0,2.189432681E-1
3.914769321E0,9.745368004E0,-1.094716311E0,2.093719840E-1
3.917004978E0,9.754940033E0,-1.123430252E0,2.141576260E-1
3.919241428E0,9.759725571E0,-1.104287624E0,1.998006850E-1
3.921478427E0,9.755537987E0,-1.099501967E0,1.806581169E-1
3.923717991E0,9.731011391E0,-1.104287624E0,1.854437590E-1
3.925950962E0,9.741181374E0,-1.094716311E0,1.902294010E-1
3.928187778E0,9.726225853E0,-1.118046403E0,1.806581169E-1
3.930423434E0,9.711869240E0,-1.118046403E0,1.710868180E-1
3.932661655E0,9.722038269E0,-1.103689432E0,1.710868180E-1
3.934897129E0,9.717252731E0,-1.094118118E0,1.758724600E-1
3.937133640E0,9.717252731E0,-1.089332461E0,1.615155339E-1
3.939370457E0,9.722038269E0,-1.089332461E0,1.710868180E-1
3.941607273E0,9.726823807E0,-1.079761267E0,1.854437590E-1
3.943844150E0,9.741181374E0,-1.080359459E0,1.663011760E-1
3.946081333E0,9.741779327E0,-1.080359459E0,1.567298770E-1
3.948317173E0,9.751350403E0,-1.070788145E0,1.573280841E-1
3.950554416E0,9.741779327E0,-1.075573802E0,1.615155339E-1
3.952789585E0,9.746564865E0,-1.061216831E0,1.381855011E-1
3.955023654E0,9.760921478E0,-1.061216831E0,1.429711580E-1
3.957251011E0,9.780064583E0,-1.066600680E0,1.668993831E-1
3.959499851E0,9.784850121E0,-1.061815023E0,1.621137410E-1
3.961736362E0,9.780064583E0,-1.075573802E0,1.525424421E-1
3.963975986E0,9.798608780E0,-1.085743308E0,1.621137410E-1
3.966210056E0,9.789635658E0,-1.066600680E0,1.525424421E-1
3.968447300E0,9.775279045E0,-1.080359459E0,1.573280841E-1
3.970682651E0,9.789635658E0,-1.071386337E0,1.621137410E-1
3.972919224E0,9.765707016E0,-1.070788145E0,1.764706671E-1
3.975155796E0,9.760921478E0,-1.061216831E0,1.716850251E-1
3.977392612E0,9.770493507E0,-1.051645517E0,1.621137410E-1
3.979628940E0,9.775279045E0,-1.061815023E0,1.716850251E-1
3.981865513E0,9.775279045E0,-1.052243710E0,1.716850251E-1
3.984102573E0,9.770493507E0,-1.052243710E0,1.908276081E-1
3.986337070E0,9.760921478E0,-1.033101201E0,2.141576260E-1
3.988563999E0,9.727422714E0,-1.042074203E0,1.902294010E-1
3.990811741E0,9.732208252E0,-1.022931695E0,1.998006850E-1
3.993048069E0,9.736993790E0,-1.027717352E0,2.380858511E-1
3.995287815E0,9.712467194E0,-1.027717352E0,2.518445849E-1
3.997521885E0,9.717850685E0,-1.008574724E0,2.566302419E-1
3.999758640E0,9.727422714E0,-9.942178130E-1,2.470589429E-1
4.001995212E0,9.717850685E0,-9.990034699E-1,2.422732860E-1
4.004232456E0,9.708877563E0,-9.846464992E-1,2.422732860E-1
4.006467991E0,9.703494072E0,-9.936196208E-1,2.422732860E-1
4.008704624E0,9.703494072E0,-9.990034699E-1,2.662015259E-1
4.010940891E0,9.722636223E0,-9.942178130E-1,2.518445849E-1
4.013177585E0,9.723235130E0,-9.750752449E-1,2.470589429E-1
4.015411838E0,9.728020668E0,-9.798609018E-1,2.566302419E-1
4.017636936E0,9.770493507E0,-9.900303483E-1,2.620140910E-1
4.019875888E0,9.722636223E0,-9.942178130E-1,2.422732860E-1
4.022125278E0,9.742377281E0,-9.846464992E-1,2.524427772E-1
4.024363620E0,9.756135941E0,-1.009172916E0,2.524427772E-1
4.026600193E0,9.751350403E0,-9.996016622E-1,2.380858511E-1
4.028833408E0,9.727422714E0,-1.018146038E0,2.237289101E-1
4.031070102E0,9.751350403E0,-1.018146038E0,2.237289101E-1
4.033307163E0,9.736394882E0,-1.032503009E0,2.476571500E-1
4.035543430E0,9.722636223E0,-1.018146038E0,2.374876440E-1
4.037780124E0,9.703494072E0,-1.031904817E0,2.279163599E-1
4.040017612E0,9.689137459E0,-1.031904817E0,2.231307179E-1
4.042253452E0,9.693922997E0,-1.031904817E0,2.039881349E-1
4.044489902E0,9.679565430E0,-1.027119160E0,2.135594189E-1
4.046723423E0,9.702896118E0,-1.046261668E0,2.374876440E-1
4.048948215E0,9.693922997E0,-1.027119160E0,2.374876440E-1
4.051187839E0,9.708279610E0,-1.022333503E0,2.374876440E-1
4.053433261E0,9.707681656E0,-1.037288666E0,2.518445849E-1
4.055659702E0,9.707681656E0,-1.037288666E0,2.518445849E-1
4.057896580E0,9.712467194E0,-1.046859860E0,2.614158690E-1
4.060145969E0,9.698110580E0,-1.031904817E0,2.566302419E-1
4.062385349E0,9.731609344E0,-1.032503009E0,2.709871531E-1
4.064622837E0,9.736394882E0,-1.046859860E0,2.572284341E-1
4.066855442E0,9.722038269E0,-1.037288666E0,2.614158690E-1
4.069092075E0,9.741181374E0,-1.042074203E0,2.620140910E-1
4.071328769E0,9.741181374E0,-1.032503009E0,2.620140910E-1
4.073566013E0,9.736394882E0,-1.022931695E0,2.662015259E-1
4.075803074E0,9.745966911E0,-1.042074203E0,2.524427772E-1
4.078038669E0,9.751350403E0,-1.032503009E0,2.333002090E-1
4.080275120E0,9.746564865E0,-1.023529887E0,2.524427772E-1
4.082508579E0,9.770493507E0,-1.004387259E0,2.524427772E-1
4.084736545E0,9.756135941E0,-9.948160052E-1,2.620140910E-1
4.086984958E0,9.736993790E0,-1.008574724E0,2.614158690E-1
4.089222690E0,9.732208252E0,-9.942178130E-1,2.614158690E-1
4.091461155E0,9.737591743E0,-9.661021233E-1,2.853440940E-1
4.093695469E0,9.737591743E0,-9.661021233E-1,2.853440940E-1
4.095931126E0,9.736993790E0,-9.798609018E-1,2.662015259E-1
4.098167820E0,9.717850685E0,-9.702895880E-1,2.997010350E-1
4.100404331E0,9.704092026E0,-9.655039310E-1,2.709871531E-1
4.102640598E0,9.699306488E0,-9.559326172E-1,2.662015259E-1
4.104877475E0,9.718449593E0,-9.511470199E-1,2.614158690E-1
4.107113987E0,9.713663101E0,-9.559326172E-1,2.566302419E-1
4.109350925E0,9.708877563E0,-9.798609018E-1,2.566302419E-1
4.111588230E0,9.684949875E0,-9.553344250E-1,2.279163599E-1
4.113824009E0,9.684949875E0,-9.840483069E-1,2.374876440E-1
4.116060337E0,9.680164337E0,-9.792626500E-1,2.374876440E-1
4.118296726E0,9.689735413E0,-9.744769931E-1,2.135594189E-1
4.120530795E0,9.689735413E0,-9.792626500E-1,2.231307179E-1
4.122754795E0,9.704092026E0,-9.840483069E-1,2.374876440E-1
4.124988498E0,9.708279610E0,-9.942178130E-1,2.614158690E-1
4.127231540E0,9.708279610E0,-9.702895880E-1,2.805584669E-1
4.129484165E0,9.703494072E0,-9.846464992E-1,3.140579760E-1
4.131720371E0,9.712467194E0,-9.894321561E-1,3.188436031E-1
4.133955967E0,9.722636223E0,-9.852447510E-1,3.236292601E-1
4.136189426E0,9.722038269E0,-9.900303483E-1,3.475574851E-1
4.138426304E0,9.731609344E0,-1.009172916E0,3.188436031E-1
4.140662876E0,9.750752449E0,-1.009172916E0,2.907279432E-1
4.142899204E0,9.780064583E0,-1.023529887E0,2.620140910E-1
4.145133334E0,9.760921478E0,-1.013958573E0,2.380858511E-1
4.147361850E0,9.785448074E0,-9.996016622E-1,1.812563092E-1
4.149609165E0,9.762118340E0,-1.003789067E0,1.333998591E-1
4.151845493E0,9.771689415E0,-1.003789067E0,1.142572835E-1
4.154082492E0,9.752547264E0,-1.017547846E0,9.032905847E-2
4.156305942E0,9.714262009E0,-1.036092162E0,5.623133108E-2
4.158544040E0,9.695118904E0,-1.040877819E0,4.666004330E-2
4.160793003E0,9.699904442E0,-1.030708313E0,2.273181453E-2
4.163031345E0,9.690931320E0,-1.016351461E0,3.230310604E-2
4.165269138E0,9.685547829E0,-1.016351461E0,5.144568533E-2
4.167501743E0,9.709476471E0,-1.026520967E0,7.058826834E-2
4.169738376E0,9.728020668E0,-1.022333503E0,1.232303679E-1
4.171974888E0,9.723235130E0,-1.022333503E0,1.423729509E-1
4.174208530E0,9.732208252E0,-1.032503009E0,1.854437590E-1
4.176436558E0,9.736993790E0,-1.027717352E0,2.237289101E-1
4.178684604E0,9.750752449E0,-1.042672515E0,2.476571500E-1
4.180921665E0,9.755537987E0,-1.042672515E0,2.667997181E-1
4.183158603E0,9.769894600E0,-1.037886858E0,2.907279432E-1
4.185382358E0,9.779465675E0,-1.043270707E0,2.907279432E-1
4.187630832E0,9.774680138E0,-1.028913736E0,3.050848842E-1
4.189867283E0,9.760323524E0,-1.023529887E0,3.002992272E-1
4.192107334E0,9.784252167E0,-1.024128079E0,3.146561682E-1
4.194340915E0,9.769894600E0,-1.028913736E0,3.050848842E-1
4.196577488E0,9.774680138E0,-1.019342422E0,3.146561682E-1
4.198814243E0,9.750752449E0,-1.023529887E0,3.092723191E-1
4.201051548E0,9.745368004E0,-1.033101201E0,3.284149170E-1
4.203287082E0,9.740582466E0,-1.033101201E0,3.284149170E-1
4.205523472E0,9.731011391E0,-1.033101201E0,3.379862010E-1
4.207759983E0,9.712467194E0,-1.032503009E0,3.092723191E-1
4.209996616E0,9.702896118E0,-1.018146038E0,2.949153781E-1
4.212233433E0,9.707681656E0,-1.032503009E0,2.949153781E-1
4.214469761E0,9.698110580E0,-1.018146038E0,3.044866920E-1
4.216706821E0,9.688538551E0,-9.984052777E-1,2.991028428E-1
4.218943821E0,9.693922997E0,-9.942178130E-1,2.949153781E-1
4.221179477E0,9.693922997E0,-9.942178130E-1,3.038884699E-1
4.223416050E0,9.665208817E0,-9.840483069E-1,2.991028428E-1
4.225652683E0,9.650852203E0,-9.888339639E-1,3.038884699E-1
4.227889438E0,9.661021233E0,-9.601200819E-1,2.703889608E-1
4.230126071E0,9.665806770E0,-9.601200819E-1,2.464607358E-1
4.232363559E0,9.651450157E0,-9.595218897E-1,2.560320199E-1
4.234599460E0,9.632308006E0,-9.547362328E-1,2.656033039E-1
4.236837009E0,9.641879082E0,-9.643075466E-1,2.560320199E-1
4.239072056E0,9.641879082E0,-9.355936646E-1,2.847459018E-1
4.241308872E0,9.652048111E0,-9.260223508E-1,2.560320199E-1
4.243545139E0,9.651450157E0,-9.690931439E-1,2.464607358E-1
4.245782016E0,9.656235695E0,-9.547362328E-1,2.273181528E-1
4.248018528E0,9.661021233E0,-9.643075466E-1,2.464607358E-1
4.250251865E0,9.670592308E0,-9.696913958E-1,2.512463629E-1
4.252479770E0,9.699306488E0,-9.696913958E-1,2.566302419E-1
4.254729343E0,9.728020668E0,-9.655039310E-1,2.470589429E-1
4.256965122E0,9.751948357E0,-9.756734371E-1,2.524427772E-1
4.259204258E0,9.756733894E0,-9.852447510E-1,2.428714931E-1
4.261437778E0,9.771091461E0,-9.756734371E-1,2.715853751E-1
4.263674534E0,9.808777809E0,-9.858429432E-1,2.673979402E-1
4.265911228E0,9.813564301E0,-9.912267923E-1,2.859423161E-1
4.268148288E0,9.832706451E0,-9.912267923E-1,2.817548811E-1
4.270386753E0,9.847063065E0,-9.918249846E-1,3.008974493E-1
4.272621921E0,9.832706451E0,-1.000798106E0,2.817548811E-1
4.274857761E0,9.837491989E0,-9.912267923E-1,3.008974493E-1
4.277093784E0,9.827920914E0,-9.912267923E-1,2.961117923E-1
4.279330601E0,9.832706451E0,-9.960124493E-1,2.769692242E-1
4.281567173E0,9.813564301E0,-1.000798106E0,2.907279432E-1
4.283803928E0,9.813564301E0,-9.906286001E-1,2.721835673E-1
4.286036288E0,9.799206734E0,-9.906286001E-1,2.907279432E-1
4.288261264E0,9.779465675E0,-1.014556766E0,2.859423161E-1
4.290514377E0,9.746564865E0,-9.996016622E-1,2.997010350E-1
4.292750095E0,9.746564865E0,-9.996016622E-1,2.949153781E-1
4.294990146E0,9.746564865E0,-9.948160052E-1,2.715853751E-1
4.297220615E0,9.742377281E0,-9.708877802E-1,2.709871531E-1
4.299461216E0,9.703494072E0,-9.894321561E-1,2.805584669E-1
4.301696567E0,9.717850685E0,-9.846464992E-1,2.614158690E-1
4.303934909E0,9.679565430E0,-9.696913958E-1,3.038884699E-1
4.306169895E0,9.698708534E0,-9.798609018E-1,2.901297510E-1
4.308407261E0,9.683753014E0,-9.936196208E-1,3.038884699E-1
4.310642368E0,9.679565430E0,-9.744769931E-1,2.895315289E-1
4.312879429E0,9.684351921E0,-9.744769931E-1,2.991028428E-1
4.315115390E0,9.665806770E0,-9.601200819E-1,2.799602449E-1
4.317350132E0,9.689137459E0,-9.846464992E-1,3.134597540E-1
4.319588840E0,9.689137459E0,-9.655039310E-1,3.134597540E-1
4.321825474E0,9.689137459E0,-9.655039310E-1,3.373879790E-1
4.324063388E0,9.689137459E0,-9.511470199E-1,3.278166950E-1
4.326299900E0,9.689137459E0,-9.463613629E-1,3.326023519E-1
4.328535495E0,9.699306488E0,-9.367900491E-1,3.278166950E-1
4.330772007E0,9.689735413E0,-9.463613629E-1,3.134597540E-1
4.333008579E0,9.684351921E0,-9.463613629E-1,3.182454109E-1
4.335245151E0,9.704092026E0,-9.128618240E-1,3.134597540E-1
4.337481785E0,9.699306488E0,-9.272187948E-1,2.991028428E-1
4.339718540E0,9.704092026E0,-9.224331379E-1,2.901297510E-1
4.341955356E0,9.704689980E0,-9.224331379E-1,2.853440940E-1
4.344192478E0,9.719047546E0,-8.889335990E-1,2.901297510E-1
4.346428257E0,9.714262009E0,-9.032905698E-1,2.662015259E-1
4.348664768E0,9.742975235E0,-8.943174481E-1,2.949153781E-1
4.350900913E0,9.719047546E0,-8.985049129E-1,2.853440940E-1
4.353134738E0,9.723833084E0,-9.128618240E-1,2.709871531E-1
4.355362583E0,9.738189697E0,-9.182456732E-1,2.757728100E-1
4.357608249E0,9.733404160E0,-9.134600163E-1,2.805584669E-1
4.359833409E0,9.728618622E0,-9.224331379E-1,2.709871531E-1
4.362073826E0,9.733404160E0,-9.176474810E-1,2.566302419E-1
4.364306247E0,9.738189697E0,-9.176474810E-1,2.518445849E-1
4.366545933E0,9.742975235E0,-9.182456732E-1,2.709871531E-1
4.368781895E0,9.743574142E0,-9.080761671E-1,2.327020019E-1
4.371018589E0,9.728618622E0,-9.320043921E-1,2.566302419E-1
4.373255710E0,9.738189697E0,-9.367900491E-1,2.470589429E-1
4.375493442E0,9.728618622E0,-9.128618240E-1,2.614158690E-1
4.377728916E0,9.733404160E0,-9.320043921E-1,2.422732860E-1
4.379966526E0,9.718449593E0,-9.463613629E-1,2.566302419E-1
4.382202061E0,9.694520950E0,-9.457631707E-1,2.566302419E-1
4.384438205E0,9.713663101E0,-9.415757060E-1,2.614158690E-1
4.386674290E0,9.699306488E0,-9.553344250E-1,2.614158690E-1
4.388911411E0,9.699306488E0,-9.553344250E-1,2.518445849E-1
4.391148716E0,9.708877563E0,-9.655039310E-1,2.709871531E-1
4.393384617E0,9.723235130E0,-9.559326172E-1,2.853440940E-1
4.395621677E0,9.713663101E0,-9.559326172E-1,2.614158690E-1
4.397860507E0,9.728020668E0,-9.463613629E-1,2.805584669E-1
4.400098117E0,9.718449593E0,-9.607182741E-1,2.853440940E-1
4.402336032E0,9.722636223E0,-9.702895880E-1,2.949153781E-1
4.404576939E0,9.722636223E0,-9.750752449E-1,2.901297510E-1
4.406803501E0,9.727422714E0,-9.750752449E-1,2.757728100E-1
4.409040623E0,9.713663101E0,-9.607182741E-1,2.853440940E-1
4.411276584E0,9.708877563E0,-9.511470199E-1,2.949153781E-1
4.413513889E0,9.718449593E0,-9.607182741E-1,2.853440940E-1
4.415751194E0,9.704092026E0,-9.559326172E-1,2.853440940E-1
4.417986728E0,9.704092026E0,-9.607182741E-1,2.805584669E-1
4.420225193E0,9.708279610E0,-9.655039310E-1,3.044866920E-1
4.422461094E0,9.713065147E0,-9.750752449E-1,2.997010350E-1
4.424699986E0,9.718449593E0,-9.655039310E-1,2.662015259E-1
4.426947482E0,9.718449593E0,-9.559326172E-1,2.805584669E-1
4.429184299E0,9.713663101E0,-9.367900491E-1,2.757728100E-1
4.431421055E0,9.708877563E0,-9.367900491E-1,2.805584669E-1
4.433655613E0,9.713663101E0,-9.320043921E-1,2.853440940E-1
4.435888156E0,9.699306488E0,-9.272187948E-1,2.853440940E-1
4.438115085E0,9.704092026E0,-9.176474810E-1,3.038884699E-1
4.440364353E0,9.704092026E0,-9.128618240E-1,3.086741269E-1
4.442601108E0,9.699306488E0,-9.320043921E-1,3.278166950E-1
4.444841160E0,9.704689980E0,-9.080761671E-1,3.038884699E-1
4.447070712E0,9.708877563E0,-9.080761671E-1,3.182454109E-1
4.449293003E0,9.718449593E0,-9.086744189E-1,3.236292601E-1
4.451548374E0,9.709476471E0,-8.889335990E-1,3.278166950E-1
4.453783726E0,9.728020668E0,-9.134600163E-1,3.284149170E-1
4.456025058E0,9.732806206E0,-9.182456732E-1,3.427718580E-1
4.458256870E0,9.733404160E0,-9.038887620E-1,3.092723191E-1
4.460493747E0,9.761520386E0,-9.140582681E-1,3.236292601E-1
4.462730503E0,9.747162819E0,-9.278169870E-1,3.284149170E-1
4.464963230E0,9.761520386E0,-9.284151793E-1,3.140579760E-1
4.467189243E0,9.766305923E0,-9.332008362E-1,3.140579760E-1
4.469440891E0,9.775279045E0,-9.523434043E-1,3.194418252E-1
4.471676548E0,9.780662537E0,-9.571290612E-1,2.907279432E-1
4.473916782E0,9.790233612E0,-9.571290612E-1,2.907279432E-1
4.476149753E0,9.789635658E0,-9.762716293E-1,3.098705411E-1
4.478386570E0,9.795019150E0,-9.571290612E-1,2.955136001E-1
4.480623081E0,9.799804688E0,-9.523434043E-1,2.955136001E-1
4.482859470E0,9.809376717E0,-9.337990284E-1,2.859423161E-1
4.485093723E0,9.809376717E0,-9.379864931E-1,2.763710022E-1
4.487318759E0,9.805189133E0,-9.092726111E-1,2.811566591E-1
4.489557163E0,9.795618057E0,-9.092726111E-1,2.524427772E-1
4.491805637E0,9.776474953E0,-8.997012973E-1,2.667997181E-1
4.494042881E0,9.772287369E0,-8.847461939E-1,2.476571500E-1
4.496272617E0,9.753145218E0,-8.847461939E-1,2.285145670E-1
4.498515659E0,9.738788605E0,-8.697910309E-1,2.470589429E-1
4.500751987E0,9.738788605E0,-8.745766878E-1,2.470589429E-1
4.502988621E0,9.724431038E0,-8.937192559E-1,2.470589429E-1
4.505212192E0,9.719645500E0,-8.745766878E-1,2.279163599E-1
4.507447299E0,9.714859962E0,-9.080761671E-1,2.135594189E-1
4.509686558E0,9.723833084E0,-9.128618240E-1,2.327020019E-1
4.511937656E0,9.700503349E0,-8.835497499E-1,2.327020019E-1
4.514173130E0,9.714262009E0,-9.314061999E-1,1.944168359E-1
4.516405613E0,9.719047546E0,-9.224331379E-1,2.135594189E-1
4.518645786E0,9.719047546E0,-9.320043921E-1,2.135594189E-1
4.520881626E0,9.762118340E0,-9.373882413E-1,2.237289101E-1
4.523120396E0,9.772287369E0,-9.326026440E-1,1.902294010E-1
4.525354282E0,9.771689415E0,-9.373882413E-1,1.998006850E-1
4.527591099E0,9.777072906E0,-9.182456732E-1,1.902294010E-1
4.529827427E0,9.781859398E0,-9.134600163E-1,1.950150430E-1
4.532061313E0,9.796216011E0,-9.188438654E-1,2.093719840E-1
4.534286167E0,9.777072906E0,-8.847461939E-1,2.189432681E-1
4.536525730E0,9.777671814E0,-8.751748800E-1,2.189432681E-1
4.538774448E0,9.772287369E0,-8.895317912E-1,2.141576260E-1
4.541014500E0,9.768099785E0,-8.703892231E-1,2.333002090E-1
4.543250279E0,9.767501831E0,-8.608179688E-1,2.614158690E-1
4.545480747E0,9.777671814E0,-8.327022791E-1,2.757728100E-1
4.547705600E0,9.772886276E0,-8.422735929E-1,2.757728100E-1
4.549945041E0,9.768099785E0,-8.087740541E-1,2.853440940E-1
4.552193332E0,9.763314247E0,-8.039883971E-1,2.997010350E-1
4.554432591E0,9.763913155E0,-7.944171429E-1,2.901297510E-1
