"Time (s)","Gyroscope x (rad/s)","Gyroscope y (rad/s)","Gyroscope z (rad/s)"
2.311304700E-2,4.917465150E-2,-3.054326167E-3,-9.162978968E-4
2.534961100E-2,4.917465150E-2,-6.719517522E-3,3.054326226E-4
2.758621200E-2,4.657847434E-2,-9.010262787E-3,-4.581489135E-3
2.982303600E-2,4.535674304E-2,-1.389718428E-2,-7.177666761E-3
3.206021800E-2,4.031710699E-2,-1.740965992E-2,-9.621127509E-3
3.429544400E-2,3.787364438E-2,-1.740965992E-2,-1.328631863E-2
3.653244400E-2,3.665191308E-2,-1.863138936E-2,-1.328631863E-2
3.876858900E-2,3.543018550E-2,-2.107485011E-2,-1.939497143E-2
4.100577100E-2,3.298672289E-2,-2.214386500E-2,-2.321287990E-2
4.324222200E-2,3.298672289E-2,-2.092213556E-2,-2.565634064E-2
4.547885500E-2,2.916881628E-2,-2.458732575E-2,-2.565634064E-2
4.771561000E-2,2.794708498E-2,-2.809980139E-2,-2.443460934E-2
4.995291500E-2,2.306016348E-2,-2.687807009E-2,-2.321287990E-2
5.218857200E-2,1.817324013E-2,-2.550362423E-2,-2.336559631E-2
5.442520500E-2,1.206458826E-2,-2.061670274E-2,-2.214386500E-2
5.666098400E-2,7.024950348E-3,-2.168571576E-2,-2.214386500E-2
5.889847200E-2,-3.054326226E-4,-2.031126991E-2,-1.970040426E-2
6.113473900E-2,-5.192354787E-3,-1.649336144E-2,-1.863138936E-2
6.337143300E-2,-1.237002108E-2,-7.941247895E-3,-1.985312067E-2
6.560800500E-2,-1.970040426E-2,-5.345070735E-3,-1.863138936E-2
6.784592000E-2,-1.970040426E-2,-6.566801574E-3,-1.496619824E-2
7.008084500E-2,-1.970040426E-2,-5.345070735E-3,-1.740965992E-2
7.231772200E-2,-1.603521220E-2,-5.497787148E-3,-1.618792862E-2
7.455398900E-2,-1.970040426E-2,-4.123340361E-3,-1.496619824E-2
7.679135500E-2,-1.725694351E-2,-1.832595794E-3,-1.374446787E-2
7.902768300E-2,-1.710422710E-2,-6.108652451E-4,-1.252273750E-2
8.126517100E-2,-1.725694351E-2,-1.832595794E-3,-8.857546374E-3
8.350509900E-2,-1.603521220E-2,-3.054326167E-3,-1.007927675E-2
8.575876100E-2,-1.481348183E-2,-3.054326167E-3,-8.857546374E-3
8.798776500E-2,-1.359175146E-2,-6.719517522E-3,-6.414085161E-3
9.022092000E-2,-1.481348183E-2,-3.054326167E-3,-5.192354787E-3
9.244089100E-2,-8.704829961E-3,-3.207042580E-3,-5.039638374E-3
9.469516300E-2,-7.483099122E-3,-6.872233935E-3,-5.039638374E-3
9.693167500E-2,-7.483099122E-3,-4.428773187E-3,-6.261368748E-3
9.917221400E-2,-4.886921961E-3,-3.207042580E-3,-8.704829961E-3
1.014050630E-1,-1.221730490E-3,3.054326226E-4,-6.261368748E-3
1.036423070E-1,1.374446787E-3,1.527163084E-3,-7.483099122E-3
1.058777200E-1,2.443460980E-3,-9.162978968E-4,-8.704829961E-3
1.081145360E-1,5.039638374E-3,1.374446787E-3,-8.552113548E-3
1.103483610E-1,5.039638374E-3,1.374446787E-3,-9.773843922E-3
1.125777320E-1,5.039638374E-3,6.261368748E-3,-8.552113548E-3
1.148242530E-1,2.596177394E-3,7.483099122E-3,-8.552113548E-3
1.170607640E-1,6.414085161E-3,9.926560335E-3,-9.773843922E-3
1.192998990E-1,7.788531948E-3,1.466076635E-2,-1.099557430E-2
1.215349460E-1,9.010262787E-3,1.343903504E-2,-9.773843922E-3
1.237704810E-1,8.857546374E-3,1.099557430E-2,-1.099557430E-2
1.260069310E-1,1.007927675E-2,9.773843922E-3,-1.221730467E-2
1.282404510E-1,1.252273750E-2,7.330383174E-3,-1.343903504E-2
1.304682960E-1,1.252273750E-2,6.108652335E-3,-1.466076635E-2
1.327168310E-1,1.130100712E-2,4.886921961E-3,-1.343903504E-2
1.349502290E-1,1.114829071E-2,2.596177394E-3,-1.343903504E-2
1.371814920E-1,7.483099122E-3,1.527163113E-4,-1.343903504E-2
1.394245330E-1,3.665191587E-3,-4.581489135E-3,-1.237002108E-2
1.416512180E-1,-2.443460980E-3,-9.162978968E-4,-1.237002108E-2
1.439025600E-1,-2.290744567E-3,2.748893574E-3,-1.237002108E-2
1.461357760E-1,-4.886921961E-3,-3.207042580E-3,-9.926560335E-3
1.483758280E-1,-1.099557430E-2,-3.054326167E-3,-1.252273750E-2
1.506097140E-1,-1.588249579E-2,1.832595794E-3,-1.130100712E-2
1.528472020E-1,-1.710422710E-2,3.054326167E-3,-1.130100712E-2
1.550796230E-1,-1.481348183E-2,-1.832595794E-3,-1.007927675E-2
1.573053320E-1,-1.603521220E-2,-5.497787148E-3,-8.857546374E-3
1.595431860E-1,-1.618792862E-2,-1.023199316E-2,-1.007927675E-2
1.617923920E-1,-1.130100712E-2,-1.404990070E-2,-1.007927675E-2
1.640317720E-1,-1.130100712E-2,-1.771509275E-2,-1.130100712E-2
1.662684670E-1,-1.023199316E-2,-2.015855350E-2,-1.007927675E-2
1.685019870E-1,-9.010262787E-3,-2.015855350E-2,-1.007927675E-2
1.707384980E-1,-6.566801574E-3,-2.015855350E-2,-1.007927675E-2
1.729753760E-1,-6.414085161E-3,-1.771509275E-2,-1.007927675E-2
1.752126810E-1,-8.857546374E-3,-1.649336144E-2,-1.252273750E-2
1.774482760E-1,-7.483099122E-3,-1.160643995E-2,-1.374446787E-2
1.796848490E-1,-5.192354787E-3,-1.542434748E-2,-1.252273750E-2
1.819211770E-1,-3.970623948E-3,-1.542434748E-2,-1.359175146E-2
1.841579930E-1,-6.261368748E-3,-1.282817032E-2,-1.496619824E-2
1.863946260E-1,-5.039638374E-3,-1.175915636E-2,-1.603521220E-2
1.886313820E-1,-3.817907767E-3,-1.175915636E-2,-1.725694351E-2
1.908679540E-1,-1.374446787E-3,-1.298088674E-2,-1.603521220E-2
1.931052590E-1,4.734205548E-3,-1.435533352E-2,-1.847867295E-2
1.953374360E-1,9.621127509E-3,-1.802052557E-2,-1.970040426E-2
1.975639990E-1,1.572977938E-2,-1.817324013E-2,-2.092213556E-2
1.998137550E-1,2.199114859E-2,-1.221730467E-2,-1.832595654E-2
2.020505710E-1,2.336559631E-2,-7.483099122E-3,-2.076941915E-2
2.042905000E-1,2.718350291E-2,2.290744567E-3,-1.817324013E-2
2.065237160E-1,2.871066704E-2,1.069014147E-2,-1.695151068E-2
2.087606540E-1,2.641992271E-2,1.924225502E-2,-1.695151068E-2
2.109983250E-1,2.275473066E-2,2.412917651E-2,-1.817324013E-2
2.132334330E-1,1.924225502E-2,3.023782931E-2,-1.817324013E-2
2.154700050E-1,1.939497143E-2,3.512475267E-2,-2.183843218E-2
2.177062110E-1,2.183843218E-2,4.001167417E-2,-2.183843218E-2
2.199431490E-1,2.443460934E-2,3.985895589E-2,-2.428189293E-2
2.221800270E-1,2.428189293E-2,3.741549700E-2,-2.794708498E-2
2.244142190E-1,2.672535367E-2,3.375030309E-2,-2.916881628E-2
2.266370580E-1,2.550362423E-2,3.252857551E-2,-2.794708498E-2
2.288760710E-1,2.794708498E-2,3.252857551E-2,-2.428189293E-2
2.311114840E-1,2.535090782E-2,3.023782931E-2,-2.306016348E-2
2.333522680E-1,1.786780916E-2,2.672535367E-2,-2.183843218E-2
2.355890840E-1,1.175915636E-2,3.039054573E-2,-1.817324013E-2
2.378279750E-1,4.428773187E-3,2.687807009E-2,-1.710422710E-2
2.400679040E-1,-3.054326167E-3,2.458732575E-2,-1.588249579E-2
2.423094210E-1,-8.093964309E-3,2.474004216E-2,-1.237002108E-2
2.445341530E-1,-1.298088674E-2,2.122756653E-2,-9.926560335E-3
2.467723730E-1,-1.420261711E-2,2.489275858E-2,-8.704829961E-3
2.490062600E-1,-1.664607786E-2,2.489275858E-2,-7.483099122E-3
2.512456400E-1,-1.802052557E-2,2.122756653E-2,-8.704829961E-3
2.534800150E-1,-1.679879427E-2,1.771509275E-2,-6.261368748E-3
2.557172580E-1,-1.084285788E-2,9.010262787E-3,-6.261368748E-3
2.579546240E-1,-7.330383174E-3,4.123340361E-3,-3.817907767E-3
2.601907080E-1,-1.221730490E-3,3.054326226E-4,-2.596177394E-3
2.624260590E-1,2.443460980E-3,-3.359758761E-3,-2.596177394E-3
2.646644020E-1,1.221730490E-3,3.054326226E-4,-1.527163113E-4
2.669003640E-1,3.817907767E-3,6.261368748E-3,-0.000000000E0
2.691372410E-1,3.970623948E-3,1.237002108E-2,-1.221730490E-3
2.713729590E-1,5.345070735E-3,1.970040426E-2,-2.443460980E-3
2.736106910E-1,5.345070735E-3,2.321287990E-2,-2.443460980E-3
2.758478120E-1,7.941247895E-3,2.687807009E-2,-6.108652335E-3
2.780827980E-1,1.175915636E-2,2.794708498E-2,-8.399397135E-3
2.803197970E-1,1.527163107E-2,2.428189293E-2,-1.084285788E-2
2.825583230E-1,2.626720630E-2,1.802052557E-2,-1.328631863E-2
2.847952000E-1,2.993239649E-2,1.313360315E-2,-1.328631863E-2
2.870340310E-1,3.604105115E-2,9.315694682E-3,-1.572977938E-2
2.892652310E-1,3.970624134E-2,1.160643995E-2,-1.313360315E-2
2.915014380E-1,4.337143153E-2,9.162978269E-3,-1.069014147E-2
2.937372160E-1,4.214970022E-2,1.038470957E-2,-7.024950348E-3
2.959767800E-1,3.726277873E-2,1.298088674E-2,-3.359758761E-3
2.982122530E-1,3.481931984E-2,1.420261711E-2,3.054326226E-4
3.004498020E-1,3.222314268E-2,1.298088674E-2,1.527163113E-4
3.026852150E-1,2.855795063E-2,1.069014147E-2,-1.069014193E-3
3.049214820E-1,2.962696366E-2,4.581489135E-3,-4.734205548E-3
3.071572610E-1,2.718350291E-2,2.290744567E-3,-7.177666761E-3
3.093947480E-1,2.718350291E-2,1.069014193E-3,-8.399397135E-3
3.116318700E-1,2.825251780E-2,-2.596177394E-3,-8.399397135E-3
3.138691750E-1,2.580905706E-2,-2.596177394E-3,-7.177666761E-3
3.161056860E-1,2.458732575E-2,-3.817907767E-3,-8.552113548E-3
3.183447000E-1,1.847867295E-2,-4.886921961E-3,-9.773843922E-3
3.205776100E-1,1.466076635E-2,-7.177666761E-3,-6.108652335E-3
3.228155240E-1,1.221730467E-2,-8.399397135E-3,-7.330383174E-3
3.250522190E-1,3.665191587E-3,-7.024950348E-3,-7.483099122E-3
3.272857390E-1,-5.192354787E-3,-1.542434748E-2,-7.635815535E-3
3.295190770E-1,-8.857546374E-3,-1.771509275E-2,-1.252273750E-2
3.317598610E-1,-1.511891466E-2,-1.878410578E-2,-1.618792862E-2
3.339981420E-1,-2.122756653E-2,-2.107485011E-2,-1.756237634E-2
3.362359350E-1,-2.244929783E-2,-2.351831272E-2,-1.756237634E-2
3.384722630E-1,-2.748893574E-2,-2.336559631E-2,-1.756237634E-2
3.407085910E-1,-3.115412779E-2,-2.214386500E-2,-2.122756653E-2
3.429445530E-1,-3.115412779E-2,-2.336559631E-2,-2.367102914E-2
3.451849100E-1,-3.466660157E-2,-1.970040426E-2,-2.367102914E-2
3.474156230E-1,-3.588833287E-2,-1.481348183E-2,-2.367102914E-2
3.496526220E-1,-3.817907721E-2,-1.099557430E-2,-2.489275858E-2
3.518897430E-1,-4.062253982E-2,-7.330383174E-3,-2.611448988E-2
3.541279640E-1,-4.291328415E-2,-2.443460980E-3,-2.489275858E-2
3.563628880E-1,-4.535674304E-2,1.221730490E-3,-2.504547499E-2
3.585996440E-1,-4.413501546E-2,2.443460980E-3,-2.977968007E-2
3.608357280E-1,-4.764748737E-2,7.330383174E-3,-2.871066704E-2
3.630735810E-1,-4.642575979E-2,7.330383174E-3,-2.733621933E-2
3.653102760E-1,-4.627304152E-2,1.099557430E-2,-3.100141138E-2
3.675468480E-1,-4.505131021E-2,1.206458826E-2,-2.977968007E-2
3.697828090E-1,-4.627304152E-2,1.572977938E-2,-2.977968007E-2
3.720224950E-1,-4.382958263E-2,1.572977938E-2,-2.855795063E-2
3.742550390E-1,-4.382958263E-2,1.572977938E-2,-2.611448988E-2
3.764916110E-1,-4.612032697E-2,2.183843218E-2,-2.611448988E-2
3.787272680E-1,-4.367686436E-2,2.428189293E-2,-2.489275858E-2
3.809669530E-1,-4.001167417E-2,2.412917651E-2,-2.244929783E-2
3.832023660E-1,-3.863722831E-2,3.023782931E-2,-1.863138936E-2
3.854389990E-1,-3.604105115E-2,3.497203439E-2,-1.740965992E-2
3.876749610E-1,-3.481931984E-2,3.741549700E-2,-1.618792862E-2
3.899125710E-1,-2.855795063E-2,4.092797264E-2,-1.725694351E-2
3.921481660E-1,-2.611448988E-2,3.970624134E-2,-1.481348183E-2
3.943846170E-1,-2.122756653E-2,4.199698567E-2,-1.359175146E-2
3.966203350E-1,-2.107485011E-2,4.688390717E-2,-1.481348183E-2
3.988579440E-1,-1.618792862E-2,4.917465150E-2,-1.481348183E-2
4.010954930E-1,-1.130100712E-2,4.550946131E-2,-1.343903504E-2
4.033313940E-1,-8.857546374E-3,4.657847434E-2,-1.099557430E-2
4.055682710E-1,-6.414085161E-3,4.535674304E-2,-1.099557430E-2
4.078042940E-1,-3.970623948E-3,4.657847434E-2,-7.330383174E-3
4.100412940E-1,-3.054326226E-4,4.520402849E-2,-4.886921961E-3
4.122785370E-1,9.162978968E-4,4.276056588E-2,-6.108652335E-3
4.145150490E-1,3.359758761E-3,3.909537569E-2,-4.886921961E-3
4.167508880E-1,3.207042580E-3,3.665191308E-2,-3.665191587E-3
4.189894750E-1,4.428773187E-3,3.298672289E-2,-3.665191587E-3
4.212233620E-1,4.276056774E-3,3.054326214E-2,-3.665191587E-3
4.234615210E-1,1.832595794E-3,2.825251780E-2,-2.443460980E-3
4.256969940E-1,3.054326167E-3,2.703078650E-2,-1.221730490E-3
4.279328950E-1,5.497787148E-3,2.687807009E-2,-2.443460980E-3
4.301698340E-1,4.276056774E-3,2.443460934E-2,-3.665191587E-3
4.324080540E-1,4.581489484E-4,1.970040426E-2,-0.000000000E0
4.346445040E-1,4.581489484E-4,2.336559631E-2,-1.221730490E-3
4.368803440E-1,-1.985311974E-3,2.336559631E-2,-0.000000000E0
4.391174050E-1,-4.428773187E-3,2.107485011E-2,-0.000000000E0
4.413537320E-1,-5.650503561E-3,2.229658142E-2,1.221730490E-3
4.435932960E-1,-4.428773187E-3,2.474004216E-2,-1.221730490E-3
4.458260230E-1,-9.315694682E-3,2.596177347E-2,-2.596177394E-3
4.480632050E-1,-1.298088674E-2,2.855795063E-2,-2.596177394E-3
4.502982510E-1,-1.053742506E-2,2.840523422E-2,-3.817907767E-3
4.525364720E-1,-1.160643995E-2,3.084869497E-2,-3.817907767E-3
4.547734720E-1,-1.404990070E-2,3.329215571E-2,-3.817907767E-3
4.570088230E-1,-1.282817032E-2,3.207042441E-2,-5.039638374E-3
4.592465550E-1,-1.160643995E-2,3.084869497E-2,-5.039638374E-3
4.614827000E-1,-1.527163107E-2,3.466660157E-2,-7.483099122E-3
4.637225680E-1,-1.267545391E-2,3.940080851E-2,-9.926560335E-3
4.659754970E-1,-1.145372353E-2,3.817907721E-2,-9.773843922E-3
4.682054170E-1,-1.130100712E-2,4.306599870E-2,-1.099557430E-2
4.704424160E-1,-1.007927675E-2,4.306599870E-2,-1.099557430E-2
4.726744720E-1,-9.010262787E-3,3.940080851E-2,-9.773843922E-3
4.749089700E-1,-1.130100712E-2,4.306599870E-2,-1.466076635E-2
4.771338840E-1,-1.252273750E-2,4.184427112E-2,-1.725694351E-2
4.793869970E-1,-1.023199316E-2,3.573561832E-2,-1.847867295E-2
4.816222880E-1,-9.010262787E-3,3.329215571E-2,-1.970040426E-2
4.838628880E-1,-6.719517522E-3,2.840523422E-2,-2.214386500E-2
4.860954930E-1,-8.093964309E-3,2.229658142E-2,-1.970040426E-2
4.883323700E-1,-8.246680722E-3,1.511891466E-2,-1.847867295E-2
4.905688820E-1,-8.399397135E-3,7.788531948E-3,-1.847867295E-2
4.928051490E-1,-1.099557430E-2,6.108652451E-4,-1.863138936E-2
4.950390960E-1,-9.773843922E-3,-4.276056774E-3,-1.618792862E-2
4.972678560E-1,-1.114829071E-2,-1.038470957E-2,-1.618792862E-2
4.995151710E-1,-8.857546374E-3,-1.893682219E-2,-1.618792862E-2
5.017515600E-1,-1.023199316E-2,-2.382374369E-2,-1.740965992E-2
5.039909390E-1,-6.566801574E-3,-2.993239649E-2,-1.863138936E-2
5.062246430E-1,-6.872233935E-3,-3.833179548E-2,-1.740965992E-2
5.084618260E-1,-1.985311974E-3,-4.092797264E-2,-1.740965992E-2
5.106992530E-1,-2.138028387E-3,-4.932736978E-2,-1.618792862E-2
5.129349090E-1,2.748893574E-3,-5.192354694E-2,-1.496619824E-2
5.151721530E-1,6.108652335E-3,-6.414084882E-2,-1.496619824E-2
5.174045140E-1,8.704829961E-3,-6.414084882E-2,-1.374446787E-2
5.196326020E-1,1.466076635E-2,-7.284568250E-2,-1.374446787E-2
5.218806490E-1,1.572977938E-2,-7.880161703E-2,-1.496619824E-2
5.241174660E-1,2.046398632E-2,-8.506298810E-2,-1.496619824E-2
5.263539160E-1,2.275473066E-2,-9.239336848E-2,-1.252273750E-2
5.285783420E-1,2.626720630E-2,-1.021672115E-1,-1.130100712E-2
5.308271820E-1,2.748893574E-2,-1.046106741E-1,-1.252273750E-2
5.330647310E-1,2.977968007E-2,-1.119410545E-1,-1.374446787E-2
5.353033180E-1,3.344487399E-2,-1.168279797E-1,-1.130100712E-2
5.375367160E-1,3.573561832E-2,-1.241583601E-1,-1.374446787E-2
5.397731670E-1,3.558290005E-2,-1.290452778E-1,-1.252273750E-2
5.420098000E-1,3.940080851E-2,-1.266018152E-1,-8.857546374E-3
5.442466770E-1,4.169155285E-2,-1.304197311E-1,-6.414085161E-3
5.464831880E-1,4.413501546E-2,-1.328631938E-1,-2.748893574E-3
5.487200660E-1,4.535674304E-2,-1.316414624E-1,-3.970623948E-3
5.509573090E-1,4.535674304E-2,-1.328631938E-1,-3.054326226E-4
5.531928440E-1,4.642575979E-2,-1.353066564E-1,3.359758761E-3
5.554263030E-1,5.131268129E-2,-1.365283877E-1,4.734205548E-3
5.576495090E-1,5.253441259E-2,-1.366810948E-1,9.621127509E-3
5.598813200E-1,5.115996301E-2,-1.426370293E-1,1.206458826E-2
5.621273530E-1,5.742133409E-2,-1.415680200E-1,1.450804994E-2
5.643789410E-1,5.849034712E-2,-1.427897513E-1,1.450804994E-2
5.666172220E-1,6.215553731E-2,-1.441642046E-1,1.572977938E-2
5.688531230E-1,6.963863969E-2,-1.430951804E-1,1.466076635E-2
5.710853610E-1,7.330382615E-2,-1.406517178E-1,1.588249579E-2
5.733217500E-1,7.834346592E-2,-1.346957833E-1,1.588249579E-2
5.755580790E-1,8.338310570E-2,-1.336267740E-1,1.847867295E-2
5.777951390E-1,9.208793938E-2,-1.264491081E-1,1.847867295E-2
5.800318330E-1,9.957103431E-2,-1.192714423E-1,1.863138936E-2
5.822693210E-1,1.056796908E-1,-1.243110746E-1,2.107485011E-2
5.845049170E-1,1.130100712E-1,-1.256855279E-1,2.122756653E-2
5.867425270E-1,1.178969890E-1,-1.305724531E-1,2.000583708E-2
5.889778170E-1,1.276708394E-1,-1.356120855E-1,1.756237634E-2
5.912146950E-1,1.324050426E-1,-1.406517178E-1,1.511891466E-2
5.934476660E-1,1.334740520E-1,-1.479821056E-1,1.389718428E-2
5.956728860E-1,1.395827085E-1,-1.516472995E-1,1.145372353E-2
5.979175150E-1,1.493565589E-1,-1.579086632E-1,6.719517522E-3
6.001608620E-1,1.518000066E-1,-1.627955884E-1,5.497787148E-3
6.024007910E-1,1.591303945E-1,-1.629483104E-1,6.108652451E-4
6.046366920E-1,1.653917581E-1,-1.631010175E-1,-3.054326167E-3
6.068703950E-1,1.728748679E-1,-1.608102769E-1,-6.566801574E-3
6.091072730E-1,1.791362315E-1,-1.597412676E-1,-1.511891466E-2
6.113435400E-1,1.864666194E-1,-1.586722434E-1,-2.122756653E-2
6.135804170E-1,1.927279830E-1,-1.551597714E-1,-2.596177347E-2
6.158169290E-1,2.015855312E-1,-1.516472995E-1,-3.451388702E-2
6.180535010E-1,2.102903575E-1,-1.469130963E-1,-4.291328415E-2
6.202903170E-1,2.177734673E-1,-1.435533315E-1,-5.024366826E-2
6.225232880E-1,2.240348309E-1,-1.423316002E-1,-5.879577994E-2
6.247458840E-1,2.315179259E-1,-1.412625909E-1,-6.719517708E-2
6.269998510E-1,2.402227521E-1,-1.403462887E-1,-7.452555746E-2
6.292363620E-1,2.438879460E-1,-1.379028261E-1,-7.681630552E-2
6.314773280E-1,2.428189367E-1,-1.330159009E-1,-8.048149943E-2
6.337098120E-1,2.377792895E-1,-1.438587606E-1,-8.185594529E-2
6.359462620E-1,2.225076705E-1,-1.629483104E-1,-8.689557761E-2
6.381829560E-1,2.061670274E-1,-1.893682331E-1,-9.453139454E-2
6.404203830E-1,1.617265791E-1,-2.564106882E-1,-9.880745411E-2
6.426556740E-1,8.185594529E-2,-3.689626157E-1,-1.000291854E-1
6.448921850E-1,1.069014193E-3,-4.692972302E-1,-1.059851199E-1
6.471288790E-1,-6.948592514E-2,-5.540547967E-1,-1.154535338E-1
6.493655130E-1,-1.287398487E-1,-6.233879924E-1,-1.200350225E-1
6.516024510E-1,-1.690569520E-1,-6.698137522E-1,-1.217148975E-1
6.538398170E-1,-1.853975952E-1,-6.841690540E-1,-1.194241568E-1
6.560755340E-1,-1.779145002E-1,-6.757696867E-1,-1.194241568E-1
6.583130220E-1,-1.525636017E-1,-6.423248053E-1,-1.165225431E-1
6.605480690E-1,-1.136209369E-1,-5.994115472E-1,-1.160643995E-1
6.627849460E-1,-6.811147183E-2,-5.407684445E-1,-1.166752651E-1
6.650182220E-1,-2.748893574E-2,-4.857905805E-1,-1.136209369E-1
6.672461280E-1,5.650503561E-3,-4.282165468E-1,-1.107193232E-1
6.694946630E-1,3.252857551E-2,-3.752239645E-1,-1.065959856E-1
6.717311740E-1,3.833179548E-2,-3.243694305E-1,-9.529497474E-2
6.739708590E-1,3.436116874E-2,-2.709187269E-1,-6.948592514E-2
6.762056610E-1,2.275473066E-2,-2.319760770E-1,-4.978551716E-2
6.784411960E-1,9.621127509E-3,-2.000583708E-1,-3.145955876E-2
6.806776460E-1,-4.581489135E-3,-1.719585657E-1,-1.313360315E-2
6.829140360E-1,-2.641992271E-2,-1.472185254E-1,-2.138028387E-3
6.851506080E-1,-4.184427112E-2,-1.189660057E-1,6.414085161E-3
6.873873020E-1,-5.253441259E-2,-9.330966324E-2,1.374446787E-2
6.896193580E-1,-6.169738993E-2,-6.398813426E-2,1.252273750E-2
6.918378030E-1,-6.734789163E-2,-3.955352306E-2,1.145372353E-2
6.940768170E-1,-7.055493444E-2,-1.282817032E-2,7.788531948E-3
6.963093610E-1,-6.872233748E-2,1.130100712E-2,6.108652451E-4
6.985419050E-1,-5.971207842E-2,3.054326214E-2,-4.123340361E-3
7.007744490E-1,-5.803219974E-2,4.642575979E-2,-1.023199316E-2
7.030069930E-1,-5.177082866E-2,5.345070735E-2,-1.130100712E-2
7.052395370E-1,-4.413501546E-2,6.429356337E-2,-1.252273750E-2
7.075029630E-1,-4.276056588E-2,7.040221989E-2,-1.359175146E-2
7.097402070E-1,-4.031710699E-2,7.024950534E-2,-1.725694351E-2
7.119938090E-1,-4.031710699E-2,7.024950534E-2,-1.847867295E-2
7.142283050E-1,-4.276056588E-2,6.795875728E-2,-1.863138936E-2
7.164655500E-1,-4.169155285E-2,6.551529467E-2,-1.985312067E-2
7.186991310E-1,-4.306599870E-2,5.451972410E-2,-2.107485011E-2
7.209358250E-1,-4.321871698E-2,4.734205827E-2,-2.107485011E-2
7.231727630E-1,-4.841107130E-2,3.649919853E-2,-2.367102914E-2
7.254103120E-1,-5.100724846E-2,2.794708498E-2,-2.733621933E-2
7.276443820E-1,-4.978551716E-2,2.321287990E-2,-2.855795063E-2
7.298784520E-1,-5.131268129E-2,1.343903504E-2,-2.871066704E-2
7.321183810E-1,-5.009094998E-2,1.221730467E-2,-2.993239649E-2
7.343548310E-1,-5.253441259E-2,7.483099122E-3,-2.871066704E-2
7.365898160E-1,-5.406157300E-2,-2.290744567E-3,-2.871066704E-2
7.388284640E-1,-5.039638281E-2,-5.955935922E-3,-2.871066704E-2
7.410652200E-1,-5.161811411E-2,-8.399397135E-3,-2.748893574E-2
7.433025850E-1,-5.299255997E-2,-1.084285788E-2,-2.504547499E-2
7.455386690E-1,-5.558873713E-2,-1.924225502E-2,-2.519819140E-2
7.477758520E-1,-5.207626149E-2,-2.535090782E-2,-2.397646010E-2
7.500112040E-1,-5.467243865E-2,-3.008511290E-2,-2.031126991E-2
7.522478370E-1,-5.482515693E-2,-3.619376570E-2,-1.908953860E-2
7.544822110E-1,-5.497787148E-2,-4.108068720E-2,-1.420261711E-2
7.567095060E-1,-5.757404864E-2,-4.581489414E-2,-9.315694682E-3
7.589458350E-1,-6.017022580E-2,-5.436700583E-2,-4.581489135E-3
7.611941260E-1,-5.910121277E-2,-5.925392732E-2,-2.138028387E-3
7.634333830E-1,-6.291911751E-2,-6.765332818E-2,3.054326226E-4
7.656714820E-1,-6.185010448E-2,-7.254024595E-2,3.054326226E-4
7.679040870E-1,-6.429356337E-2,-7.605272532E-2,3.054326226E-4
7.701404150E-1,-6.307183951E-2,-7.727445662E-2,-9.162978968E-4
7.723769870E-1,-6.429356337E-2,-7.727445662E-2,-2.138028387E-3
7.746138040E-1,-6.811147183E-2,-7.849618047E-2,-5.955935922E-3
7.768504370E-1,-6.688974798E-2,-8.093964309E-2,-8.399397135E-3
7.790869480E-1,-7.177666575E-2,-8.323039114E-2,-8.399397135E-3
7.813237640E-1,-6.933320314E-2,-7.834346592E-2,-7.177666761E-3
7.835610690E-1,-7.162395120E-2,-7.116580009E-2,-9.621127509E-3
7.857967260E-1,-7.024950534E-2,-6.750060618E-2,-1.206458826E-2
7.880334810E-1,-7.009678334E-2,-6.261368841E-2,-1.313360315E-2
7.902695650E-1,-6.872233748E-2,-5.421429127E-2,-1.557706390E-2
7.925031470E-1,-6.856962293E-2,-4.810563847E-2,-1.679879427E-2
7.947279400E-1,-6.719517708E-2,-4.321871698E-2,-2.290744707E-2
7.969714700E-1,-6.337726861E-2,-3.848451003E-2,-2.412917651E-2
7.992163430E-1,-6.322455406E-2,-3.237585723E-2,-2.519819140E-2
8.014568820E-1,-5.711590126E-2,-3.008511290E-2,-2.764165215E-2
8.036912570E-1,-5.451972410E-2,-2.779436857E-2,-3.008511290E-2
8.059258150E-1,-5.070181563E-2,-2.046398632E-2,-3.115412779E-2
8.081621440E-1,-5.054909736E-2,-1.206458826E-2,-3.604105115E-2
8.103989600E-1,-4.917465150E-2,-9.621127509E-3,-3.726277873E-2
8.126355320E-1,-4.780020565E-2,-3.665191587E-3,-4.092797264E-2
8.148721040E-1,-4.535674304E-2,-2.443460980E-3,-4.092797264E-2
8.171089210E-1,-4.520402849E-2,1.221730490E-3,-4.581489414E-2
8.193462250E-1,-4.260785133E-2,5.955935922E-3,-4.566217586E-2
8.215801730E-1,-4.260785133E-2,1.084285788E-2,-4.932736978E-2
8.238117410E-1,-3.985895589E-2,1.817324013E-2,-5.299255997E-2
8.260544780E-1,-3.619376570E-2,2.168571576E-2,-5.421429127E-2
8.282915380E-1,-3.604105115E-2,2.779436857E-2,-5.665775016E-2
8.305297580E-1,-3.329215571E-2,3.497203439E-2,-5.772676691E-2
8.327647440E-1,-3.084869497E-2,3.497203439E-2,-6.139195710E-2
8.349985080E-1,-2.825251780E-2,4.092797264E-2,-6.139195710E-2
8.372268410E-1,-3.084869497E-2,3.848451003E-2,-6.017022580E-2
8.394743990E-1,-2.840523422E-2,3.726277873E-2,-5.894849449E-2
8.417109720E-1,-2.733621933E-2,3.115412779E-2,-5.894849449E-2
8.439503510E-1,-2.733621933E-2,2.993239649E-2,-5.894849449E-2
8.461843600E-1,-2.367102914E-2,2.382374369E-2,-5.772676691E-2
8.484206880E-1,-2.382374369E-2,1.893682219E-2,-5.772676691E-2
8.506572610E-1,-2.504547499E-2,1.664607786E-2,-5.894849449E-2
8.528940160E-1,-2.397646010E-2,1.298088674E-2,-6.017022580E-2
8.551313820E-1,-2.412917651E-2,6.872233935E-3,-5.910121277E-2
8.573669770E-1,-2.046398632E-2,7.635815418E-4,-5.772676691E-2
8.595992160E-1,-1.695151068E-2,-1.832595794E-3,-5.650503561E-2
8.618225440E-1,-1.206458826E-2,-7.941247895E-3,-5.528330430E-2
8.640766940E-1,-9.773843922E-3,-1.160643995E-2,-5.039638281E-2
8.663135710E-1,-1.237002108E-2,-1.756237634E-2,-4.550946131E-2
8.685553920E-1,-3.817907767E-3,-2.260201424E-2,-4.673119262E-2
8.707867160E-1,-2.901609987E-3,-3.115412779E-2,-3.817907721E-2
8.730242040E-1,7.635815418E-4,-3.726277873E-2,-3.329215571E-2
8.752592510E-1,4.276056774E-3,-4.337143153E-2,-2.718350291E-2
8.774961280E-1,8.857546374E-3,-5.329799280E-2,-2.351831272E-2
8.797323950E-1,1.237002108E-2,-6.062837690E-2,-1.985312067E-2
8.819693940E-1,1.343903504E-2,-6.673702598E-2,-1.496619824E-2
8.842063330E-1,1.817324013E-2,-7.651086897E-2,-1.374446787E-2
8.864423560E-1,1.924225502E-2,-8.506298810E-2,-1.130100712E-2
8.886790500E-1,2.412917651E-2,-8.872817457E-2,-1.007927675E-2
8.909137300E-1,3.023782931E-2,-9.254608303E-2,-1.130100712E-2
8.931404150E-1,3.390302137E-2,-9.498954564E-2,-1.114829071E-2
8.953887670E-1,3.878994286E-2,-9.392052889E-2,-1.237002108E-2
8.976249730E-1,4.123340547E-2,-9.636399150E-2,-1.237002108E-2
8.998648410E-1,4.734205827E-2,-1.001819000E-1,-1.237002108E-2
9.020986670E-1,5.345070735E-2,-9.773843735E-2,-1.343903504E-2
9.043350560E-1,5.833763257E-2,-9.789115191E-2,-9.773843922E-3
9.065721160E-1,5.971207842E-2,-9.544769675E-2,-1.099557430E-2
9.088092990E-1,6.337726861E-2,-9.560041130E-2,-1.221730467E-2
9.110447730E-1,6.963863969E-2,-9.208793938E-2,-1.206458826E-2
9.132814670E-1,7.208210230E-2,-9.208793938E-2,-9.621127509E-3
9.155175510E-1,7.819075137E-2,-8.979719132E-2,-5.955935922E-3
9.177544290E-1,8.689557761E-2,-8.994990587E-2,-5.803219974E-3
9.199910010E-1,9.300423414E-2,-9.010262042E-2,-4.581489135E-3
9.222278780E-1,9.544769675E-2,-8.643743396E-2,-2.138028387E-3
9.244646950E-1,1.029307917E-1,-8.185594529E-2,1.679879380E-3
9.266989470E-1,1.091921628E-1,-7.712173462E-2,4.123340361E-3
9.289252660E-1,1.142318025E-1,-7.223481685E-2,3.054326167E-3
9.311738620E-1,1.180497110E-1,-6.627888232E-2,5.497787148E-3
9.334103740E-1,1.229366288E-1,-6.520986557E-2,5.650503561E-3
9.356471290E-1,1.304197311E-1,-6.291911751E-2,6.872233935E-3
9.378724090E-1,1.340849251E-1,-5.818491429E-2,1.175915636E-2
9.401213110E-1,1.366810948E-1,-5.329799280E-2,1.557706390E-2
9.423570290E-1,1.441642046E-1,-5.100724846E-2,1.802052557E-2
9.445974460E-1,1.490511149E-1,-4.871650413E-2,2.061670274E-2
9.468298680E-1,1.527163088E-1,-4.993823543E-2,2.428189293E-2
9.490666840E-1,1.600466967E-1,-4.657847434E-2,3.039054573E-2
9.513027080E-1,1.637118906E-1,-4.657847434E-2,3.543018550E-2
9.535395240E-1,1.675297916E-1,-4.550946131E-2,4.153883830E-2
9.557731660E-1,1.736384481E-1,-4.077525437E-2,4.764748737E-2
9.580010720E-1,1.834122837E-1,-4.092797264E-2,5.390885845E-2
9.602498510E-1,1.898263693E-1,-3.375030309E-2,5.528330430E-2
9.624871560E-1,1.947132945E-1,-3.268129006E-2,6.017022580E-2
9.647256810E-1,2.044871449E-1,-3.039054573E-2,6.398813426E-2
9.669592020E-1,2.118175179E-1,-3.298672289E-2,6.154467165E-2
9.691953470E-1,2.167044431E-1,-3.787364438E-2,5.910121277E-2
9.714324070E-1,2.179261744E-1,-3.787364438E-2,6.032294407E-2
9.736689790E-1,2.142609805E-1,-3.909537569E-2,5.543602258E-2
9.759056130E-1,2.118175179E-1,-4.260785133E-2,5.161811411E-2
9.781424290E-1,2.167044431E-1,-4.642575979E-2,4.688390717E-2
9.803799170E-1,2.165517360E-1,-5.253441259E-2,4.428773001E-2
9.826152680E-1,2.165517360E-1,-5.604688451E-2,4.062253982E-2
9.848518410E-1,2.186897546E-1,-6.704246253E-2,3.817907721E-2
9.870881080E-1,2.223549485E-1,-7.315111160E-2,3.817907721E-2
9.893249850E-1,2.232712507E-1,-8.414668590E-2,3.695734590E-2
9.915614970E-1,2.257147133E-1,-9.025534242E-2,3.573561832E-2
9.937978860E-1,2.243402600E-1,-9.636399150E-2,3.451388702E-2
9.960350070E-1,2.241875380E-1,-1.072068512E-1,3.313944116E-2
9.982724950E-1,2.203696370E-1,-1.119410545E-1,3.191770986E-2
1.000507908E0,2.214386463E-1,-1.156062484E-1,3.191770986E-2
1.002744419E0,2.226603776E-1,-1.217148975E-1,3.313944116E-2
1.004976047E0,2.163990140E-1,-1.240056455E-1,3.543018550E-2
1.007199009E0,2.162462920E-1,-1.276708394E-1,3.787364438E-2
1.009454380E0,2.150245607E-1,-1.288925707E-1,4.276056588E-2
1.011691684E0,2.148718536E-1,-1.337794960E-1,4.398229718E-2
1.013932163E0,2.148718536E-1,-1.374446750E-1,4.520402849E-2
1.016161960E0,2.134974003E-1,-1.397354305E-1,4.642575979E-2
1.018385837E0,2.145664245E-1,-1.446223408E-1,4.886921868E-2
1.020625522E0,2.145664245E-1,-1.495092660E-1,5.009094998E-2
1.022873264E0,2.157881409E-1,-1.446223408E-1,5.131268129E-2
1.025109775E0,2.147191316E-1,-1.421788931E-1,5.131268129E-2
1.027338474E0,2.170098722E-1,-1.470658034E-1,4.886921868E-2
1.029586704E0,2.133446932E-1,-1.446223408E-1,4.886921868E-2
1.031820163E0,2.098322064E-1,-1.409571618E-1,4.886921868E-2
1.034057895E0,2.049452960E-1,-1.371392459E-1,4.886921868E-2
1.036282199E0,2.002110779E-1,-1.310305893E-1,4.886921868E-2
1.038529819E0,1.939497143E-1,-1.296561509E-1,4.871650413E-2
1.040765903E0,1.892155111E-1,-1.272126883E-1,4.627304152E-2
1.043005222E0,1.866193265E-1,-1.270599663E-1,4.627304152E-2
1.045239231E0,1.844813079E-1,-1.197295859E-1,4.138612002E-2
1.047473362E0,1.818851233E-1,-1.209513173E-1,3.772092983E-2
1.049702671E0,1.844813079E-1,-1.209513173E-1,2.428189293E-2
1.051950046E0,1.835650057E-1,-1.125519201E-1,1.450804994E-2
1.054182895E0,1.800525337E-1,-1.050688252E-1,7.177666761E-3
1.056410007E0,1.753183305E-1,-9.773843735E-2,3.512475174E-3
1.058646763E0,1.681406647E-1,-8.674286306E-2,-3.054326226E-4
1.060895237E0,1.608102769E-1,-8.414668590E-2,-2.748893574E-3
1.063134800E0,1.475239545E-1,-7.055493444E-2,9.162978968E-4
1.065371372E0,1.377501190E-1,-6.673702598E-2,5.650503561E-3
1.067605259E0,1.291979998E-1,-6.169738993E-2,1.175915636E-2
1.069842563E0,1.180497110E-1,-6.139195710E-2,1.527163107E-2
1.072078159E0,1.156062484E-1,-6.261368841E-2,2.015855350E-2
1.074314731E0,1.117883399E-1,-6.490442902E-2,2.138028294E-2
1.076551060E0,1.081231460E-1,-6.612616032E-2,2.260201424E-2
1.078787876E0,1.004873365E-1,-7.208210230E-2,2.244929783E-2
1.081024753E0,9.682214260E-2,-7.192938030E-2,2.000583708E-2
1.083262241E0,9.575312585E-2,-6.948592514E-2,2.000583708E-2
1.085497898E0,9.560041130E-2,-7.192938030E-2,1.756237634E-2
1.087735386E0,9.193521738E-2,-7.192938030E-2,1.634064503E-2
1.089970432E0,9.086620808E-2,-6.948592514E-2,1.634064503E-2
1.092207309E0,8.597928286E-2,-6.566801667E-2,1.252273750E-2
1.094443638E0,8.491026610E-2,-6.200282276E-2,8.857546374E-3
1.096680759E0,7.757988572E-2,-5.940664560E-2,6.414085161E-3
1.098917270E0,7.009678334E-2,-6.169738993E-2,3.970623948E-3
1.101153599E0,6.658431143E-2,-5.925392732E-2,-1.069014193E-3
1.103390415E0,5.910121277E-2,-5.910121277E-2,-1.069014193E-3
1.105627903E0,5.665775016E-2,-6.139195710E-2,-4.734205548E-3
1.107860568E0,5.161811411E-2,-6.505715102E-2,-1.099557430E-2
1.110088962E0,4.932736978E-2,-6.368270516E-2,-1.710422710E-2
1.112336521E0,4.550946131E-2,-6.490442902E-2,-1.710422710E-2
1.114573581E0,3.817907721E-2,-6.719517708E-2,-2.214386500E-2
1.116812657E0,3.313944116E-2,-7.315111160E-2,-2.458732575E-2
1.119046360E0,3.069597855E-2,-7.437284291E-2,-2.703078650E-2
1.121282932E0,2.809980139E-2,-7.666359097E-2,-2.703078650E-2
1.123520542E0,2.321287990E-2,-8.139779419E-2,-3.084869497E-2
1.125756138E0,1.939497143E-2,-8.506298810E-2,-2.840523422E-2
1.127992710E0,1.817324013E-2,-8.735372871E-2,-2.596177347E-2
1.130229282E0,1.679879427E-2,-9.346238524E-2,-2.611448988E-2
1.132453891E0,1.420261711E-2,-9.468411654E-2,-2.367102914E-2
1.134690464E0,1.038470957E-2,-9.819658846E-2,-2.122756653E-2
1.136927036E0,7.941247895E-3,-9.697485715E-2,-1.634064503E-2
1.139163608E0,6.719517522E-3,-9.682214260E-2,-1.145372353E-2
1.141401218E0,6.719517522E-3,-9.575312585E-2,-6.566801574E-3
1.143636509E0,3.054326167E-3,-9.560041130E-2,-4.123340361E-3
1.145873325E0,3.054326167E-3,-9.315694869E-2,7.635815418E-4
1.148110019E0,3.054326167E-3,-9.437867999E-2,7.635815418E-4
1.150347202E0,-6.108652451E-4,-9.193521738E-2,-1.679879380E-3
1.152583591E0,7.635815418E-4,-8.582656831E-2,-2.901609987E-3
1.154821018E0,-4.581489484E-4,-8.093964309E-2,-5.345070735E-3
1.157056430E0,-5.345070735E-3,-7.971791178E-2,-4.123340361E-3
1.159294773E0,-7.788531948E-3,-8.200865984E-2,-4.123340361E-3
1.161530491E0,-7.941247895E-3,-8.811730891E-2,-6.566801574E-3
1.163767001E0,-1.160643995E-2,-8.445212245E-2,-4.276056774E-3
1.166005588E0,-1.282817032E-2,-8.674286306E-2,-4.276056774E-3
1.168239231E0,-1.649336144E-2,-8.796459436E-2,-3.054326167E-3
1.170476963E0,-1.893682219E-2,-8.674286306E-2,-3.054326167E-3
1.172717808E0,-2.153299935E-2,-8.781187981E-2,-4.276056774E-3
1.174956699E0,-2.275473066E-2,-8.781187981E-2,-4.276056774E-3
1.177188266E0,-2.275473066E-2,-8.781187981E-2,-3.054326167E-3
1.179421359E0,-2.153299935E-2,-9.025534242E-2,-5.497787148E-3
1.181658603E0,-2.138028294E-2,-8.781187981E-2,-6.719517522E-3
1.183896275E0,-2.641992271E-2,-8.781187981E-2,-4.276056774E-3
1.186131626E0,-2.764165215E-2,-8.659014851E-2,-5.650503561E-3
1.188368198E0,-2.764165215E-2,-9.010262042E-2,-3.207042580E-3
1.190604954E0,-3.008511290E-2,-8.643743396E-2,-6.872233935E-3
1.192842441E0,-3.130684420E-2,-8.521570265E-2,-5.650503561E-3
1.195079319E0,-3.619376570E-2,-8.750644326E-2,-1.053742506E-2
1.197314548E0,-3.604105115E-2,-8.399397135E-2,-1.053742506E-2
1.199551792E0,-4.337143153E-2,-8.139779419E-2,-1.175915636E-2
1.201791049E0,-4.352414981E-2,-8.139779419E-2,-9.315694682E-3
1.204039402E0,-4.459316283E-2,-7.406741381E-2,-1.175915636E-2
1.206275546E0,-4.581489414E-2,-7.406741381E-2,-9.315694682E-3
1.208512180E0,-4.932736978E-2,-7.024950534E-2,-1.053742506E-2
1.210746311E0,-5.177082866E-2,-6.780604273E-2,-1.053742506E-2
1.212983494E0,-5.161811411E-2,-6.062837690E-2,-1.175915636E-2
1.215219272E0,-5.283984542E-2,-5.696318299E-2,-1.298088674E-2
1.217455600E0,-5.390885845E-2,-5.451972410E-2,-1.175915636E-2
1.219692173E0,-5.513058975E-2,-5.314527452E-2,-1.053742506E-2
1.221925693E0,-5.894849449E-2,-5.314527452E-2,-1.053742506E-2
1.224153598E0,-6.017022580E-2,-5.314527452E-2,-1.191187184E-2
1.226402866E0,-5.879577994E-2,-5.436700583E-2,-1.557706390E-2
1.228639011E0,-5.879577994E-2,-5.314527452E-2,-1.298088674E-2
1.230879307E0,-5.650503561E-2,-5.558873713E-2,-1.175915636E-2
1.233111667E0,-5.772676691E-2,-5.925392732E-2,-1.313360315E-2
1.235348301E0,-5.650503561E-2,-6.169738993E-2,-1.435533352E-2
1.237584202E0,-5.299255997E-2,-6.536258012E-2,-1.435533352E-2
1.239821323E0,-5.299255997E-2,-7.147123665E-2,-1.679879427E-2
1.242058079E0,-5.192354694E-2,-7.757988572E-2,-1.679879427E-2
1.244294590E0,-4.963280261E-2,-8.735372871E-2,-1.924225502E-2
1.246531589E0,-5.100724846E-2,-9.453139454E-2,-2.168571576E-2
1.248768772E0,-4.871650413E-2,-1.006400511E-1,-2.412917651E-2
1.251004184E0,-4.993823543E-2,-1.043052375E-1,-2.412917651E-2
1.253240757E0,-4.886921868E-2,-1.067487001E-1,-2.290744707E-2
1.255477268E0,-5.009094998E-2,-1.079704314E-1,-2.183843218E-2
1.257710971E0,-5.131268129E-2,-1.102611795E-1,-1.817324013E-2
1.259938755E0,-5.131268129E-2,-1.114829108E-1,-1.939497143E-2
1.262187046E0,-5.390885845E-2,-1.114829108E-1,-1.817324013E-2
1.264424167E0,-4.902193695E-2,-1.151480973E-1,-1.695151068E-2
1.266664402E0,-5.146539584E-2,-1.151480973E-1,-1.695151068E-2
1.268897068E0,-5.268712714E-2,-1.163698286E-1,-1.572977938E-2
1.271133518E0,-5.650503561E-2,-1.186605766E-1,-1.450804994E-2
1.273369602E0,-5.283984542E-2,-1.224784851E-1,-1.206458826E-2
1.275606418E0,-4.917465150E-2,-1.224784851E-1,-1.084285788E-2
1.277843052E0,-5.039638281E-2,-1.212567538E-1,-1.084285788E-2
1.280079929E0,-4.932736978E-2,-1.261436790E-1,-1.206458826E-2
1.282316745E0,-4.688390717E-2,-1.285871267E-1,-7.177666761E-3
1.284554050E0,-4.444044828E-2,-1.275181174E-1,-5.955935922E-3
1.286786533E0,-4.062253982E-2,-1.250746548E-1,-3.359758761E-3
1.289010898E0,-4.184427112E-2,-1.238529310E-1,3.054326226E-4
1.291250217E0,-3.817907721E-2,-1.178969890E-1,2.748893574E-3
1.293498997E0,-3.802636266E-2,-1.117883399E-1,5.192354787E-3
1.295738926E0,-3.558290005E-2,-1.093448773E-1,7.635815535E-3
1.297976475E0,-3.054326214E-2,-1.082758680E-1,6.566801574E-3
1.300209323E0,-3.054326214E-2,-1.070541367E-1,5.345070735E-3
1.302446628E0,-2.809980139E-2,-1.072068512E-1,7.788531948E-3
1.304681980E0,-3.298672289E-2,-1.046106741E-1,9.010262787E-3
1.306918979E0,-2.932153270E-2,-1.047633886E-1,9.010262787E-3
1.309155003E0,-2.687807009E-2,-1.047633886E-1,1.023199316E-2
1.311391697E0,-2.687807009E-2,-1.059851199E-1,9.010262787E-3
1.313628635E0,-2.565634064E-2,-1.047633886E-1,1.023199316E-2
1.315864963E0,-2.306016348E-2,-1.023199260E-1,1.023199316E-2
1.318101657E0,-2.046398632E-2,-9.758572280E-2,9.162978269E-3
1.320339084E0,-1.802052557E-2,-9.269879758E-2,1.038470957E-2
1.322574741E0,-1.420261711E-2,-8.918632567E-2,9.162978269E-3
1.324811313E0,-1.282817032E-2,-8.323039114E-2,9.162978269E-3
1.327045383E0,-1.145372353E-2,-7.712173462E-2,8.093964309E-3
1.329276401E0,-1.007927675E-2,-6.994406879E-2,6.872233935E-3
1.331520969E0,-7.635815535E-3,-6.627888232E-2,8.093964309E-3
1.333757419E0,-5.039638374E-3,-6.032294407E-2,8.246680722E-3
1.335996433E0,-4.886921961E-3,-5.543602258E-2,5.803219974E-3
1.338231724E0,-4.886921961E-3,-5.910121277E-2,3.207042580E-3
1.340467441E0,-4.886921961E-3,-5.910121277E-2,4.581489135E-3
1.342704197E0,-3.817907767E-3,-6.627888232E-2,1.985311974E-3
1.344937412E0,-6.414085161E-3,-7.116580009E-2,-4.581489484E-4
1.347164829E0,-7.635815535E-3,-7.605272532E-2,-2.901609987E-3
1.349413547E0,-9.162978269E-3,-8.689557761E-2,-3.054326167E-3
1.351650120E0,-1.175915636E-2,-9.407325089E-2,-3.054326167E-3
1.353890049E0,-1.298088674E-2,-9.773843735E-2,-5.497787148E-3
1.356124607E0,-1.572977938E-2,-1.061378345E-1,-6.719517522E-3
1.358361118E0,-1.588249579E-2,-1.183551401E-1,-6.872233935E-3
1.360596470E0,-1.832595654E-2,-1.169806942E-1,-6.872233935E-3
1.362832798E0,-2.199114859E-2,-1.194241568E-1,-1.053742506E-2
1.365066379E0,-2.076941915E-2,-1.206458881E-1,-1.298088674E-2
1.367291721E0,-2.076941915E-2,-1.206458881E-1,-1.420261711E-2
1.369531833E0,-2.336559631E-2,-1.217148975E-1,-1.664607786E-2
1.371779819E0,-2.061670274E-2,-1.145372316E-1,-1.908953860E-2
1.374018039E0,-2.183843218E-2,-1.084285825E-1,-1.908953860E-2
1.376248142E0,-1.924225502E-2,-1.061378345E-1,-2.397646010E-2
1.378489048E0,-1.924225502E-2,-1.049161032E-1,-2.764165215E-2
1.380725620E0,-1.908953860E-2,-1.000291854E-1,-2.886338346E-2
1.382964023E0,-1.771509275E-2,-9.392052889E-2,-2.748893574E-2
1.385196079E0,-1.893682219E-2,-9.147707373E-2,-2.871066704E-2
1.387422519E0,-1.756237634E-2,-8.307767659E-2,-2.993239649E-2
1.389668064E0,-1.985312067E-2,-7.696902007E-2,-3.359758854E-2
1.391906650E0,-1.847867295E-2,-7.208210230E-2,-3.115412779E-2
1.394133030E0,-2.092213556E-2,-7.208210230E-2,-2.993239649E-2
1.396370761E0,-2.092213556E-2,-7.086037099E-2,-2.871066704E-2
1.398618137E0,-1.710422710E-2,-6.734789163E-2,-2.871066704E-2
1.400857822E0,-2.092213556E-2,-6.719517708E-2,-2.382374369E-2
1.403094578E0,-2.092213556E-2,-6.597344577E-2,-2.015855350E-2
1.405327915E0,-2.092213556E-2,-6.597344577E-2,-2.138028294E-2
1.407564975E0,-2.214386500E-2,-6.841690838E-2,-2.015855350E-2
1.409802036E0,-2.214386500E-2,-6.597344577E-2,-1.771509275E-2
1.412037876E0,-2.336559631E-2,-6.719517708E-2,-1.649336144E-2
1.414271213E0,-2.718350291E-2,-6.948592514E-2,-1.649336144E-2
1.416498875E0,-3.084869497E-2,-6.948592514E-2,-1.649336144E-2
1.418747593E0,-3.833179548E-2,-7.299839705E-2,-1.786780916E-2
1.420981235E0,-3.833179548E-2,-7.177666575E-2,-1.542434748E-2
1.423211764E0,-4.077525437E-2,-7.406741381E-2,-1.298088674E-2
1.425457553E0,-4.077525437E-2,-7.284568250E-2,-1.664607786E-2
1.427694797E0,-4.337143153E-2,-7.895433158E-2,-1.542434748E-2
1.429933201E0,-4.825835302E-2,-8.124507964E-2,-1.557706390E-2
1.432167026E0,-4.963280261E-2,-8.246681094E-2,-1.924225502E-2
1.434403355E0,-4.963280261E-2,-8.491026610E-2,-1.924225502E-2
1.436640232E0,-4.963280261E-2,-8.857546002E-2,-1.802052557E-2
1.438876987E0,-5.085453019E-2,-8.720101416E-2,-1.802052557E-2
1.441114292E0,-5.222897977E-2,-9.086620808E-2,-1.557706390E-2
1.443350132E0,-5.467243865E-2,-9.086620808E-2,-1.679879427E-2
1.445587436E0,-5.467243865E-2,-9.330966324E-2,-1.924225502E-2
1.447822788E0,-5.238169432E-2,-9.697485715E-2,-1.802052557E-2
1.450059543E0,-5.360342562E-2,-9.941831976E-2,-1.939497143E-2
1.452295689E0,-5.482515693E-2,-9.926560521E-2,-1.695151068E-2
1.454532749E0,-5.497787148E-2,-1.029307917E-1,-1.450804994E-2
1.456769260E0,-5.619960278E-2,-1.029307917E-1,-1.450804994E-2
1.459002780E0,-5.635231733E-2,-1.078177169E-1,-1.206458826E-2
1.461230991E0,-6.001751125E-2,-1.088867337E-1,-1.328631863E-2
1.463480015E0,-6.261368841E-2,-1.125519201E-1,-1.084285788E-2
1.465715671E0,-6.139195710E-2,-1.125519201E-1,-8.399397135E-3
1.467955113E0,-6.383541971E-2,-1.137736514E-1,-7.177666761E-3
1.470188450E0,-6.520986557E-2,-1.172861308E-1,-3.665191587E-3
1.472425083E0,-6.765332818E-2,-1.160643995E-1,-0.000000000E0
1.474661899E0,-7.009678334E-2,-1.185078546E-1,2.443460980E-3
1.476898472E0,-7.131851465E-2,-1.160643995E-1,6.108652335E-3
1.479135349E0,-7.009678334E-2,-1.148426682E-1,1.099557430E-2
1.481372593E0,-7.009678334E-2,-1.123992056E-1,1.481348183E-2
1.483608188E0,-7.009678334E-2,-1.075122803E-1,1.970040426E-2
1.485844761E0,-6.872233748E-2,-1.015563458E-1,1.970040426E-2
1.488079502E0,-7.101308554E-2,-9.773843735E-2,2.092213556E-2
1.490311497E0,-7.223481685E-2,-9.178250283E-2,2.092213556E-2
1.492554172E0,-7.086037099E-2,-8.811730891E-2,2.336559631E-2
1.494790806E0,-6.963863969E-2,-8.567385375E-2,2.336559631E-2
1.497029575E0,-6.841690838E-2,-8.567385375E-2,2.214386500E-2
1.499265720E0,-6.704246253E-2,-8.338310570E-2,2.229658142E-2
1.501500827E0,-6.475171447E-2,-8.704829961E-2,2.596177347E-2
1.503737400E0,-6.123924255E-2,-9.804387391E-2,2.596177347E-2
1.505973789E0,-6.383541971E-2,-1.015563458E-1,2.458732575E-2
1.508210483E0,-5.894849449E-2,-1.065959856E-1,2.580905706E-2
1.510447300E0,-5.543602258E-2,-1.163698286E-1,2.092213556E-2
1.512684543E0,-5.803219974E-2,-1.235474944E-1,1.970040426E-2
1.514921970E0,-5.833763257E-2,-1.356120855E-1,2.092213556E-2
1.517163852E0,-5.589416996E-2,-1.417207420E-1,1.847867295E-2
1.519393101E0,-5.742133409E-2,-1.539380401E-1,1.466076635E-2
1.521629917E0,-5.390885845E-2,-1.624901593E-1,1.343903504E-2
1.523864658E0,-5.406157300E-2,-1.696678251E-1,1.221730467E-2
1.526099887E0,-5.421429127E-2,-1.769981980E-1,1.221730467E-2
1.528327915E0,-5.314527452E-2,-1.843285859E-1,1.099557430E-2
1.530576267E0,-4.948008433E-2,-1.879937798E-1,8.552113548E-3
1.532813327E0,-4.948008433E-2,-1.941024363E-1,7.330383174E-3
1.535050510E0,-5.207626149E-2,-1.976149082E-1,7.177666761E-3
1.537274936E0,-5.085453019E-2,-2.025018334E-1,3.512475174E-3
1.539522495E0,-4.978551716E-2,-2.049452960E-1,1.069014193E-3
1.541759067E0,-4.474587739E-2,-2.050980031E-1,-1.527163113E-4
1.543998387E0,-4.612032697E-2,-2.087631971E-1,2.290744567E-3
1.546232212E0,-4.230241850E-2,-2.050980031E-1,2.443460980E-3
1.548468723E0,-4.108068720E-2,-2.040289938E-1,4.886921961E-3
1.550705600E0,-4.108068720E-2,-1.991420686E-1,8.552113548E-3
1.552939975E0,-4.092797264E-2,-1.942551434E-1,1.099557430E-2
1.555163852E0,-4.092797264E-2,-1.954768747E-1,1.343903504E-2
1.557400363E0,-3.848451003E-2,-1.942551434E-1,1.343903504E-2
1.559639500E0,-3.252857551E-2,-2.017382532E-1,1.466076635E-2
1.561891453E0,-3.130684420E-2,-2.054034323E-1,1.221730467E-2
1.564127903E0,-2.901609987E-2,-2.090686262E-1,1.099557430E-2
1.566364108E0,-2.657263726E-2,-2.151772827E-1,8.552113548E-3
1.568598117E0,-2.306016348E-2,-2.212859392E-1,7.330383174E-3
1.570835483E0,-1.817324013E-2,-2.286163121E-1,4.886921961E-3
1.573071445E0,-1.588249579E-2,-2.336559594E-1,3.665191587E-3
1.575307956E0,-9.926560335E-3,-2.422080636E-1,4.886921961E-3
1.577544224E0,-7.483099122E-3,-2.495384514E-1,2.443460980E-3
1.579780796E0,-3.970623948E-3,-2.519819140E-1,1.221730490E-3
1.582017856E0,-3.054326226E-4,-2.545780838E-1,2.596177394E-3
1.584255161E0,-3.054326226E-4,-2.557998300E-1,-0.000000000E0
1.586491062E0,4.581489135E-3,-2.582432926E-1,-1.069014193E-3
1.588728245E0,8.246680722E-3,-2.606867552E-1,-2.290744567E-3
1.590960483E0,1.206458826E-2,-2.559525371E-1,-2.290744567E-3
1.593187229E0,1.695151068E-2,-2.573269904E-1,1.527163113E-4
1.595427707E0,1.572977938E-2,-2.536617815E-1,1.527163113E-4
1.597661655E0,2.076941915E-2,-2.477058619E-1,2.748893574E-3
1.599912814E0,2.092213556E-2,-2.428189367E-1,3.970623948E-3
1.602148044E0,2.351831272E-2,-2.344195396E-1,7.635815535E-3
1.604386631E0,2.855795063E-2,-2.284636050E-1,9.010262787E-3
1.606621189E0,3.115412779E-2,-2.223549485E-1,1.023199316E-2
1.608856479E0,3.115412779E-2,-2.186897546E-1,1.145372353E-2
1.611092808E0,3.497203439E-2,-2.163990140E-1,1.527163107E-2
1.613329258E0,3.741549700E-2,-2.127338201E-1,1.649336144E-2
1.615565891E0,3.741549700E-2,-2.127338201E-1,1.649336144E-2
1.617802585E0,3.985895589E-2,-2.128865421E-1,1.282817032E-2
1.620038792E0,4.352414981E-2,-2.153300047E-1,1.282817032E-2
1.622273960E0,4.596760869E-2,-2.177734673E-1,1.038470957E-2
1.624513279E0,4.963280261E-2,-2.238821089E-1,9.162978269E-3
1.626746128E0,5.314527452E-2,-2.264782935E-1,1.038470957E-2
1.628971530E0,5.803219974E-2,-2.325869352E-1,1.038470957E-2
1.631210300E0,6.276640296E-2,-2.423607856E-1,1.160643995E-2
1.633458774E0,6.750060618E-2,-2.474004179E-1,1.175915636E-2
1.635695347E0,7.360926270E-2,-2.535090744E-1,1.298088674E-2
1.637923130E0,7.712173462E-2,-2.620611787E-1,1.175915636E-2
1.640168735E0,8.307767659E-2,-2.683225572E-1,1.542434748E-2
1.642406040E0,8.918632567E-2,-2.744311988E-1,1.542434748E-2
1.644644505E0,9.407325089E-2,-2.770273983E-1,1.175915636E-2
1.646877964E0,9.758572280E-2,-2.806925774E-1,1.298088674E-2
1.649114536E0,1.000291854E-1,-2.806925774E-1,1.313360315E-2
1.651351352E0,1.012509167E-1,-2.831360400E-1,1.435533352E-2
1.653588230E0,1.085812971E-1,-2.857322097E-1,1.802052557E-2
1.655825474E0,1.110247597E-1,-2.822197378E-1,1.802052557E-2
1.658058383E0,1.136209369E-1,-2.809980214E-1,1.924225502E-2
1.660286899E0,1.185078546E-1,-2.799290121E-1,1.817324013E-2
1.662533970E0,1.186605766E-1,-2.750420868E-1,1.939497143E-2
1.664770786E0,1.223257631E-1,-2.751947939E-1,2.061670274E-2
1.667010105E0,1.247692257E-1,-2.727513313E-1,2.061670274E-2
1.669244175E0,1.285871267E-1,-2.715296149E-1,1.954768784E-2
1.671480503E0,1.296561509E-1,-2.764165103E-1,1.817324013E-2
1.673717075E0,1.320996135E-1,-2.825251818E-1,1.695151068E-2
1.675953891E0,1.343903542E-1,-2.875648141E-1,1.328631863E-2
1.678191501E0,1.366810948E-1,-2.948952019E-1,1.206458826E-2
1.680424106E0,1.401935667E-1,-3.046690524E-1,1.084285788E-2
1.682648715E0,1.437060535E-1,-3.156646192E-1,9.621127509E-3
1.684884495E0,1.447750628E-1,-3.277291954E-1,8.399397135E-3
1.687120457E0,1.444696337E-1,-3.434589803E-1,5.803219974E-3
1.689363743E0,1.478293836E-1,-3.556762934E-1,4.581489135E-3
1.691597629E0,1.514945775E-1,-3.617849350E-1,3.359758761E-3
1.693837925E0,1.536326110E-1,-3.715587854E-1,3.359758761E-3
1.696086154E0,1.522581577E-1,-3.788891733E-1,4.581489135E-3
1.698322605E0,1.522581577E-1,-3.837760985E-1,3.359758761E-3
1.700558994E0,1.498146951E-1,-3.848451078E-1,3.359758761E-3
1.702792515E0,1.534798890E-1,-3.849978149E-1,3.359758761E-3
1.705026096E0,1.510364264E-1,-3.860668242E-1,9.162978968E-4
1.707253391E0,1.496619880E-1,-3.848451078E-1,5.803219974E-3
1.709499973E0,1.510364264E-1,-3.813326359E-1,4.581489135E-3
1.711739048E0,1.485929638E-1,-3.799581826E-1,8.246680722E-3
1.713979343E0,1.473712474E-1,-3.750712574E-1,9.468411095E-3
1.716212680E0,1.438587606E-1,-3.677408695E-1,8.246680722E-3
1.718448276E0,1.426370293E-1,-3.665191531E-1,9.468411095E-3
1.720684849E0,1.403462887E-1,-3.591887653E-1,9.468411095E-3
1.722921665E0,1.380555481E-1,-3.518583775E-1,8.246680722E-3
1.725155856E0,1.345430762E-1,-3.469714522E-1,8.246680722E-3
1.727384128E0,1.308778822E-1,-3.396410644E-1,1.069014147E-2
1.729631870E0,1.298088580E-1,-3.298672438E-1,1.069014147E-2
1.731868870E0,1.261436790E-1,-3.286454976E-1,1.313360315E-2
1.734104221E0,1.250746548E-1,-3.213151097E-1,1.313360315E-2
1.736329136E0,1.191187203E-1,-3.126102984E-1,1.313360315E-2
1.738577671E0,1.142318025E-1,-3.101668358E-1,1.191187184E-2
1.740814304E0,1.082758680E-1,-3.028364480E-1,1.175915636E-2
1.743054050E0,1.094975919E-1,-3.003929853E-1,1.313360315E-2
1.745287388E0,1.046106741E-1,-2.990185320E-1,1.298088674E-2
1.747524509E0,9.972374886E-2,-2.990185320E-1,8.093964309E-3
1.749761814E0,9.361509979E-2,-2.964223623E-1,4.428773187E-3
1.751997593E0,9.132435173E-2,-2.927571833E-1,5.650503561E-3
1.754230564E0,8.399397135E-2,-2.901609838E-1,4.276056774E-3
1.756457798E0,8.399397135E-2,-2.877175212E-1,6.108652451E-4
1.758707004E0,8.292495459E-2,-2.840523422E-1,-3.054326167E-3
1.760943699E0,7.803803682E-2,-2.791654170E-1,-5.497787148E-3
1.763183323E0,7.452555746E-2,-2.729040384E-1,-6.719517522E-3
1.765417026E0,7.330382615E-2,-2.704605758E-1,-1.038470957E-2
1.767654270E0,6.841690838E-2,-2.716823220E-1,-1.160643995E-2
1.769889683E0,6.979135424E-2,-2.655736506E-1,-1.404990070E-2
1.772126499E0,6.994406879E-2,-2.619084716E-1,-1.771509275E-2
1.774362827E0,6.246097013E-2,-2.629774809E-1,-1.893682219E-2
1.776599704E0,6.139195710E-2,-2.580905557E-1,-2.138028294E-2
1.778836216E0,6.032294407E-2,-2.521346211E-1,-2.382374369E-2
1.781072788E0,5.665775016E-2,-2.470949888E-1,-2.382374369E-2
1.783309604E0,5.299255997E-2,-2.458732575E-1,-2.382374369E-2
1.785546909E0,5.192354694E-2,-2.422080636E-1,-2.382374369E-2
1.787782505E0,4.703662544E-2,-2.383901626E-1,-2.397646010E-2
1.790019016E0,4.337143153E-2,-2.371684313E-1,-2.031126991E-2
1.792255100E0,3.726277873E-2,-2.370157093E-1,-2.275473066E-2
1.794491977E0,3.359758854E-2,-2.357939780E-1,-2.275473066E-2
1.796729038E0,3.100141138E-2,-2.356412709E-1,-2.153299935E-2
1.798966404E0,3.100141138E-2,-2.356412709E-1,-2.153299935E-2
1.801202243E0,2.977968007E-2,-2.368630022E-1,-1.924225502E-2
1.803439487E0,2.367102914E-2,-2.379320115E-1,-1.679879427E-2
1.805674839E0,2.611448988E-2,-2.393064648E-1,-1.802052557E-2
1.807911655E0,2.474004216E-2,-2.393064648E-1,-1.557706390E-2
1.810147983E0,2.596177347E-2,-2.417499274E-1,-1.313360315E-2
1.812384800E0,2.703078650E-2,-2.454151064E-1,-1.069014147E-2
1.814621433E0,2.458732575E-2,-2.477058619E-1,-5.803219974E-3
1.816858188E0,2.458732575E-2,-2.464841306E-1,-3.359758761E-3
1.819094760E0,2.687807009E-2,-2.501493096E-1,-2.138028387E-3
1.821333347E0,3.054326214E-2,-2.564106882E-1,3.054326226E-4
1.823572727E0,3.283400834E-2,-2.588541508E-1,2.748893574E-3
1.825804294E0,3.298672289E-2,-2.564106882E-1,1.527163084E-3
1.828040745E0,3.176499158E-2,-2.564106882E-1,2.748893574E-3
1.830275913E0,3.161227703E-2,-2.576324046E-1,2.748893574E-3
1.832514194E0,3.420845419E-2,-2.551889420E-1,2.748893574E-3
1.834750461E0,3.665191308E-2,-2.527455091E-1,4.123340361E-3
1.836987400E0,3.665191308E-2,-2.539672256E-1,4.123340361E-3
1.839224643E0,3.924809024E-2,-2.492330223E-1,4.123340361E-3
1.841460483E0,3.695734590E-2,-2.406809032E-1,1.679879380E-3
1.843696872E0,3.833179548E-2,-2.370157093E-1,1.679879380E-3
1.845933384E0,3.344487399E-2,-2.357939780E-1,-7.635815418E-4
1.848169895E0,3.344487399E-2,-2.321287990E-1,-1.985311974E-3
1.850406528E0,3.222314268E-2,-2.284636050E-1,4.581489484E-4
1.852643100E0,3.481931984E-2,-2.247984111E-1,-7.635815418E-4
1.854880222E0,3.252857551E-2,-2.186897546E-1,4.581489484E-4
1.857114597E0,3.375030309E-2,-2.139555514E-1,3.054326167E-3
1.859341343E0,3.023782931E-2,-2.102903575E-1,4.123340361E-3
1.861589390E0,2.764165215E-2,-2.101376504E-1,5.345070735E-3
1.863825901E0,2.535090782E-2,-2.040289938E-1,7.788531948E-3
1.866065402E0,2.535090782E-2,-2.015855312E-1,5.345070735E-3
1.868299411E0,2.412917651E-2,-2.003637999E-1,1.023199316E-2
1.870536838E0,2.290744707E-2,-1.991420686E-1,9.010262787E-3
1.872772495E0,1.924225502E-2,-1.991420686E-1,1.389718428E-2
1.875006809E0,1.664607786E-2,-2.014328092E-1,1.756237634E-2
1.877233189E0,1.664607786E-2,-2.026545405E-1,1.756237634E-2
1.879482212E0,1.786780916E-2,-2.038762718E-1,1.878410578E-2
1.881718357E0,2.031126991E-2,-2.087631971E-1,1.878410578E-2
1.883958408E0,1.649336144E-2,-2.087631971E-1,2.244929783E-2
1.886190403E0,1.771509275E-2,-2.112066597E-1,2.489275858E-2
1.888420078E0,1.893682219E-2,-2.112066597E-1,2.611448988E-2
1.890655796E0,1.756237634E-2,-2.136501223E-1,2.977968007E-2
1.892902622E0,1.771509275E-2,-2.112066597E-1,3.100141138E-2
1.895140232E0,1.878410578E-2,-2.124283910E-1,3.222314268E-2
1.897379123E0,1.893682219E-2,-2.112066597E-1,3.344487399E-2
1.899611179E0,2.015855350E-2,-2.099849284E-1,3.466660157E-2
1.901848179E0,1.893682219E-2,-2.099849284E-1,3.588833287E-2
1.904083958E0,1.756237634E-2,-2.112066597E-1,3.466660157E-2
1.906320835E0,1.756237634E-2,-2.148718536E-1,3.711006418E-2
1.908557895E0,1.634064503E-2,-2.136501223E-1,3.466660157E-2
1.910795444E0,1.511891466E-2,-2.134974003E-1,3.588833287E-2
1.913030857E0,1.389718428E-2,-2.134974003E-1,3.344487399E-2
1.915267307E0,1.404990070E-2,-2.098322064E-1,3.222314268E-2
1.917503330E0,1.389718428E-2,-2.110539377E-1,3.100141138E-2
1.919740329E0,7.788531948E-3,-2.122756690E-1,3.084869497E-2
1.921977268E0,9.010262787E-3,-2.159408629E-1,2.962696366E-2
1.924210544E0,8.857546374E-3,-2.231185287E-1,2.962696366E-2
1.926438816E0,6.414085161E-3,-2.231185287E-1,2.840523422E-2
1.928687717E0,6.261368748E-3,-2.267837226E-1,2.596177347E-2
1.930923374E0,7.483099122E-3,-2.292271852E-1,2.351831272E-2
1.933162631E0,8.704829961E-3,-2.341141105E-1,2.229658142E-2
1.935396274E0,1.099557430E-2,-2.390010208E-1,2.107485011E-2
1.937633091E0,1.084285788E-2,-2.438879460E-1,1.985312067E-2
1.939869968E0,1.588249579E-2,-2.438879460E-1,2.229658142E-2
1.942107212E0,1.450804994E-2,-2.451096773E-1,1.985312067E-2
1.944343052E0,1.450804994E-2,-2.463314086E-1,1.985312067E-2
1.946580417E0,1.450804994E-2,-2.463314086E-1,1.740965992E-2
1.948815952E0,1.343903504E-2,-2.438879460E-1,1.863138936E-2
1.951052524E0,1.221730467E-2,-2.390010208E-1,2.107485011E-2
1.953285862E0,8.552113548E-3,-2.353358418E-1,2.107485011E-2
1.955513645E0,8.704829961E-3,-2.304489166E-1,2.351831272E-2
1.957762180E0,6.414085161E-3,-2.255619913E-1,2.107485011E-2
1.959998630E0,1.527163084E-3,-2.193006277E-1,2.351831272E-2
1.962238865E0,1.679879380E-3,-2.121229619E-1,2.351831272E-2
1.964472995E0,-6.108652451E-4,-2.011273801E-1,2.474004216E-2
1.966708896E0,-1.527163084E-3,-1.901318133E-1,2.474004216E-2
1.968945286E0,-1.527163113E-4,-1.792889535E-1,2.733621933E-2
1.971181431E0,-1.374446787E-3,-1.768454909E-1,2.733621933E-2
1.973418186E0,-3.512475174E-3,-1.658499092E-1,2.611448988E-2
1.975654758E0,-4.581489135E-3,-1.560760736E-1,2.855795063E-2
1.977891452E0,-5.803219974E-3,-1.524108797E-1,2.977968007E-2
1.980128452E0,-8.246680722E-3,-1.524108797E-1,2.855795063E-2
1.982365574E0,-1.053742506E-2,-1.487456858E-1,2.855795063E-2
1.984601352E0,-1.053742506E-2,-1.475239545E-1,2.855795063E-2
1.986837620E0,-1.435533352E-2,-1.475239545E-1,2.977968007E-2
1.989074009E0,-1.557706390E-2,-1.510364264E-1,2.855795063E-2
1.991307773E0,-2.061670274E-2,-1.569923609E-1,2.962696366E-2
1.993535495E0,-2.687807009E-2,-1.592831165E-1,2.718350291E-2
1.995784336E0,-2.947424725E-2,-1.653917581E-1,2.962696366E-2
1.998021335E0,-3.573561832E-2,-1.701259762E-1,2.947424725E-2
2.000261387E0,-4.199698567E-2,-1.773036420E-1,3.191770986E-2
2.002493870E0,-4.825835302E-2,-1.844813079E-1,2.932153270E-2
2.004730198E0,-5.207626149E-2,-1.892155111E-1,3.176499158E-2
2.006966831E0,-5.589416996E-2,-1.951714456E-1,3.649919853E-2
2.009203647E0,-6.230825558E-2,-2.023491114E-1,3.649919853E-2
2.011440525E0,-6.490442902E-2,-2.107485086E-1,3.772092983E-2
2.013677768E0,-6.979135424E-2,-2.142609805E-1,3.634648025E-2
2.015913608E0,-6.887505949E-2,-2.252565622E-1,3.756821156E-2
2.018150913E0,-7.024950534E-2,-2.301434875E-1,3.878994286E-2
2.020383274E0,-7.162395120E-2,-2.373211533E-1,3.863722831E-2
2.022611057E0,-7.666359097E-2,-2.444988191E-1,4.108068720E-2
2.024859104E0,-7.559457421E-2,-2.518292069E-1,4.230241850E-2
2.027095981E0,-7.941248268E-2,-2.590068579E-1,4.352414981E-2
2.029335789E0,-7.712173462E-2,-2.651155293E-1,4.459316283E-2
2.031569431E0,-7.712173462E-2,-2.663372457E-1,4.581489414E-2
2.033806247E0,-7.360926270E-2,-2.736676335E-1,4.581489414E-2
2.036043491E0,-7.498370856E-2,-2.809980214E-1,4.703662544E-2
2.038279026E0,-7.376197726E-2,-2.797762752E-1,4.581489414E-2
2.040515415E0,-7.254024595E-2,-2.822197378E-1,4.703662544E-2
2.042751987E0,-7.483099401E-2,-2.761110961E-1,4.581489414E-2
2.044987522E0,-7.223481685E-2,-2.713768780E-1,4.352414981E-2
2.047220310E0,-7.101308554E-2,-2.677116990E-1,4.108068720E-2
2.049461948E0,-7.330382615E-2,-2.628247738E-1,3.985895589E-2
2.051695895E0,-6.948592514E-2,-2.580905557E-1,3.619376570E-2
2.053922947E0,-6.933320314E-2,-2.519819140E-1,3.375030309E-2
2.056159885E0,-6.933320314E-2,-2.507601976E-1,3.130684420E-2
2.058407993E0,-7.177666575E-2,-2.470949888E-1,2.886338346E-2
2.060647433E0,-7.269296050E-2,-2.385428846E-1,2.397646010E-2
2.062884312E0,-7.391469181E-2,-2.324342281E-1,2.641992271E-2
2.065115146E0,-7.498370856E-2,-2.287690341E-1,2.153299935E-2
2.067342136E0,-7.605272532E-2,-2.226603776E-1,1.908953860E-2
2.069587680E0,-8.078692853E-2,-2.141082734E-1,1.908953860E-2
2.071828708E0,-8.429940045E-2,-2.043344229E-1,1.786780916E-2
2.074063022E0,-8.399397135E-2,-1.922698319E-1,1.679879427E-2
2.076284458E0,-8.750644326E-2,-1.812742651E-1,1.557706390E-2
2.078537388E0,-8.720101416E-2,-1.690569520E-1,1.191187184E-2
2.080773899E0,-8.949175477E-2,-1.580613852E-1,1.191187184E-2
2.083015171E0,-9.040805697E-2,-1.459967941E-1,9.621127509E-3
2.085248325E0,-9.025534242E-2,-1.350012124E-1,9.621127509E-3
2.087484165E0,-9.132435173E-2,-1.266018152E-1,1.084285788E-2
2.089721225E0,-9.239336848E-2,-1.180497110E-1,1.206458826E-2
2.091956577E0,-8.979719132E-2,-1.131627858E-1,1.084285788E-2
2.094190586E0,-8.597928286E-2,-1.072068512E-1,1.221730467E-2
2.096417759E0,-8.735372871E-2,-1.096503139E-1,1.466076635E-2
2.098666599E0,-8.597928286E-2,-1.059851199E-1,1.588249579E-2
2.100903293E0,-8.491026610E-2,-1.108720452E-1,1.710422710E-2
2.103142735E0,-8.491026610E-2,-1.145372316E-1,2.076941915E-2
2.105376743E0,-8.261952549E-2,-1.206458881E-1,2.199114859E-2
2.107613743E0,-7.788532227E-2,-1.255328059E-1,2.687807009E-2
2.109849399E0,-7.666359097E-2,-1.291979998E-1,2.443460934E-2
2.112085972E0,-7.696902007E-2,-1.426370293E-1,2.565634064E-2
2.114322544E0,-7.452555746E-2,-1.463022232E-1,2.443460934E-2
2.116559177E0,-6.979135424E-2,-1.524108797E-1,2.443460934E-2
2.118795933E0,-6.612616032E-2,-1.597412676E-1,2.076941915E-2
2.121032261E0,-6.643159688E-2,-1.707368344E-1,2.183843218E-2
2.123267978E0,-6.032294407E-2,-1.780672222E-1,1.939497143E-2
2.125498081E0,-5.803219974E-2,-1.853975952E-1,2.061670274E-2
2.127728000E0,-6.185010448E-2,-1.890627891E-1,1.817324013E-2
2.129968540E0,-5.696318299E-2,-1.915062517E-1,1.695151068E-2
2.132216464E0,-5.955936015E-2,-1.976149082E-1,1.450804994E-2
2.134454562E0,-5.955936015E-2,-1.963931769E-1,1.328631863E-2
2.136690890E0,-6.200282276E-2,-1.999056488E-1,1.206458826E-2
2.138925327E0,-6.322455406E-2,-2.011273801E-1,1.206458826E-2
2.141161960E0,-6.582073122E-2,-2.058615834E-1,9.468411095E-3
2.143399265E0,-6.826419383E-2,-2.070833147E-1,7.024950348E-3
2.145634739E0,-6.688974798E-2,-2.021963894E-1,8.246680722E-3
2.147871311E0,-6.948592514E-2,-2.034181207E-1,5.803219974E-3
2.150107395E0,-6.933320314E-2,-1.997529417E-1,3.359758761E-3
2.152344272E0,-7.162395120E-2,-1.936442852E-1,3.359758761E-3
2.154581394E0,-7.284568250E-2,-1.875356287E-1,2.138028387E-3
2.156818943E0,-7.269296050E-2,-1.838704348E-1,9.162978968E-4
2.159054538E0,-7.620543987E-2,-1.777617931E-1,-3.054326226E-4
2.161291782E0,-7.498370856E-2,-1.777617931E-1,9.162978968E-4
2.163527073E0,-8.231408894E-2,-1.740965992E-1,2.138028387E-3
2.165763950E0,-7.987063378E-2,-1.692096740E-1,3.359758761E-3
2.168000278E0,-8.323039114E-2,-1.594358236E-1,2.290744567E-3
2.170237095E0,-8.200865984E-2,-1.557706445E-1,2.290744567E-3
2.172473667E0,-8.063421398E-2,-1.485929638E-1,2.290744567E-3
2.174710239E0,-8.414668590E-2,-1.388191283E-1,1.069014193E-3
2.176947055E0,-8.521570265E-2,-1.351539344E-1,-1.374446787E-3
2.179184421E0,-8.399397135E-2,-1.314887404E-1,-1.527163113E-4
2.181420200E0,-8.750644326E-2,-1.241583601E-1,-3.817907767E-3
2.183656528E0,-8.597928286E-2,-1.157589629E-1,-3.817907767E-3
2.185890659E0,-8.720101416E-2,-1.108720452E-1,-3.665191587E-3
2.188120823E0,-8.704829961E-2,-1.035416573E-1,-4.886921961E-3
2.190366245E0,-8.811730891E-2,-9.498954564E-2,-6.108652335E-3
2.192602817E0,-8.796459436E-2,-8.903361112E-2,-8.552113548E-3
2.194841892E0,-8.659014851E-2,-8.414668590E-2,-9.773843922E-3
2.197077244E0,-8.888089657E-2,-7.681630552E-2,-7.330383174E-3
2.199312778E0,-8.765916526E-2,-7.315111160E-2,-7.330383174E-3
2.201549167E0,-9.010262042E-2,-7.070764899E-2,-6.108652335E-3
2.203785618E0,-8.628471941E-2,-6.597344577E-2,-4.734205548E-3
2.206022129E0,-8.491026610E-2,-6.352998316E-2,-4.734205548E-3
2.208258579E0,-8.613199741E-2,-6.230825558E-2,-2.290744567E-3
2.210495334E0,-8.368854225E-2,-6.108652428E-2,-3.512475174E-3
2.212732212E0,-8.246681094E-2,-5.879577994E-2,-3.512475174E-3
2.214968112E0,-8.246681094E-2,-5.635231733E-2,-2.290744567E-3
2.217199253E0,-8.475755155E-2,-5.146539584E-2,-1.069014193E-3
2.219441684E0,-8.353582025E-2,-4.902193695E-2,-3.512475174E-3
2.221678013E0,-8.338310570E-2,-4.657847434E-2,-2.290744567E-3
2.223913303E0,-7.971791178E-2,-4.780020565E-2,-9.162978968E-4
2.226139682E0,-8.338310570E-2,-4.291328415E-2,-3.359758761E-3
2.228389011E0,-7.849618047E-2,-4.917465150E-2,-4.581489135E-3
2.230625034E0,-7.727445662E-2,-5.039638281E-2,-3.359758761E-3
2.232865147E0,-7.605272532E-2,-5.161811411E-2,-4.581489135E-3
2.235095004E0,-7.498370856E-2,-5.650503561E-2,-5.803219974E-3
2.237323459E0,-7.498370856E-2,-5.650503561E-2,-8.246680722E-3
2.239570591E0,-7.498370856E-2,-5.894849449E-2,-4.581489135E-3
2.241807407E0,-7.269296050E-2,-6.139195710E-2,-5.803219974E-3
2.244046910E0,-7.498370856E-2,-6.017022580E-2,-7.024950348E-3
2.246280613E0,-7.498370856E-2,-6.017022580E-2,-5.803219974E-3
2.248517673E0,-7.635815442E-2,-6.123924255E-2,-3.512475174E-3
2.250754917E0,-7.635815442E-2,-6.123924255E-2,-3.512475174E-3
2.252987522E0,-7.635815442E-2,-5.879577994E-2,-2.138028387E-3
2.255212009E0,-7.498370856E-2,-5.772676691E-2,-9.162978968E-4
2.257451878E0,-7.147123665E-2,-6.017022580E-2,3.054326226E-4
2.259699985E0,-7.498370856E-2,-5.772676691E-2,-9.162978968E-4
2.261939793E0,-7.483099401E-2,-5.039638281E-2,3.054326226E-4
2.264175998E0,-7.605272532E-2,-4.673119262E-2,2.748893574E-3
2.266410312E0,-7.467827946E-2,-4.062253982E-2,5.192354787E-3
2.268647678E0,-7.467827946E-2,-3.466660157E-2,7.635815535E-3
2.270882908E0,-7.330382615E-2,-3.100141138E-2,6.566801574E-3
2.273119602E0,-7.330382615E-2,-2.611448988E-2,9.010262787E-3
2.275355686E0,-7.070764899E-2,-2.138028294E-2,9.010262787E-3
2.277592869E0,-7.070764899E-2,-2.015855350E-2,1.145372353E-2
2.279829319E0,-6.948592514E-2,-1.893682219E-2,1.389718428E-2
2.282065830E0,-6.811147183E-2,-1.771509275E-2,1.389718428E-2
2.284303073E0,-6.933320314E-2,-1.404990070E-2,1.267545391E-2
2.286540317E0,-6.811147183E-2,-1.527163107E-2,1.511891466E-2
2.288774265E0,-6.948592514E-2,-1.771509275E-2,1.389718428E-2
2.291003330E0,-6.582073122E-2,-2.138028294E-2,1.267545391E-2
2.293236545E0,-6.582073122E-2,-2.382374369E-2,1.267545391E-2
2.295485386E0,-6.597344577E-2,-2.748893574E-2,1.511891466E-2
2.297723667E0,-6.352998316E-2,-3.237585723E-2,1.634064503E-2
2.299962498E0,-6.368270516E-2,-3.726277873E-2,1.511891466E-2
2.302195346E0,-5.879577994E-2,-4.108068720E-2,1.511891466E-2
2.304432712E0,-5.894849449E-2,-4.581489414E-2,1.389718428E-2
2.306668308E0,-5.772676691E-2,-4.703662544E-2,1.511891466E-2
2.308905063E0,-5.421429127E-2,-5.451972410E-2,1.756237634E-2
2.311141147E0,-5.177082866E-2,-5.574145541E-2,1.511891466E-2
2.313377903E0,-4.932736978E-2,-5.696318299E-2,1.267545391E-2
2.315614475E0,-4.795292020E-2,-5.329799280E-2,1.389718428E-2
2.317852512E0,-4.932736978E-2,-5.696318299E-2,1.389718428E-2
2.320090610E0,-4.550946131E-2,-5.589416996E-2,1.267545391E-2
2.322313511E0,-4.550946131E-2,-5.467243865E-2,1.145372353E-2
2.324560825E0,-4.291328415E-2,-5.100724846E-2,1.160643995E-2
2.326795993E0,-4.046982154E-2,-5.222897977E-2,9.162978269E-3
2.329036655E0,-4.062253982E-2,-5.345070735E-2,1.160643995E-2
2.331270603E0,-3.802636266E-2,-5.360342562E-2,9.162978269E-3
2.333507358E0,-4.046982154E-2,-4.871650413E-2,4.276056774E-3
2.335743686E0,-3.787364438E-2,-4.627304152E-2,4.276056774E-3
2.337980503E0,-4.031710699E-2,-4.749477282E-2,1.832595794E-3
2.340217747E0,-4.291328415E-2,-4.856378585E-2,6.108652451E-4
2.342453464E0,-3.665191308E-2,-4.749477282E-2,-6.108652451E-4
2.344690281E0,-3.543018550E-2,-4.871650413E-2,-3.054326167E-3
2.346926609E0,-3.298672289E-2,-5.238169432E-2,-4.276056774E-3
2.349163364E0,-3.543018550E-2,-5.238169432E-2,-7.941247895E-3
2.351399631E0,-3.313944116E-2,-5.482515693E-2,-6.719517522E-3
2.353636204E0,-2.947424725E-2,-5.619960278E-2,-6.719517522E-3
2.355873020E0,-2.825251780E-2,-5.864306539E-2,-9.162978269E-3
2.358107395E0,-2.458732575E-2,-6.475171447E-2,-1.038470957E-2
2.360334018E0,-2.718350291E-2,-6.704246253E-2,-9.162978269E-3
2.362582615E0,-2.596177347E-2,-6.948592514E-2,-6.719517522E-3
2.364819126E0,-2.351831272E-2,-7.086037099E-2,-6.719517522E-3
2.367058750E0,-2.474004216E-2,-7.086037099E-2,-7.941247895E-3
2.369292881E0,-2.489275858E-2,-7.315111160E-2,-6.719517522E-3
2.371530308E0,-2.489275858E-2,-7.437284291E-2,-3.054326167E-3
2.373765964E0,-2.489275858E-2,-7.437284291E-2,-3.054326167E-3
2.376003208E0,-2.489275858E-2,-7.437284291E-2,-6.108652451E-4
2.378238499E0,-2.611448988E-2,-7.315111160E-2,6.108652451E-4
2.380475437E0,-2.855795063E-2,-7.192938030E-2,4.276056774E-3
2.382711887E0,-3.100141138E-2,-7.070764899E-2,4.276056774E-3
2.384945285E0,-3.100141138E-2,-6.948592514E-2,6.719517522E-3
2.387173069E0,-3.344487399E-2,-6.582073122E-2,9.162978269E-3
2.389421360E0,-3.695734590E-2,-6.078109145E-2,9.162978269E-3
2.391658542E0,-3.833179548E-2,-6.200282276E-2,1.160643995E-2
2.393898777E0,-3.817907721E-2,-5.604688451E-2,1.160643995E-2
2.396131443E0,-3.802636266E-2,-5.238169432E-2,1.282817032E-2
2.398368015E0,-3.558290005E-2,-5.115996301E-2,1.404990070E-2
2.400604526E0,-3.802636266E-2,-4.993823543E-2,1.282817032E-2
2.402841160E0,-3.802636266E-2,-4.627304152E-2,1.404990070E-2
2.405074985E0,-3.909537569E-2,-4.138612002E-2,1.527163107E-2
2.407299533E0,-3.665191308E-2,-3.894266114E-2,1.527163107E-2
2.409539341E0,-3.909537569E-2,-3.772092983E-2,1.527163107E-2
2.411788303E0,-3.787364438E-2,-4.138612002E-2,1.160643995E-2
2.414024998E0,-3.298672289E-2,-4.276056588E-2,9.315694682E-3
2.416255955E0,-3.161227703E-2,-4.031710699E-2,9.315694682E-3
2.418497105E0,-3.176499158E-2,-4.153883830E-2,9.315694682E-3
2.420733677E0,-3.436116874E-2,-4.871650413E-2,7.941247895E-3
2.422969455E0,-3.176499158E-2,-4.764748737E-2,7.941247895E-3
2.425193088E0,-2.809980139E-2,-5.009094998E-2,8.093964309E-3
2.427428989E0,-3.054326214E-2,-4.764748737E-2,5.497787148E-3
2.429669285E0,-2.932153270E-2,-4.642575979E-2,4.428773187E-3
2.431919467E0,-2.932153270E-2,-4.642575979E-2,4.428773187E-3
2.434153049E0,-2.687807009E-2,-4.642575979E-2,1.985311974E-3
2.436380405E0,-2.306016348E-2,-4.169155285E-2,3.207042580E-3
2.438626255E0,-2.428189293E-2,-4.169155285E-2,3.207042580E-3
2.440863376E0,-2.046398632E-2,-3.940080851E-2,1.985311974E-3
2.443103611E0,-1.786780916E-2,-2.962696366E-2,3.359758761E-3
2.445336277E0,-1.664607786E-2,-2.962696366E-2,9.162978968E-4
2.447573704E0,-1.664607786E-2,-2.733621933E-2,9.162978968E-4
2.449808872E0,-1.634064503E-2,-2.000583708E-2,-3.054326226E-4
2.452047398E0,-1.389718428E-2,-1.634064503E-2,-1.527163084E-3
2.454287448E0,-1.374446787E-2,-1.389718428E-2,-2.748893574E-3
2.456517429E0,-1.130100712E-2,-1.038470957E-2,-2.748893574E-3
2.458755649E0,-9.926560335E-3,-5.497787148E-3,-2.596177394E-3
2.460990818E0,-7.483099122E-3,-1.985311974E-3,-3.817907767E-3
2.463229465E0,-8.552113548E-3,4.581489484E-4,-3.817907767E-3
2.465466343E0,-3.665191587E-3,2.748893574E-3,-5.039638374E-3
2.467701877E0,-1.221730490E-3,1.527163084E-3,-5.039638374E-3
2.469938266E0,-2.290744567E-3,3.970623948E-3,-5.039638374E-3
2.472174778E0,1.527163113E-4,2.748893574E-3,-5.039638374E-3
2.474411350E0,-1.069014193E-3,5.192354787E-3,-6.261368748E-3
2.476648044E0,1.527163113E-4,5.192354787E-3,-6.261368748E-3
2.478884800E0,3.817907767E-3,7.483099122E-3,-6.108652335E-3
2.481121616E0,3.817907767E-3,5.039638374E-3,-7.330383174E-3
2.483358738E0,5.039638374E-3,6.261368748E-3,-4.886921961E-3
2.485594577E0,5.039638374E-3,7.483099122E-3,-6.108652335E-3
2.487831272E0,6.261368748E-3,6.261368748E-3,-6.108652335E-3
2.490063877E0,5.192354787E-3,9.926560335E-3,-7.330383174E-3
2.492290745E0,3.970623948E-3,1.114829071E-2,-8.552113548E-3
2.494540500E0,2.748893574E-3,1.481348183E-2,-8.552113548E-3
2.496777439E0,5.192354787E-3,1.237002108E-2,-1.221730467E-2
2.499017551E0,3.970623948E-3,1.237002108E-2,-1.099557430E-2
2.501251560E0,3.054326226E-4,1.481348183E-2,-9.773843922E-3
2.503487095E0,1.679879380E-3,1.603521220E-2,-1.221730467E-2
2.505723667E0,-7.635815418E-4,1.970040426E-2,-9.773843922E-3
2.507959995E0,-7.635815418E-4,1.847867295E-2,-9.773843922E-3
2.510196811E0,4.581489484E-4,1.847867295E-2,-1.099557430E-2
2.512433628E0,-1.985311974E-3,1.985312067E-2,-8.552113548E-3
2.514670933E0,-7.635815418E-4,1.725694351E-2,-8.552113548E-3
2.516906772E0,-3.359758761E-3,1.618792862E-2,-8.552113548E-3
2.519142978E0,-3.359758761E-3,1.496619824E-2,-8.552113548E-3
2.521375034E0,-4.581489135E-3,1.618792862E-2,-6.261368748E-3
2.523616306E0,-3.359758761E-3,1.252273750E-2,-7.483099122E-3
2.525852817E0,-5.955935922E-3,1.007927675E-2,-6.261368748E-3
2.528090489E0,-5.955935922E-3,6.566801574E-3,-5.039638374E-3
2.530325901E0,-4.734205548E-3,5.345070735E-3,-6.261368748E-3
2.532562290E0,-6.108652335E-3,2.901609987E-3,-5.039638374E-3
2.534799655E0,-7.330383174E-3,4.123340361E-3,-3.817907767E-3
2.537036960E0,-7.330383174E-3,4.123340361E-3,-1.374446787E-3
2.539272556E0,-7.330383174E-3,2.901609987E-3,-2.596177394E-3
2.541508823E0,-8.552113548E-3,4.123340361E-3,-2.596177394E-3
2.543745335E0,-9.773843922E-3,1.679879380E-3,-3.817907767E-3
2.545981968E0,-9.773843922E-3,4.581489484E-4,-3.817907767E-3
2.548218784E0,-7.330383174E-3,1.679879380E-3,-3.817907767E-3
2.550452121E0,-1.343903504E-2,4.276056774E-3,-5.039638374E-3
2.552677280E0,-1.099557430E-2,1.679879380E-3,-6.261368748E-3
2.554919224E0,-1.099557430E-2,6.108652451E-4,-7.483099122E-3
2.557168796E0,-1.221730467E-2,1.832595794E-3,-6.261368748E-3
2.559393344E0,-1.221730467E-2,5.345070735E-3,-7.483099122E-3
2.561646518E0,-1.084285788E-2,1.023199316E-2,-8.704829961E-3
2.563872837E0,-1.206458826E-2,1.145372353E-2,-7.483099122E-3
2.566114536E0,-1.084285788E-2,1.267545391E-2,-7.483099122E-3
2.568346530E0,-1.191187184E-2,1.389718428E-2,-9.926560335E-3
2.570584751E0,-1.191187184E-2,1.878410578E-2,-7.483099122E-3
2.572821811E0,-1.191187184E-2,1.756237634E-2,-6.261368748E-3
2.575054660E0,-1.435533352E-2,1.756237634E-2,-8.704829961E-3
2.577282261E0,-1.679879427E-2,1.771509275E-2,-8.704829961E-3
2.579530552E0,-1.679879427E-2,1.878410578E-2,-7.483099122E-3
2.581767124E0,-1.679879427E-2,1.878410578E-2,-5.039638374E-3
2.584005099E0,-2.046398632E-2,2.015855350E-2,-6.261368748E-3
2.586228976E0,-2.046398632E-2,1.893682219E-2,-7.483099122E-3
2.588460544E0,-1.939497143E-2,1.649336144E-2,-3.817907767E-3
2.590714634E0,-1.817324013E-2,1.527163107E-2,-2.596177394E-3
2.592952060E0,-2.061670274E-2,1.771509275E-2,-5.039638374E-3
2.595190952E0,-1.939497143E-2,1.649336144E-2,-3.817907767E-3
2.597422886E0,-2.061670274E-2,1.038470957E-2,-6.414085161E-3
2.599659946E0,-2.061670274E-2,1.160643995E-2,-5.192354787E-3
2.601896457E0,-2.061670274E-2,1.038470957E-2,-5.192354787E-3
2.604132908E0,-1.832595654E-2,9.162978269E-3,-3.817907767E-3
2.606369907E0,-2.199114859E-2,8.093964309E-3,-3.970623948E-3
2.608607212E0,-2.076941915E-2,4.428773187E-3,-5.192354787E-3
2.610842869E0,-1.954768784E-2,5.497787148E-3,-5.192354787E-3
2.613079380E0,-1.954768784E-2,7.941247895E-3,-5.192354787E-3
2.615315708E0,-1.939497143E-2,1.160643995E-2,-7.635815535E-3
2.617552524E0,-1.450804994E-2,1.267545391E-2,-6.261368748E-3
2.619789097E0,-1.435533352E-2,1.634064503E-2,-8.704829961E-3
2.622025608E0,-1.557706390E-2,1.634064503E-2,-1.114829071E-2
2.624259372E0,-1.557706390E-2,2.000583708E-2,-1.359175146E-2
2.626485324E0,-1.175915636E-2,2.000583708E-2,-1.359175146E-2
2.628720493E0,-1.069014147E-2,1.756237634E-2,-1.359175146E-2
2.630960361E0,-1.191187184E-2,1.634064503E-2,-1.603521220E-2
2.633211398E0,-1.069014147E-2,1.511891466E-2,-1.603521220E-2
2.635448093E0,-9.468411095E-3,1.145372353E-2,-1.603521220E-2
2.637684605E0,-9.468411095E-3,1.145372353E-2,-1.359175146E-2
2.639918247E0,-7.024950348E-3,1.145372353E-2,-1.237002108E-2
2.642155307E0,-8.399397135E-3,6.566801574E-3,-1.237002108E-2
2.644392429E0,-9.773843922E-3,1.679879380E-3,-1.237002108E-2
2.646628269E0,-7.177666761E-3,4.123340361E-3,-1.114829071E-2
2.648864719E0,-7.330383174E-3,2.901609987E-3,-1.114829071E-2
2.651100986E0,-2.290744567E-3,2.748893574E-3,-9.926560335E-3
2.653338169E0,-2.443460980E-3,3.054326226E-4,-8.704829961E-3
2.655574741E0,-1.069014193E-3,2.748893574E-3,-7.483099122E-3
2.657812107E0,-1.221730490E-3,1.527163084E-3,-5.039638374E-3
2.660047824E0,-2.443460980E-3,1.527163084E-3,-5.039638374E-3
2.662285190E0,1.221730490E-3,1.527163084E-3,-5.039638374E-3
2.664520542E0,3.817907767E-3,3.817907767E-3,-7.330383174E-3
2.666757358E0,1.374446787E-3,9.926560335E-3,-2.443460980E-3
2.668993687E0,5.192354787E-3,8.704829961E-3,-3.665191587E-3
2.671230503E0,5.192354787E-3,1.359175146E-2,-2.443460980E-3
2.673467014E0,6.566801574E-3,2.076941915E-2,-2.443460980E-3
2.675703403E0,7.788531948E-3,2.199114859E-2,-4.886921961E-3
2.677940464E0,1.404990070E-2,2.306016348E-2,-2.290744567E-3
2.680177768E0,1.038470957E-2,2.687807009E-2,-3.512475174E-3
2.682413425E0,1.404990070E-2,2.794708498E-2,-3.512475174E-3
2.684648166E0,1.557706390E-2,3.527746722E-2,-3.512475174E-3
2.686879124E0,1.802052557E-2,3.512475267E-2,-2.290744567E-3
2.689122776E0,2.061670274E-2,4.367686436E-2,-3.359758761E-3
2.691359348E0,1.939497143E-2,4.612032697E-2,-3.359758761E-3
2.693597751E0,1.954768784E-2,4.963280261E-2,-4.581489135E-3
2.695833103E0,1.939497143E-2,4.841107130E-2,-3.359758761E-3
2.698070408E0,2.076941915E-2,4.963280261E-2,-4.581489135E-3
2.700306003E0,1.939497143E-2,4.734205827E-2,-4.581489135E-3
2.702542515E0,2.183843218E-2,4.596760869E-2,-3.359758761E-3
2.704778843E0,2.183843218E-2,4.230241850E-2,-2.138028387E-3
2.707015659E0,2.290744707E-2,3.985895589E-2,-2.138028387E-3
2.709252231E0,1.908953860E-2,3.512475267E-2,3.817907767E-3
2.711488804E0,2.153299935E-2,2.901609987E-2,2.596177394E-3
2.713725620E0,2.122756653E-2,1.939497143E-2,3.817907767E-3
2.715962925E0,2.122756653E-2,1.695151068E-2,3.817907767E-3
2.718198520E0,1.985312067E-2,1.084285788E-2,3.817907767E-3
2.720435093E0,1.847867295E-2,5.955935922E-3,7.483099122E-3
2.722668369E0,1.970040426E-2,2.290744567E-3,6.261368748E-3
2.724893222E0,2.092213556E-2,3.512475174E-3,6.261368748E-3
2.727133884E0,1.603521220E-2,7.330383174E-3,6.261368748E-3
2.729382602E0,2.107485011E-2,8.399397135E-3,6.261368748E-3
2.731621250E0,2.122756653E-2,1.695151068E-2,5.039638374E-3
2.733858311E0,2.260201424E-2,2.412917651E-2,7.483099122E-3
2.736090855E0,2.031126991E-2,2.779436857E-2,2.596177394E-3
2.738327976E0,1.908953860E-2,2.901609987E-2,3.817907767E-3
2.740564243E0,2.275473066E-2,3.268129006E-2,3.970623948E-3
2.742800876E0,2.535090782E-2,3.497203439E-2,1.527163084E-3
2.745034641E0,2.901609987E-2,3.375030309E-2,1.527163084E-3
2.747259616E0,2.641992271E-2,2.886338346E-2,3.054326226E-4
2.749500583E0,2.397646010E-2,2.657263726E-2,-1.069014193E-3
2.751745334E0,2.260201424E-2,2.535090782E-2,-1.069014193E-3
2.753974888E0,2.015855350E-2,2.061670274E-2,-1.069014193E-3
2.756222812E0,1.634064503E-2,1.939497143E-2,1.527163113E-4
2.758456577E0,1.145372353E-2,1.954768784E-2,3.817907767E-3
2.760696568E0,1.023199316E-2,1.832595654E-2,1.221730490E-3
2.762930027E0,6.566801574E-3,1.954768784E-2,4.886921961E-3
2.765163852E0,5.345070735E-3,1.970040426E-2,4.886921961E-3
2.767391696E0,1.679879380E-3,2.336559631E-2,6.108652335E-3
2.769641208E0,2.901609987E-3,2.580905706E-2,8.552113548E-3
2.771876438E0,5.345070735E-3,2.565634064E-2,8.552113548E-3
2.774112766E0,4.123340361E-3,2.809980139E-2,1.221730467E-2
2.776337070E0,4.123340361E-3,2.932153270E-2,1.359175146E-2
2.778585972E0,4.276056774E-3,2.932153270E-2,1.099557430E-2
2.780822788E0,6.719517522E-3,3.054326214E-2,1.237002108E-2
2.783062168E0,9.162978269E-3,3.054326214E-2,9.926560335E-3
2.785296299E0,9.162978269E-3,3.283400834E-2,7.483099122E-3
2.787533725E0,1.053742506E-2,3.649919853E-2,6.261368748E-3
2.789766086E0,9.315694682E-3,3.772092983E-2,2.596177394E-3
2.791993442E0,1.069014147E-2,4.260785133E-2,-2.290744567E-3
2.794238926E0,9.621127509E-3,4.749477282E-2,-5.955935922E-3
2.796466831E0,1.099557430E-2,5.222897977E-2,-5.955935922E-3
2.798718662E0,8.704829961E-3,5.955936015E-2,-7.177666761E-3
2.800952915E0,8.857546374E-3,6.566801667E-2,-1.206458826E-2
2.803191746E0,8.857546374E-3,7.055493444E-2,-1.191187184E-2
2.805426120E0,8.857546374E-3,6.933320314E-2,-1.069014147E-2
2.807661655E0,1.007927675E-2,7.055493444E-2,-1.191187184E-2
2.809898227E0,7.788531948E-3,7.666359097E-2,-1.435533352E-2
2.812134556E0,1.023199316E-2,7.895433158E-2,-1.191187184E-2
2.814371311E0,1.267545391E-2,7.773260027E-2,-1.313360315E-2
2.816607944E0,1.038470957E-2,8.017606288E-2,-1.313360315E-2
2.818841525E0,9.010262787E-3,7.895433158E-2,-1.191187184E-2
2.821069431E0,7.941247895E-3,8.155050874E-2,-1.069014147E-2
2.823318943E0,1.038470957E-2,8.506298810E-2,-9.468411095E-3
2.825554538E0,9.162978269E-3,8.261952549E-2,-8.246680722E-3
2.827794041E0,7.941247895E-3,8.261952549E-2,-9.468411095E-3
2.830027012E0,4.123340361E-3,8.155050874E-2,-5.803219974E-3
2.832263706E0,4.123340361E-3,8.277224004E-2,-3.359758761E-3
2.834500705E0,2.901609987E-3,8.277224004E-2,-3.359758761E-3
2.836737156E0,2.901609987E-3,8.032877743E-2,-3.359758761E-3
2.838974277E0,1.679879380E-3,8.277224004E-2,-3.359758761E-3
2.841211460E0,-1.985311974E-3,8.170322329E-2,1.527163113E-4
2.843447178E0,-7.635815418E-4,8.414668590E-2,2.748893574E-3
2.845683872E0,-1.985311974E-3,8.536841720E-2,2.748893574E-3
2.847919895E0,1.679879380E-3,8.277224004E-2,3.970623948E-3
2.850156528E0,-7.635815418E-4,8.521570265E-2,3.970623948E-3
2.852393223E0,-6.108652451E-4,9.010262042E-2,3.970623948E-3
2.854626743E0,-3.207042580E-3,8.536841720E-2,3.817907767E-3
2.856852023E0,-5.650503561E-3,8.903361112E-2,5.039638374E-3
2.859091770E0,-6.872233935E-3,8.903361112E-2,7.483099122E-3
2.861339451E0,-6.872233935E-3,8.781187981E-2,8.704829961E-3
2.863579136E0,-3.207042580E-3,9.025534242E-2,5.192354787E-3
2.865815585E0,-8.093964309E-3,9.147707373E-2,5.039638374E-3
2.868049411E0,-6.872233935E-3,9.147707373E-2,6.261368748E-3
2.870286167E0,-5.650503561E-3,9.147707373E-2,5.192354787E-3
2.872523472E0,-5.497787148E-3,9.636399150E-2,5.192354787E-3
2.874759311E0,-5.497787148E-3,9.392052889E-2,7.635815535E-3
2.876996616E0,-9.162978269E-3,9.269879758E-2,2.596177394E-3
2.879231968E0,-1.038470957E-2,9.636399150E-2,2.596177394E-3
2.881468784E0,-9.162978269E-3,9.880745411E-2,2.748893574E-3
2.883703464E0,-1.023199316E-2,1.012509167E-1,1.527163113E-4
2.885932346E0,-9.010262787E-3,1.049161032E-1,-9.162978968E-4
2.888166477E0,-1.007927675E-2,1.085812971E-1,-9.162978968E-4
2.890414829E0,-8.857546374E-3,1.084285825E-1,-2.138028387E-3
2.892653537E0,-1.007927675E-2,1.085812971E-1,-4.581489135E-3
2.894892185E0,-1.237002108E-2,1.146899462E-1,-4.581489135E-3
2.897124790E0,-1.588249579E-2,1.232420653E-1,-3.359758761E-3
2.899361118E0,-1.481348183E-2,1.220203340E-1,-3.359758761E-3
2.901597690E0,-1.481348183E-2,1.220203340E-1,-4.581489135E-3
2.903834507E0,-1.710422710E-2,1.244637966E-1,-2.138028387E-3
2.906071140E0,-1.710422710E-2,1.269072592E-1,-2.138028387E-3
2.908307651E0,-1.710422710E-2,1.305724531E-1,-2.138028387E-3
2.910544468E0,-1.710422710E-2,1.256855279E-1,-2.138028387E-3
2.912781772E0,-1.588249579E-2,1.256855279E-1,-2.138028387E-3
2.915014377E0,-1.832595654E-2,1.293507218E-1,-9.162978968E-4
2.917242038E0,-1.954768784E-2,1.256855279E-1,-9.162978968E-4
2.919490513E0,-1.847867295E-2,1.183551401E-1,1.527163113E-4
2.921726414E0,-2.092213556E-2,1.197295859E-1,1.374446787E-3
2.923963963E0,-2.474004216E-2,1.185078546E-1,1.374446787E-3
2.926200168E0,-2.107485011E-2,1.148426682E-1,2.596177394E-3
2.928437046E0,-2.474004216E-2,1.160643995E-1,3.817907767E-3
2.930675082E0,-2.367102914E-2,1.123992056E-1,2.596177394E-3
2.932910190E0,-2.367102914E-2,1.099557430E-1,1.374446787E-3
2.935146518E0,-2.367102914E-2,1.075122803E-1,1.527163113E-4
2.937382847E0,-2.367102914E-2,1.052215397E-1,1.527163113E-4
2.939619724E0,-2.138028294E-2,1.014036313E-1,1.527163113E-4
2.941857029E0,-2.015855350E-2,1.001819000E-1,-2.290744567E-3
2.944094089E0,-2.138028294E-2,9.911288321E-2,-2.290744567E-3
2.946329929E0,-1.893682219E-2,9.407325089E-2,-4.734205548E-3
2.948567051E0,-2.260201424E-2,9.422596544E-2,-6.108652335E-3
2.950798129E0,-2.153299935E-2,9.178250283E-2,-8.552113548E-3
2.953022678E0,-1.786780916E-2,8.918632567E-2,-7.177666761E-3
2.955275364E0,-1.908953860E-2,8.567385375E-2,-7.330383174E-3
2.957512363E0,-2.046398632E-2,8.323039114E-2,-2.443460980E-3
2.959753452E0,-1.679879427E-2,8.078692853E-2,-2.290744567E-3
2.961985752E0,-1.435533352E-2,8.063421398E-2,2.596177394E-3
2.964222751E0,-1.313360315E-2,8.063421398E-2,5.039638374E-3
2.966459690E0,-1.191187184E-2,8.307767659E-2,3.817907767E-3
2.968695347E0,-9.468411095E-3,8.429940045E-2,3.817907767E-3
2.970929050E0,-1.191187184E-2,8.307767659E-2,6.261368748E-3
2.973157017E0,-1.069014147E-2,8.307767659E-2,3.817907767E-3
2.975405002E0,-9.468411095E-3,8.429940045E-2,5.039638374E-3
2.977641391E0,-8.246680722E-3,8.307767659E-2,5.039638374E-3
2.979881015E0,-8.246680722E-3,8.307767659E-2,2.596177394E-3
2.982115024E0,-4.581489135E-3,7.925976813E-2,5.039638374E-3
2.984352390E0,-7.177666761E-3,7.696902007E-2,7.483099122E-3
2.986587986E0,-4.734205548E-3,7.437284291E-2,8.704829961E-3
2.988822666E0,-3.665191587E-3,6.963863969E-2,9.926560335E-3
2.991052463E0,-3.665191587E-3,6.963863969E-2,9.926560335E-3
2.993297397E0,-1.221730490E-3,6.704246253E-2,1.481348183E-2
2.995534153E0,0.000000000E0,6.459899992E-2,1.359175146E-2
2.997772922E0,0.000000000E0,6.826419383E-2,1.481348183E-2
3.000005466E0,1.221730490E-3,6.582073122E-2,1.481348183E-2
3.002235141E0,2.596177394E-3,6.948592514E-2,1.481348183E-2
3.004480503E0,5.039638374E-3,6.933320314E-2,1.496619824E-2
3.006717075E0,1.374446787E-3,7.315111160E-2,1.359175146E-2
3.008956088E0,5.192354787E-3,7.666359097E-2,1.252273750E-2
3.011190281E0,6.414085161E-3,7.666359097E-2,1.374446787E-2
3.013427341E0,7.635815535E-3,7.666359097E-2,1.130100712E-2
3.015664524E0,7.788531948E-3,8.155050874E-2,1.252273750E-2
3.017897250E0,1.023199316E-2,8.261952549E-2,8.857546374E-3
3.020125705E0,1.023199316E-2,8.628471941E-2,8.857546374E-3
3.022372776E0,1.145372353E-2,8.628471941E-2,1.007927675E-2
3.024609714E0,1.145372353E-2,8.017606288E-2,8.857546374E-3
3.026849217E0,1.511891466E-2,8.017606288E-2,6.414085161E-3
3.029083042E0,1.145372353E-2,7.895433158E-2,3.970623948E-3
3.031319370E0,1.145372353E-2,7.895433158E-2,3.970623948E-3
3.033555942E0,1.511891466E-2,7.895433158E-2,6.414085161E-3
3.035793064E0,1.252273750E-2,7.406741381E-2,6.414085161E-3
3.038030552E0,1.252273750E-2,7.284568250E-2,8.857546374E-3
3.040265720E0,1.130100712E-2,7.284568250E-2,7.635815535E-3
3.042502475E0,1.359175146E-2,6.918048859E-2,8.857546374E-3
3.044738682E0,1.481348183E-2,6.551529467E-2,1.252273750E-2
3.046975437E0,1.359175146E-2,6.444628537E-2,1.130100712E-2
3.049209262E0,1.481348183E-2,6.429356337E-2,1.252273750E-2
3.051434116E0,1.466076635E-2,6.429356337E-2,1.496619824E-2
3.053673984E0,1.588249579E-2,6.307183951E-2,1.496619824E-2
3.055923069E0,1.832595654E-2,6.307183951E-2,1.496619824E-2
3.058161105E0,1.710422710E-2,6.185010448E-2,1.496619824E-2
3.060397739E0,1.970040426E-2,6.429356337E-2,1.496619824E-2
3.062631321E0,1.832595654E-2,6.185010448E-2,1.618792862E-2
3.064868259E0,1.847867295E-2,6.429356337E-2,1.618792862E-2
3.067104831E0,2.092213556E-2,6.551529467E-2,1.618792862E-2
3.069341343E0,2.092213556E-2,6.551529467E-2,1.618792862E-2
3.071578159E0,1.970040426E-2,6.795875728E-2,1.496619824E-2
3.073815464E0,1.603521220E-2,6.795875728E-2,1.252273750E-2
3.076051059E0,1.847867295E-2,6.673702598E-2,1.252273750E-2
3.078287632E0,1.603521220E-2,6.795875728E-2,1.007927675E-2
3.080523899E0,1.237002108E-2,6.688974798E-2,1.007927675E-2
3.082760532E0,1.099557430E-2,6.322455406E-2,1.007927675E-2
3.084994602E0,1.099557430E-2,6.322455406E-2,7.635815535E-3
3.087219577E0,9.773843922E-3,6.200282276E-2,8.857546374E-3
3.089457370E0,7.330383174E-3,5.971207842E-2,8.704829961E-3
3.091708042E0,7.330383174E-3,5.971207842E-2,7.483099122E-3
3.093946385E0,3.512475174E-3,5.482515693E-2,6.261368748E-3
3.096183567E0,-1.374446787E-3,5.375614017E-2,6.261368748E-3
3.098416538E0,-1.527163084E-3,5.131268129E-2,9.926560335E-3
3.100653415E0,-2.748893574E-3,5.131268129E-2,1.114829071E-2
3.102890171E0,-2.748893574E-3,5.131268129E-2,1.237002108E-2
3.105123569E0,-2.748893574E-3,5.009094998E-2,1.359175146E-2
3.107351657E0,-2.901609987E-3,4.520402849E-2,1.359175146E-2
3.109600864E0,-1.527163084E-3,5.131268129E-2,1.481348183E-2
3.111836460E0,-5.192354787E-3,5.375614017E-2,1.603521220E-2
3.114073093E0,-3.970623948E-3,5.253441259E-2,1.847867295E-2
3.116298618E0,2.138028387E-3,5.131268129E-2,1.970040426E-2
3.118546177E0,-2.748893574E-3,5.497787148E-2,1.970040426E-2
3.120779941E0,-3.054326226E-4,5.497787148E-2,1.603521220E-2
3.123007603E0,-1.374446787E-3,6.108652428E-2,1.725694351E-2
3.125241428E0,-3.817907767E-3,6.230825558E-2,1.970040426E-2
3.127478427E0,1.069014193E-3,6.215553731E-2,1.970040426E-2
3.129719760E0,1.069014193E-3,6.215553731E-2,1.603521220E-2
3.131968784E0,0.000000000E0,6.337726861E-2,1.603521220E-2
3.134202000E0,0.000000000E0,6.337726861E-2,1.725694351E-2
3.136430088E0,2.443460980E-3,6.826419383E-2,1.847867295E-2
3.138675205E0,3.817907767E-3,6.948592514E-2,1.374446787E-2
3.140911655E0,2.596177394E-3,6.948592514E-2,1.237002108E-2
3.143151585E0,0.000000000E0,6.704246253E-2,1.359175146E-2
3.145385837E0,1.221730490E-3,6.704246253E-2,1.359175146E-2
3.147621921E0,-1.221730490E-3,6.704246253E-2,9.926560335E-3
3.149858188E0,-2.443460980E-3,6.597344577E-2,8.704829961E-3
3.152094578E0,-1.221730490E-3,6.582073122E-2,6.261368748E-3
3.154331272E0,-1.221730490E-3,6.459899992E-2,7.483099122E-3
3.156568271E0,-1.221730490E-3,6.337726861E-2,7.483099122E-3
3.158805942E0,-1.374446787E-3,5.986479297E-2,6.261368748E-3
3.161041294E0,-1.527163113E-4,5.742133409E-2,6.261368748E-3
3.163278660E0,1.069014193E-3,5.726861581E-2,7.483099122E-3
3.165514072E0,-1.527163113E-4,5.497787148E-2,6.261368748E-3
3.167750766E0,-3.054326226E-4,5.009094998E-2,6.261368748E-3
3.169987095E0,2.290744567E-3,5.253441259E-2,7.483099122E-3
3.172223850E0,1.069014193E-3,5.619960278E-2,5.039638374E-3
3.174460483E0,1.069014193E-3,5.253441259E-2,6.261368748E-3
3.176697056E0,-1.527163084E-3,5.253441259E-2,7.483099122E-3
3.178933872E0,2.138028387E-3,5.131268129E-2,7.483099122E-3
3.181171177E0,2.138028387E-3,5.131268129E-2,7.483099122E-3
3.183406528E0,3.512475174E-3,5.604688451E-2,7.483099122E-3
3.185642368E0,3.512475174E-3,5.604688451E-2,9.926560335E-3
3.187879673E0,7.177666761E-3,5.482515693E-2,1.114829071E-2
3.190116550E0,4.886921961E-3,6.215553731E-2,9.926560335E-3
3.192353550E0,6.108652335E-3,6.566801667E-2,1.130100712E-2
3.194589695E0,5.039638374E-3,6.704246253E-2,1.007927675E-2
3.196826694E0,2.596177394E-3,7.192938030E-2,1.007927675E-2
3.199063755E0,3.970623948E-3,7.544185966E-2,1.007927675E-2
3.201299656E0,5.192354787E-3,7.788532227E-2,7.635815535E-3
3.203536167E0,5.192354787E-3,7.910704613E-2,6.414085161E-3
3.205772556E0,5.345070735E-3,8.155050874E-2,6.414085161E-3
3.208009250E0,2.748893574E-3,7.910704613E-2,3.970623948E-3
3.210245579E0,-2.138028387E-3,7.925976813E-2,3.817907767E-3
3.212482212E0,-3.359758761E-3,8.170322329E-2,5.039638374E-3
3.214719272E0,-2.138028387E-3,7.925976813E-2,1.374446787E-3
3.216956638E0,-3.359758761E-3,7.925976813E-2,3.817907767E-3
3.219192173E0,-5.803219974E-3,8.048149943E-2,2.596177394E-3
3.221425815E0,-5.803219974E-3,7.681630552E-2,2.596177394E-3
3.223654270E0,-5.803219974E-3,7.803803682E-2,5.039638374E-3
3.225901645E0,-8.399397135E-3,7.574728876E-2,2.596177394E-3
3.228138767E0,-8.399397135E-3,7.452555746E-2,2.596177394E-3
3.230378757E0,-1.084285788E-2,7.819075137E-2,5.039638374E-3
3.232612155E0,-8.246680722E-3,7.941248268E-2,3.817907767E-3
3.234849155E0,-8.246680722E-3,7.819075137E-2,6.261368748E-3
3.237084507E0,-9.621127509E-3,7.819075137E-2,6.261368748E-3
3.239321262E0,-7.177666761E-3,7.696902007E-2,7.483099122E-3
3.241557651E0,-3.359758761E-3,7.803803682E-2,6.261368748E-3
3.243794468E0,-2.290744567E-3,6.948592514E-2,8.704829961E-3
3.246031101E0,-1.069014193E-3,7.070764899E-2,6.261368748E-3
3.248267795E0,-1.069014193E-3,7.192938030E-2,8.704829961E-3
3.250503513E0,1.374446787E-3,6.826419383E-2,6.261368748E-3
3.252739048E0,6.261368748E-3,6.811147183E-2,8.857546374E-3
3.254973667E0,6.108652335E-3,6.444628537E-2,7.635815535E-3
3.257199619E0,6.108652335E-3,5.971207842E-2,6.261368748E-3
3.259451145E0,6.108652335E-3,5.971207842E-2,6.261368748E-3
3.261687046E0,9.773843922E-3,5.833763257E-2,6.414085161E-3
3.263927219E0,9.621127509E-3,5.238169432E-2,7.483099122E-3
3.266160190E0,1.084285788E-2,4.993823543E-2,8.704829961E-3
3.268397251E0,9.468411095E-3,4.382958263E-2,9.926560335E-3
3.270631320E0,1.069014147E-2,4.505131021E-2,9.926560335E-3
3.272857944E0,9.468411095E-3,4.260785133E-2,6.261368748E-3
3.275103854E0,5.650503561E-3,4.031710699E-2,6.261368748E-3
3.277332554E0,5.650503561E-3,3.909537569E-2,3.817907767E-3
3.279582676E0,3.359758761E-3,4.276056588E-2,-1.069014193E-3
3.281816440E0,9.162978968E-4,4.520402849E-2,-3.512475174E-3
3.284055392E0,1.069014193E-3,4.764748737E-2,-5.955935922E-3
3.286289890E0,-1.527163113E-4,5.253441259E-2,-9.621127509E-3
3.288525059E0,0.000000000E0,5.619960278E-2,-8.399397135E-3
3.290752659E0,1.221730490E-3,5.971207842E-2,-1.084285788E-2
3.292991977E0,1.221730490E-3,6.093380973E-2,-9.621127509E-3
3.295235569E0,1.374446787E-3,6.704246253E-2,-1.084285788E-2
3.297474277E0,1.527163113E-4,6.704246253E-2,-1.084285788E-2
3.299708102E0,-1.069014193E-3,6.704246253E-2,-8.399397135E-3
3.301934604E0,1.527163113E-4,6.948592514E-2,-7.177666761E-3
3.304182468E0,-1.069014193E-3,6.826419383E-2,-7.177666761E-3
3.306419651E0,1.527163113E-4,6.948592514E-2,-3.512475174E-3
3.308657810E0,2.596177394E-3,6.948592514E-2,-1.069014193E-3
3.310891880E0,3.817907767E-3,6.582073122E-2,1.527163113E-4
3.313128147E0,-1.221730490E-3,6.704246253E-2,6.261368748E-3
3.315364780E0,2.443460980E-3,6.582073122E-2,8.704829961E-3
3.317598361E0,6.108652335E-3,6.337726861E-2,8.704829961E-3
3.319826145E0,4.886921961E-3,6.215553731E-2,9.926560335E-3
3.322074802E0,2.443460980E-3,6.093380973E-2,1.114829071E-2
3.324312412E0,4.734205548E-3,5.482515693E-2,1.481348183E-2
3.326551121E0,4.886921961E-3,6.337726861E-2,1.237002108E-2
3.328784519E0,6.261368748E-3,6.688974798E-2,1.252273750E-2
3.331020786E0,5.039638374E-3,6.811147183E-2,1.374446787E-2
3.333257541E0,8.704829961E-3,6.933320314E-2,1.130100712E-2
3.335494175E0,9.926560335E-3,7.055493444E-2,1.252273750E-2
3.337730747E0,1.007927675E-2,7.422012836E-2,1.252273750E-2
3.339967563E0,1.130100712E-2,7.651086897E-2,1.252273750E-2
3.342204929E0,1.130100712E-2,7.651086897E-2,1.130100712E-2
3.344440708E0,1.130100712E-2,7.895433158E-2,1.007927675E-2
3.346677036E0,1.145372353E-2,8.139779419E-2,1.007927675E-2
3.348913364E0,1.389718428E-2,8.017606288E-2,1.007927675E-2
3.351150181E0,1.389718428E-2,8.506298810E-2,8.857546374E-3
3.353386997E0,1.282817032E-2,8.750644326E-2,8.857546374E-3
3.355622532E0,1.160643995E-2,8.750644326E-2,5.192354787E-3
3.357854038E0,1.404990070E-2,8.735372871E-2,5.192354787E-3
3.360085666E0,1.298088674E-2,9.224065393E-2,5.345070735E-3
3.362333042E0,1.038470957E-2,9.117163718E-2,2.748893574E-3
3.364570468E0,1.053742506E-2,9.605856240E-2,2.901609987E-3
3.366809117E0,9.315694682E-3,9.483683109E-2,1.527163084E-3
3.369042759E0,1.175915636E-2,9.468411654E-2,4.123340361E-3
3.371279636E0,1.298088674E-2,9.346238524E-2,5.345070735E-3
3.373517124E0,1.175915636E-2,9.346238524E-2,4.123340361E-3
3.375753025E0,1.175915636E-2,9.468411654E-2,6.566801574E-3
3.377990329E0,7.941247895E-3,9.239336848E-2,5.192354787E-3
3.380225620E0,7.941247895E-3,9.117163718E-2,7.635815535E-3
3.382462436E0,9.162978269E-3,8.994990587E-2,7.635815535E-3
3.384698765E0,9.162978269E-3,9.117163718E-2,8.857546374E-3
3.386935520E0,7.941247895E-3,8.872817457E-2,1.007927675E-2
3.389171848E0,9.010262787E-3,8.506298810E-2,1.496619824E-2
3.391408542E0,6.414085161E-3,8.277224004E-2,1.618792862E-2
3.393645786E0,7.635815535E-3,8.155050874E-2,1.618792862E-2
3.395882908E0,8.857546374E-3,8.139779419E-2,1.740965992E-2
3.398118442E0,8.857546374E-3,7.788532227E-2,1.985312067E-2
3.400354709E0,1.374446787E-2,7.773260027E-2,1.985312067E-2
3.402591282E0,1.114829071E-2,7.528914511E-2,2.107485011E-2
3.404827915E0,1.374446787E-2,7.651086897E-2,2.107485011E-2
3.407064792E0,1.481348183E-2,7.040221989E-2,1.985312067E-2
3.409301243E0,1.588249579E-2,6.429356337E-2,1.863138936E-2
3.411537937E0,1.832595654E-2,5.818491429E-2,1.740965992E-2
3.413775486E0,1.939497143E-2,5.329799280E-2,1.740965992E-2
3.416011265E0,2.290744707E-2,4.352414981E-2,1.618792862E-2
3.418247654E0,2.519819140E-2,3.252857551E-2,1.618792862E-2
3.420482822E0,2.260201424E-2,2.412917651E-2,1.237002108E-2
3.422716282E0,2.489275858E-2,1.924225502E-2,1.481348183E-2
3.424954440E0,2.474004216E-2,1.313360315E-2,1.603521220E-2
3.427182407E0,2.718350291E-2,1.069014147E-2,1.725694351E-2
3.429431797E0,2.458732575E-2,4.734205548E-3,1.603521220E-2
3.431668064E0,2.214386500E-2,2.290744567E-3,1.725694351E-2
3.433906712E0,2.092213556E-2,5.955935922E-3,1.481348183E-2
3.436140232E0,1.970040426E-2,5.955935922E-3,1.603521220E-2
3.438376804E0,1.847867295E-2,5.955935922E-3,1.481348183E-2
3.440613559E0,1.863138936E-2,1.084285788E-2,1.359175146E-2
3.442850376E0,1.618792862E-2,1.450804994E-2,1.237002108E-2
3.445084506E0,1.878410578E-2,1.939497143E-2,1.359175146E-2
3.447308811E0,1.878410578E-2,2.183843218E-2,1.237002108E-2
3.449548862E0,1.893682219E-2,2.901609987E-2,1.114829071E-2
3.451793186E0,1.786780916E-2,3.390302137E-2,9.926560335E-3
3.454019504E0,1.908953860E-2,3.756821156E-2,1.130100712E-2
3.456255405E0,1.924225502E-2,4.245513305E-2,1.007927675E-2
3.458505893E0,1.572977938E-2,4.856378585E-2,1.130100712E-2
3.460745701E0,1.450804994E-2,4.978551716E-2,8.857546374E-3
3.462983249E0,1.328631863E-2,5.222897977E-2,7.635815535E-3
3.465213229E0,1.710422710E-2,5.467243865E-2,6.414085161E-3
3.467438632E0,1.710422710E-2,5.940664560E-2,8.857546374E-3
3.469676792E0,1.710422710E-2,5.940664560E-2,1.007927675E-2
3.471925266E0,1.343903504E-2,6.078109145E-2,6.414085161E-3
3.474161960E0,1.466076635E-2,6.185010448E-2,7.635815535E-3
3.476391270E0,1.359175146E-2,6.444628537E-2,7.635815535E-3
3.478635288E0,1.588249579E-2,6.062837690E-2,8.857546374E-3
3.480871677E0,1.588249579E-2,5.940664560E-2,7.635815535E-3
3.483111301E0,1.466076635E-2,5.833763257E-2,7.635815535E-3
3.485345981E0,1.710422710E-2,5.574145541E-2,7.635815535E-3
3.487579685E0,2.076941915E-2,5.574145541E-2,8.857546374E-3
3.489810581E0,2.076941915E-2,5.329799280E-2,1.007927675E-2
3.492055454E0,2.306016348E-2,5.329799280E-2,1.374446787E-2
3.494288486E0,2.306016348E-2,4.841107130E-2,1.252273750E-2
3.496518589E0,2.672535367E-2,4.596760869E-2,1.374446787E-2
3.498764194E0,2.550362423E-2,4.841107130E-2,1.374446787E-2
3.501001316E0,2.428189293E-2,4.718934000E-2,1.252273750E-2
3.503241672E0,2.535090782E-2,4.352414981E-2,1.496619824E-2
3.505474460E0,2.306016348E-2,4.841107130E-2,1.374446787E-2
3.507710972E0,2.779436857E-2,4.352414981E-2,1.496619824E-2
3.509946995E0,2.794708498E-2,4.581489414E-2,1.374446787E-2
3.512183872E0,2.794708498E-2,4.825835302E-2,1.496619824E-2
3.514420932E0,3.039054573E-2,4.825835302E-2,1.511891466E-2
3.516655246E0,2.794708498E-2,4.703662544E-2,1.618792862E-2
3.518881870E0,2.794708498E-2,5.070181563E-2,1.496619824E-2
3.521131077E0,2.932153270E-2,5.558873713E-2,1.634064503E-2
3.523366489E0,2.809980139E-2,5.925392732E-2,1.511891466E-2
3.525606602E0,3.069597855E-2,6.154467165E-2,1.634064503E-2
3.527839878E0,3.207042441E-2,6.520986557E-2,1.389718428E-2
3.530076511E0,3.084869497E-2,7.131851465E-2,1.145372353E-2
3.532313205E0,2.977968007E-2,7.254024595E-2,9.010262787E-3
3.534549595E0,2.977968007E-2,7.864890248E-2,1.023199316E-2
3.536786960E0,2.977968007E-2,7.864890248E-2,9.010262787E-3
3.539024936E0,2.993239649E-2,8.231408894E-2,9.010262787E-3
3.541259556E0,3.115412779E-2,8.338310570E-2,6.566801574E-3
3.543495884E0,2.871066704E-2,8.597928286E-2,6.566801574E-3
3.545732212E0,2.886338346E-2,8.842274547E-2,5.345070735E-3
3.547966342E0,2.764165215E-2,9.193521738E-2,4.123340361E-3
3.550191257E0,2.764165215E-2,9.193521738E-2,1.679879380E-3
3.552430698E0,2.764165215E-2,9.086620808E-2,2.901609987E-3
3.554676242E0,2.641992271E-2,9.330966324E-2,2.901609987E-3
3.556904453E0,2.657263726E-2,9.682214260E-2,4.123340361E-3
3.559142857E0,2.779436857E-2,9.682214260E-2,7.941247895E-3
3.561388706E0,2.290744707E-2,9.697485715E-2,4.123340361E-3
3.563628024E0,2.290744707E-2,9.941831976E-2,1.679879380E-3
3.565862338E0,2.290744707E-2,9.941831976E-2,4.123340361E-3
3.568088108E0,1.924225502E-2,1.006400511E-1,4.123340361E-3
3.570334751E0,1.924225502E-2,1.018617824E-1,4.581489484E-4
3.572571811E0,1.802052557E-2,1.006400511E-1,2.901609987E-3
3.574811679E0,1.802052557E-2,1.030835137E-1,4.123340361E-3
3.577044834E0,1.679879427E-2,1.055269688E-1,5.345070735E-3
3.579281528E0,1.695151068E-2,1.067487001E-1,2.901609987E-3
3.581517612E0,1.695151068E-2,1.067487001E-1,2.901609987E-3
3.583751438E0,1.572977938E-2,1.079704314E-1,4.123340361E-3
3.585979221E0,1.817324013E-2,1.104138941E-1,4.123340361E-3
3.588228550E0,1.817324013E-2,1.116356254E-1,5.345070735E-3
3.590464389E0,1.710422710E-2,1.153008118E-1,5.345070735E-3
3.592704746E0,2.076941915E-2,1.175915599E-1,6.719517522E-3
3.594934726E0,2.092213556E-2,1.237002090E-1,4.276056774E-3
3.597163669E0,2.229658142E-2,1.273654103E-1,1.832595794E-3
3.599410435E0,2.107485011E-2,1.298088580E-1,3.054326167E-3
3.601647007E0,1.985312067E-2,1.322523206E-1,3.054326167E-3
3.603886447E0,2.474004216E-2,1.320996135E-1,3.054326167E-3
3.606120395E0,2.367102914E-2,1.333213449E-1,3.054326167E-3
3.608357273E0,2.733621933E-2,1.345430762E-1,3.054326167E-3
3.610594516E0,2.977968007E-2,1.368338168E-1,3.207042580E-3
3.612830112E0,3.466660157E-2,1.356120855E-1,3.207042580E-3
3.615063693E0,3.344487399E-2,1.356120855E-1,4.428773187E-3
3.617291050E0,3.344487399E-2,1.356120855E-1,4.428773187E-3
3.619539829E0,3.604105115E-2,1.366810948E-1,5.650503561E-3
3.621773471E0,3.955352306E-2,1.317941695E-1,6.872233935E-3
3.624000828E0,3.955352306E-2,1.317941695E-1,6.872233935E-3
3.626233127E0,3.955352306E-2,1.281289905E-1,5.650503561E-3
3.628475132E0,4.306599870E-2,1.256855279E-1,5.650503561E-3
3.630725681E0,4.184427112E-2,1.195768714E-1,4.428773187E-3
3.632962925E0,4.062253982E-2,1.197295859E-1,1.985311974E-3
3.635198581E0,4.169155285E-2,1.160643995E-1,3.207042580E-3
3.637432407E0,4.153883830E-2,1.087340117E-1,1.985311974E-3
3.639668857E0,3.787364438E-2,1.039998084E-1,6.108652451E-4
3.641905308E0,3.787364438E-2,1.039998084E-1,-4.276056774E-3
3.644142368E0,3.772092983E-2,1.015563458E-1,-1.832595794E-3
3.646379673E0,3.390302137E-2,9.666942805E-2,-1.832595794E-3
3.648615329E0,3.512475267E-2,9.193521738E-2,-6.108652451E-4
3.650851841E0,3.252857551E-2,8.827003092E-2,-6.108652451E-4
3.653088169E0,3.252857551E-2,8.704829961E-2,4.581489484E-4
3.655322055E0,3.252857551E-2,8.460483700E-2,2.901609987E-3
3.657550144E0,3.237585723E-2,8.216137439E-2,5.345070735E-3
3.659799411E0,3.604105115E-2,8.093964309E-2,5.497787148E-3
3.662035251E0,3.115412779E-2,8.460483700E-2,6.566801574E-3
3.664275425E0,3.115412779E-2,7.987063378E-2,7.788531948E-3
3.666507542E0,2.733621933E-2,7.376197726E-2,6.566801574E-3
3.668744419E0,3.084869497E-2,6.887505949E-2,7.788531948E-3
3.670980930E0,2.962696366E-2,6.520986557E-2,9.010262787E-3
3.673217563E0,3.069597855E-2,6.398813426E-2,1.023199316E-2
3.675454136E0,3.069597855E-2,6.032294407E-2,1.145372353E-2
3.677690708E0,2.947424725E-2,5.803219974E-2,1.267545391E-2
3.679927768E0,2.687807009E-2,5.436700583E-2,1.252273750E-2
3.682164829E0,2.932153270E-2,5.070181563E-2,1.252273750E-2
3.684399204E0,2.672535367E-2,4.841107130E-2,1.374446787E-2
3.686632053E0,2.306016348E-2,4.718934000E-2,1.496619824E-2
3.688873325E0,2.550362423E-2,4.718934000E-2,1.496619824E-2
3.691110202E0,2.535090782E-2,4.352414981E-2,1.496619824E-2
3.693348179E0,2.290744707E-2,4.596760869E-2,1.496619824E-2
3.695583347E0,2.306016348E-2,4.718934000E-2,1.740965992E-2
3.697820346E0,2.290744707E-2,4.596760869E-2,1.618792862E-2
3.700057407E0,2.168571576E-2,4.474587739E-2,1.374446787E-2
3.702293308E0,2.061670274E-2,4.718934000E-2,1.374446787E-2
3.704529758E0,1.679879427E-2,4.734205827E-2,1.252273750E-2
3.706765964E0,1.817324013E-2,4.856378585E-2,1.252273750E-2
3.709003025E0,1.572977938E-2,5.100724846E-2,1.252273750E-2
3.711239719E0,1.572977938E-2,5.100724846E-2,1.130100712E-2
3.713475925E0,1.695151068E-2,5.467243865E-2,1.130100712E-2
3.715712925E0,1.710422710E-2,5.818491429E-2,8.857546374E-3
3.717950168E0,1.710422710E-2,5.574145541E-2,8.857546374E-3
3.720184482E0,1.588249579E-2,5.589416996E-2,6.414085161E-3
3.722416782E0,1.466076635E-2,5.955936015E-2,6.414085161E-3
3.724658665E0,1.466076635E-2,5.955936015E-2,5.192354787E-3
3.726895298E0,1.466076635E-2,5.833763257E-2,6.414085161E-3
3.729133762E0,1.588249579E-2,5.940664560E-2,7.635815535E-3
3.731369724E0,1.710422710E-2,6.062837690E-2,7.635815535E-3
3.733605808E0,1.832595654E-2,5.940664560E-2,7.635815535E-3
3.735842808E0,1.832595654E-2,6.062837690E-2,8.857546374E-3
3.738078159E0,1.710422710E-2,5.818491429E-2,1.007927675E-2
3.740314914E0,1.343903504E-2,5.711590126E-2,8.857546374E-3
3.742551304E0,1.343903504E-2,5.833763257E-2,8.857546374E-3
3.744788181E0,1.221730467E-2,5.833763257E-2,8.857546374E-3
3.747024997E0,1.343903504E-2,5.711590126E-2,1.007927675E-2
3.749260654E0,1.221730467E-2,5.833763257E-2,1.252273750E-2
3.751494663E0,8.399397135E-3,5.604688451E-2,9.926560335E-3
3.753735386E0,7.177666761E-3,5.849034712E-2,1.237002108E-2
3.755971164E0,8.552113548E-3,6.078109145E-2,1.374446787E-2
3.758208469E0,7.330383174E-3,5.971207842E-2,1.481348183E-2
3.760444126E0,4.734205548E-3,5.971207842E-2,1.359175146E-2
3.762680698E0,4.734205548E-3,5.971207842E-2,1.237002108E-2
3.764919834E0,4.734205548E-3,5.971207842E-2,1.237002108E-2
3.767163120E0,2.443460980E-3,6.215553731E-2,1.114829071E-2
3.769390964E0,3.512475174E-3,5.849034712E-2,9.926560335E-3
3.771628147E0,-1.527163113E-4,5.864306539E-2,1.237002108E-2
3.773861240E0,-3.817907767E-3,6.230825558E-2,1.237002108E-2
3.776100071E0,-1.221730490E-3,6.337726861E-2,1.114829071E-2
3.778336399E0,-1.221730490E-3,6.459899992E-2,1.359175146E-2
3.780573337E0,-2.443460980E-3,6.230825558E-2,1.114829071E-2
3.782810093E0,-3.817907767E-3,5.986479297E-2,8.704829961E-3
3.785043552E0,-3.817907767E-3,6.108652428E-2,7.483099122E-3
3.787274265E0,-6.261368748E-3,5.864306539E-2,6.261368748E-3
3.789530552E0,-8.704829961E-3,6.230825558E-2,6.261368748E-3
3.791756382E0,-5.039638374E-3,5.619960278E-2,5.039638374E-3
3.793994297E0,-5.039638374E-3,5.497787148E-2,6.261368748E-3
3.796221469E0,-6.261368748E-3,5.619960278E-2,6.261368748E-3
3.798467625E0,-7.483099122E-3,5.513058975E-2,4.886921961E-3
3.800709079E0,-3.817907767E-3,5.497787148E-2,7.483099122E-3
3.802941563E0,-5.192354787E-3,5.146539584E-2,6.261368748E-3
3.805173068E0,-5.192354787E-3,5.146539584E-2,7.483099122E-3
3.807399265E0,-3.970623948E-3,5.253441259E-2,7.483099122E-3
3.809646274E0,-5.192354787E-3,5.253441259E-2,8.704829961E-3
3.811885593E0,-6.414085161E-3,5.390885845E-2,1.114829071E-2
3.814122105E0,-5.192354787E-3,5.497787148E-2,1.114829071E-2
3.816343601E0,-8.857546374E-3,5.513058975E-2,1.221730467E-2
3.818580356E0,-5.039638374E-3,5.864306539E-2,9.926560335E-3
3.820831821E0,-7.483099122E-3,5.757404864E-2,1.237002108E-2
3.823071934E0,-7.483099122E-3,5.986479297E-2,1.603521220E-2
3.825309909E0,-7.483099122E-3,6.108652428E-2,1.481348183E-2
3.827541538E0,-7.483099122E-3,6.108652428E-2,1.359175146E-2
3.829778049E0,-7.483099122E-3,5.864306539E-2,1.359175146E-2
3.832014378E0,-8.704829961E-3,6.123924255E-2,1.114829071E-2
3.834248264E0,-7.635815535E-3,5.390885845E-2,1.221730467E-2
3.836475864E0,-6.414085161E-3,5.513058975E-2,1.359175146E-2
3.838724460E0,-5.039638374E-3,5.742133409E-2,1.359175146E-2
3.840961521E0,-6.414085161E-3,5.513058975E-2,1.114829071E-2
3.843201817E0,-9.010262787E-3,4.902193695E-2,1.099557430E-2
3.845434482E0,-9.010262787E-3,4.902193695E-2,1.099557430E-2
3.847671116E0,-6.566801574E-3,4.413501546E-2,1.099557430E-2
3.849906956E0,-5.345070735E-3,4.169155285E-2,1.099557430E-2
3.852143833E0,-7.941247895E-3,3.573561832E-2,1.099557430E-2
3.854378635E0,-5.650503561E-3,3.069597855E-2,1.099557430E-2
3.856609226E0,-3.207042580E-3,2.703078650E-2,1.343903504E-2
3.858853122E0,-2.138028387E-3,2.092213556E-2,1.466076635E-2
3.861091343E0,-2.138028387E-3,1.985312067E-2,1.343903504E-2
3.863328891E0,-1.069014193E-3,1.618792862E-2,1.466076635E-2
3.865563816E0,-2.443460980E-3,8.857546374E-3,1.588249579E-2
3.867800083E0,-2.596177394E-3,3.054326226E-4,1.695151068E-2
3.870036655E0,-1.374446787E-3,-9.162978968E-4,1.939497143E-2
3.872273471E0,-1.527163113E-4,3.054326226E-4,1.832595654E-2
3.874510715E0,9.162978968E-4,-7.024950348E-3,2.183843218E-2
3.876746616E0,3.359758761E-3,-5.803219974E-3,1.954768784E-2
3.878983982E0,3.359758761E-3,-9.468411095E-3,2.076941915E-2
3.881219517E0,3.359758761E-3,-1.191187184E-2,2.183843218E-2
3.883453586E0,3.207042580E-3,-1.435533352E-2,2.306016348E-2
3.885680209E0,8.246680722E-3,-1.069014147E-2,2.199114859E-2
3.887920383E0,8.246680722E-3,-1.191187184E-2,2.199114859E-2
3.890165745E0,7.024950348E-3,-1.191187184E-2,2.443460934E-2
3.892404697E0,1.069014147E-2,-9.621127509E-3,2.443460934E-2
3.894641696E0,8.246680722E-3,-1.069014147E-2,2.443460934E-2
3.896876743E0,1.191187184E-2,-1.206458826E-2,2.076941915E-2
3.899112156E0,1.069014147E-2,-1.084285788E-2,2.199114859E-2
3.901348667E0,1.069014147E-2,-1.084285788E-2,1.954768784E-2
3.903585178E0,1.313360315E-2,-1.084285788E-2,1.832595654E-2
3.905821872E0,1.572977938E-2,-8.552113548E-3,1.832595654E-2
3.908058628E0,1.695151068E-2,-8.552113548E-3,1.710422710E-2
3.910294956E0,1.695151068E-2,-8.552113548E-3,1.588249579E-2
3.912532077E0,1.572977938E-2,-8.552113548E-3,1.710422710E-2
3.914769321E0,1.572977938E-2,-7.330383174E-3,1.588249579E-2
3.917004978E0,1.939497143E-2,-8.552113548E-3,1.466076635E-2
3.919241428E0,2.061670274E-2,-7.330383174E-3,1.343903504E-2
3.921478427E0,1.954768784E-2,-4.886921961E-3,1.481348183E-2
3.923717991E0,2.076941915E-2,-6.108652335E-3,1.359175146E-2
3.925950962E0,2.321287990E-2,-6.261368748E-3,1.114829071E-2
3.928187778E0,2.321287990E-2,-3.817907767E-3,1.114829071E-2
3.930423434E0,2.443460934E-2,-5.039638374E-3,1.237002108E-2
3.932661655E0,2.687807009E-2,-2.596177394E-3,1.237002108E-2
3.934897129E0,2.825251780E-2,-3.054326226E-4,1.114829071E-2
3.937133640E0,2.825251780E-2,2.138028387E-3,1.359175146E-2
3.939370457E0,3.069597855E-2,4.581489135E-3,1.725694351E-2
3.941607273E0,3.191770986E-2,4.581489135E-3,1.603521220E-2
3.943844150E0,3.329215571E-2,7.024950348E-3,1.374446787E-2
3.946081333E0,3.573561832E-2,9.315694682E-3,1.618792862E-2
3.948317173E0,3.344487399E-2,1.786780916E-2,1.618792862E-2
3.950554416E0,3.711006418E-2,1.786780916E-2,1.618792862E-2
3.952789585E0,3.604105115E-2,2.260201424E-2,1.618792862E-2
3.955023654E0,3.726277873E-2,2.260201424E-2,1.496619824E-2
3.957251011E0,3.481931984E-2,2.397646010E-2,1.740965992E-2
3.959499851E0,3.359758854E-2,2.641992271E-2,1.740965992E-2
3.961736362E0,3.359758854E-2,2.641992271E-2,1.496619824E-2
3.963975986E0,3.497203439E-2,2.748893574E-2,1.618792862E-2
3.966210056E0,3.375030309E-2,3.237585723E-2,1.496619824E-2
3.968447300E0,3.252857551E-2,3.130684420E-2,1.374446787E-2
3.970682651E0,3.497203439E-2,2.871066704E-2,1.374446787E-2
3.972919224E0,3.252857551E-2,3.237585723E-2,1.374446787E-2
3.975155796E0,3.512475267E-2,3.359758854E-2,1.130100712E-2
3.977392612E0,3.008511290E-2,3.252857551E-2,1.252273750E-2
3.979628940E0,3.023782931E-2,3.619376570E-2,1.130100712E-2
3.981865513E0,3.268129006E-2,3.481931984E-2,8.857546374E-3
3.984102573E0,3.512475267E-2,3.481931984E-2,6.414085161E-3
3.986337070E0,3.390302137E-2,3.359758854E-2,6.414085161E-3
3.988563999E0,3.390302137E-2,3.359758854E-2,5.192354787E-3
3.990811741E0,3.512475267E-2,3.726277873E-2,6.414085161E-3
3.993048069E0,3.512475267E-2,3.726277873E-2,3.970623948E-3
3.995287815E0,3.268129006E-2,3.604105115E-2,1.527163084E-3
3.997521885E0,3.390302137E-2,3.604105115E-2,3.054326226E-4
3.999758640E0,3.283400834E-2,3.970624134E-2,2.748893574E-3
4.001995212E0,3.634648025E-2,3.604105115E-2,1.527163084E-3
4.004232456E0,3.772092983E-2,3.726277873E-2,2.748893574E-3
4.006467991E0,3.634648025E-2,3.604105115E-2,2.748893574E-3
4.008704624E0,3.772092983E-2,3.848451003E-2,2.748893574E-3
4.010940891E0,3.634648025E-2,3.726277873E-2,3.970623948E-3
4.013177585E0,4.016438872E-2,3.833179548E-2,2.901609987E-3
4.015411838E0,3.894266114E-2,4.077525437E-2,4.123340361E-3
4.017636936E0,3.772092983E-2,4.077525437E-2,4.123340361E-3
4.019875888E0,3.772092983E-2,4.077525437E-2,1.679879380E-3
4.022125278E0,3.909537569E-2,4.444044828E-2,2.901609987E-3
4.024363620E0,3.772092983E-2,4.199698567E-2,2.901609987E-3
4.026600193E0,3.649919853E-2,4.214970022E-2,4.123340361E-3
4.028833408E0,3.527746722E-2,4.214970022E-2,3.970623948E-3
4.031070102E0,3.527746722E-2,4.337143153E-2,2.901609987E-3
4.033307163E0,3.787364438E-2,4.566217586E-2,4.581489484E-4
4.035543430E0,3.772092983E-2,4.077525437E-2,2.901609987E-3
4.037780124E0,3.405573592E-2,4.214970022E-2,3.054326226E-4
4.040017612E0,3.283400834E-2,4.337143153E-2,1.527163084E-3
4.042253452E0,3.527746722E-2,4.092797264E-2,1.527163084E-3
4.044489902E0,3.649919853E-2,3.848451003E-2,2.748893574E-3
4.046723423E0,3.405573592E-2,3.970624134E-2,2.748893574E-3
4.048948215E0,3.145955876E-2,3.726277873E-2,3.054326226E-4
4.051187839E0,3.405573592E-2,3.848451003E-2,3.054326226E-4
4.053433261E0,3.145955876E-2,3.604105115E-2,1.527163084E-3
4.055659702E0,3.023782931E-2,3.741549700E-2,2.748893574E-3
4.057896580E0,3.268129006E-2,3.726277873E-2,2.748893574E-3
4.060145969E0,3.390302137E-2,3.481931984E-2,3.054326226E-4
4.062385349E0,3.405573592E-2,3.970624134E-2,3.054326226E-4
4.064622837E0,3.161227703E-2,3.970624134E-2,1.527163084E-3
4.066855442E0,3.527746722E-2,3.970624134E-2,-2.138028387E-3
4.069092075E0,3.283400834E-2,4.214970022E-2,-9.162978968E-4
4.071328769E0,3.405573592E-2,4.214970022E-2,-9.162978968E-4
4.073566013E0,3.649919853E-2,4.092797264E-2,-9.162978968E-4
4.075803074E0,3.283400834E-2,4.214970022E-2,-9.162978968E-4
4.078038669E0,3.283400834E-2,4.337143153E-2,-9.162978968E-4
4.080275120E0,3.405573592E-2,4.092797264E-2,-9.162978968E-4
4.082508579E0,3.283400834E-2,4.214970022E-2,-9.162978968E-4
4.084736545E0,2.916881628E-2,4.337143153E-2,-2.138028387E-3
4.086984958E0,3.283400834E-2,4.337143153E-2,-9.162978968E-4
4.089222690E0,3.283400834E-2,4.337143153E-2,-3.359758761E-3
4.091461155E0,3.298672289E-2,4.703662544E-2,-2.138028387E-3
4.093695469E0,3.420845419E-2,4.581489414E-2,-9.162978968E-4
4.095931126E0,3.527746722E-2,4.337143153E-2,-9.162978968E-4
4.098167820E0,3.543018550E-2,4.581489414E-2,-7.635815418E-4
4.100404331E0,3.787364438E-2,4.688390717E-2,-7.635815418E-4
4.102640598E0,3.924809024E-2,4.932736978E-2,-3.207042580E-3
4.104877475E0,3.420845419E-2,4.581489414E-2,-2.138028387E-3
4.107113987E0,3.787364438E-2,4.688390717E-2,-7.635815418E-4
4.109350925E0,4.153883830E-2,4.199698567E-2,-1.985311974E-3
4.111588230E0,4.016438872E-2,3.833179548E-2,-1.985311974E-3
4.113824009E0,4.138612002E-2,3.466660157E-2,-3.207042580E-3
4.116060337E0,3.878994286E-2,2.993239649E-2,-3.359758761E-3
4.118296726E0,3.985895589E-2,2.260201424E-2,-3.359758761E-3
4.120530795E0,3.726277873E-2,1.786780916E-2,-4.581489135E-3
4.122754795E0,3.604105115E-2,1.664607786E-2,-4.581489135E-3
4.124988498E0,3.848451003E-2,1.175915636E-2,-5.803219974E-3
4.127231540E0,3.588833287E-2,9.315694682E-3,-4.581489135E-3
4.129484165E0,3.711006418E-2,6.872233935E-3,-3.359758761E-3
4.131720371E0,3.573561832E-2,4.428773187E-3,-2.290744567E-3
4.133955967E0,3.207042441E-2,3.359758761E-3,-2.290744567E-3
4.136189426E0,3.344487399E-2,5.803219974E-3,-3.512475174E-3
4.138426304E0,3.222314268E-2,9.468411095E-3,-2.290744567E-3
4.140662876E0,3.100141138E-2,7.024950348E-3,-3.512475174E-3
4.142899204E0,3.222314268E-2,8.246680722E-3,-3.512475174E-3
4.145133334E0,3.222314268E-2,9.468411095E-3,-1.069014193E-3
4.147361850E0,2.611448988E-2,9.468411095E-3,-2.290744567E-3
4.149609165E0,2.596177347E-2,5.955935922E-3,-2.290744567E-3
4.151845493E0,2.718350291E-2,5.803219974E-3,-3.512475174E-3
4.154082492E0,2.474004216E-2,3.512475174E-3,-5.955935922E-3
4.156305942E0,2.229658142E-2,2.290744567E-3,-3.512475174E-3
4.158544040E0,2.214386500E-2,-1.374446787E-3,-7.177666761E-3
4.160793003E0,2.092213556E-2,-1.527163113E-4,-9.773843922E-3
4.163031345E0,1.970040426E-2,-2.443460980E-3,-7.330383174E-3
4.165269138E0,1.466076635E-2,-4.886921961E-3,-8.552113548E-3
4.167501743E0,1.221730467E-2,-3.512475174E-3,-7.330383174E-3
4.169738376E0,9.773843922E-3,-3.512475174E-3,-8.552113548E-3
4.171974888E0,6.414085161E-3,6.261368748E-3,-9.773843922E-3
4.174208530E0,6.414085161E-3,1.114829071E-2,-8.552113548E-3
4.176436558E0,7.788531948E-3,1.466076635E-2,-9.773843922E-3
4.178684604E0,9.162978269E-3,2.076941915E-2,-1.099557430E-2
4.180921665E0,1.160643995E-2,2.443460934E-2,-1.206458826E-2
4.183158603E0,1.298088674E-2,3.283400834E-2,-1.084285788E-2
4.185382358E0,1.298088674E-2,3.161227703E-2,-9.621127509E-3
4.187630832E0,1.557706390E-2,3.649919853E-2,-9.621127509E-3
4.189867283E0,1.313360315E-2,3.772092983E-2,-9.621127509E-3
4.192107334E0,1.450804994E-2,4.245513305E-2,-1.206458826E-2
4.194340915E0,1.450804994E-2,4.367686436E-2,-1.206458826E-2
4.196577488E0,1.450804994E-2,4.489859566E-2,-1.206458826E-2
4.198814243E0,1.328631863E-2,4.367686436E-2,-9.621127509E-3
4.201051548E0,1.588249579E-2,4.856378585E-2,-1.206458826E-2
4.203287082E0,1.588249579E-2,4.734205827E-2,-1.328631863E-2
4.205523472E0,1.572977938E-2,4.734205827E-2,-1.206458826E-2
4.207759983E0,1.588249579E-2,4.856378585E-2,-1.328631863E-2
4.209996616E0,1.450804994E-2,4.734205827E-2,-1.206458826E-2
4.212233433E0,1.206458826E-2,4.734205827E-2,-1.084285788E-2
4.214469761E0,1.206458826E-2,4.260785133E-2,-1.450804994E-2
4.216706821E0,9.621127509E-3,4.260785133E-2,-1.572977938E-2
4.218943821E0,1.069014147E-2,4.016438872E-2,-1.328631863E-2
4.221179477E0,9.468411095E-3,3.772092983E-2,-1.572977938E-2
4.223416050E0,1.069014147E-2,3.772092983E-2,-1.572977938E-2
4.225652683E0,5.803219974E-3,3.787364438E-2,-1.450804994E-2
4.227889438E0,9.315694682E-3,3.176499158E-2,-1.695151068E-2
4.230126071E0,1.053742506E-2,2.565634064E-2,-1.588249579E-2
4.232363559E0,1.175915636E-2,2.672535367E-2,-1.450804994E-2
4.234599460E0,7.941247895E-3,2.321287990E-2,-1.466076635E-2
4.236837009E0,7.941247895E-3,2.199114859E-2,-1.466076635E-2
4.239072056E0,6.719517522E-3,2.076941915E-2,-1.343903504E-2
4.241308872E0,7.788531948E-3,1.588249579E-2,-1.466076635E-2
4.243545139E0,6.566801574E-3,1.725694351E-2,-1.343903504E-2
4.245782016E0,5.345070735E-3,1.603521220E-2,-1.466076635E-2
4.248018528E0,6.566801574E-3,1.603521220E-2,-1.343903504E-2
4.250251865E0,6.566801574E-3,1.603521220E-2,-1.221730467E-2
4.252479770E0,7.788531948E-3,1.466076635E-2,-1.099557430E-2
4.254729343E0,7.788531948E-3,1.466076635E-2,-8.552113548E-3
4.256965122E0,6.566801574E-3,1.603521220E-2,-8.552113548E-3
4.259204258E0,6.566801574E-3,1.725694351E-2,-9.773843922E-3
4.261437778E0,7.788531948E-3,2.076941915E-2,-8.552113548E-3
4.263674534E0,6.566801574E-3,2.199114859E-2,-7.330383174E-3
4.265911228E0,7.941247895E-3,2.199114859E-2,-8.552113548E-3
4.268148288E0,4.123340361E-3,2.336559631E-2,-6.108652335E-3
4.270386753E0,3.054326167E-3,2.580905706E-2,-7.330383174E-3
4.272621921E0,5.497787148E-3,2.687807009E-2,-8.552113548E-3
4.274857761E0,6.872233935E-3,3.176499158E-2,-8.399397135E-3
4.277093784E0,4.428773187E-3,3.176499158E-2,-9.773843922E-3
4.279330601E0,5.650503561E-3,3.543018550E-2,-1.221730467E-2
4.281567173E0,5.803219974E-3,3.665191308E-2,-1.206458826E-2
4.283803928E0,8.246680722E-3,3.894266114E-2,-1.206458826E-2
4.286036288E0,7.024950348E-3,3.543018550E-2,-1.328631863E-2
4.288261264E0,5.803219974E-3,3.665191308E-2,-1.450804994E-2
4.290514377E0,5.803219974E-3,3.909537569E-2,-1.328631863E-2
4.292750095E0,4.428773187E-3,3.543018550E-2,-1.221730467E-2
4.294990146E0,5.803219974E-3,3.665191308E-2,-1.328631863E-2
4.297220615E0,4.428773187E-3,3.543018550E-2,-1.221730467E-2
4.299461216E0,5.803219974E-3,3.665191308E-2,-1.206458826E-2
4.301696567E0,1.985311974E-3,3.543018550E-2,-1.221730467E-2
4.303934909E0,5.650503561E-3,3.298672289E-2,-1.221730467E-2
4.306169895E0,6.872233935E-3,3.176499158E-2,-1.221730467E-2
4.308407261E0,3.054326167E-3,2.809980139E-2,-1.343903504E-2
4.310642368E0,1.985311974E-3,2.947424725E-2,-1.466076635E-2
4.312879429E0,-6.108652451E-4,2.825251780E-2,-1.588249579E-2
4.315115390E0,-6.108652451E-4,2.458732575E-2,-1.343903504E-2
4.317350132E0,-1.832595794E-3,2.458732575E-2,-1.466076635E-2
4.319588840E0,-3.054326167E-3,2.458732575E-2,-1.343903504E-2
4.321825474E0,-1.985311974E-3,2.092213556E-2,-1.343903504E-2
4.324063388E0,-5.650503561E-3,2.229658142E-2,-1.603521220E-2
4.326299900E0,-6.872233935E-3,1.985312067E-2,-1.603521220E-2
4.328535495E0,-5.650503561E-3,1.985312067E-2,-1.725694351E-2
4.330772007E0,-3.207042580E-3,2.107485011E-2,-1.588249579E-2
4.333008579E0,-5.650503561E-3,1.740965992E-2,-1.725694351E-2
4.335245151E0,-5.650503561E-3,1.740965992E-2,-1.725694351E-2
4.337481785E0,-7.024950348E-3,1.618792862E-2,-1.603521220E-2
4.339718540E0,-7.024950348E-3,1.618792862E-2,-1.603521220E-2
4.341955356E0,-5.803219974E-3,1.496619824E-2,-1.725694351E-2
4.344192478E0,-9.468411095E-3,1.634064503E-2,-1.603521220E-2
4.346428257E0,-1.069014147E-2,1.511891466E-2,-1.603521220E-2
4.348664768E0,-8.246680722E-3,1.511891466E-2,-1.603521220E-2
4.350900913E0,-8.246680722E-3,1.389718428E-2,-1.603521220E-2
4.353134738E0,-1.069014147E-2,1.389718428E-2,-1.603521220E-2
4.355362583E0,-1.069014147E-2,1.511891466E-2,-1.847867295E-2
4.357608249E0,-9.468411095E-3,1.267545391E-2,-1.847867295E-2
4.359833409E0,-1.191187184E-2,1.756237634E-2,-1.725694351E-2
4.362073826E0,-1.191187184E-2,1.634064503E-2,-1.603521220E-2
4.364306247E0,-1.191187184E-2,1.389718428E-2,-1.725694351E-2
4.366545933E0,-1.557706390E-2,1.404990070E-2,-1.603521220E-2
4.368781895E0,-1.557706390E-2,1.511891466E-2,-1.603521220E-2
4.371018589E0,-1.557706390E-2,1.404990070E-2,-1.725694351E-2
4.373255710E0,-1.557706390E-2,1.634064503E-2,-1.725694351E-2
4.375493442E0,-1.557706390E-2,1.511891466E-2,-1.725694351E-2
4.377728916E0,-1.802052557E-2,1.649336144E-2,-1.603521220E-2
4.379966526E0,-1.924225502E-2,1.649336144E-2,-1.603521220E-2
4.382202061E0,-2.168571576E-2,1.649336144E-2,-1.374446787E-2
4.384438205E0,-2.061670274E-2,1.282817032E-2,-1.252273750E-2
4.386674290E0,-2.046398632E-2,1.893682219E-2,-1.237002108E-2
4.388911411E0,-2.183843218E-2,1.404990070E-2,-1.252273750E-2
4.391148716E0,-2.672535367E-2,1.786780916E-2,-1.007927675E-2
4.393384617E0,-2.428189293E-2,1.664607786E-2,-1.007927675E-2
4.395621677E0,-2.290744707E-2,2.015855350E-2,-9.926560335E-3
4.397860507E0,-2.535090782E-2,1.908953860E-2,-8.857546374E-3
4.400098117E0,-2.412917651E-2,2.015855350E-2,-1.130100712E-2
4.402336032E0,-2.657263726E-2,2.031126991E-2,-1.130100712E-2
4.404576939E0,-2.412917651E-2,1.893682219E-2,-1.130100712E-2
4.406803501E0,-2.657263726E-2,2.153299935E-2,-8.857546374E-3
4.409040623E0,-2.779436857E-2,2.031126991E-2,-1.007927675E-2
4.411276584E0,-2.535090782E-2,2.031126991E-2,-1.130100712E-2
4.413513889E0,-2.672535367E-2,1.664607786E-2,-1.252273750E-2
4.415751194E0,-2.672535367E-2,1.298088674E-2,-1.374446787E-2
4.417986728E0,-2.428189293E-2,1.053742506E-2,-1.496619824E-2
4.420225193E0,-2.687807009E-2,9.315694682E-3,-1.374446787E-2
4.422461094E0,-2.687807009E-2,8.093964309E-3,-1.618792862E-2
4.424699986E0,-2.809980139E-2,4.581489135E-3,-1.740965992E-2
4.426947482E0,-2.947424725E-2,2.138028387E-3,-1.618792862E-2
4.429184299E0,-2.932153270E-2,2.138028387E-3,-1.740965992E-2
4.431421055E0,-2.825251780E-2,-3.054326226E-4,-1.618792862E-2
4.433655613E0,-2.825251780E-2,-3.970623948E-3,-1.863138936E-2
4.435888156E0,-2.947424725E-2,-3.970623948E-3,-2.000583708E-2
4.438115085E0,-3.084869497E-2,-8.704829961E-3,-2.122756653E-2
4.440364353E0,-3.084869497E-2,-9.926560335E-3,-2.000583708E-2
4.442601108E0,-3.084869497E-2,-1.114829071E-2,-2.000583708E-2
