"Time (s)","Acceleration x (m/s^2)","Acceleration y (m/s^2)","Acceleration z (m/s^2)"
1.419081200E-2,-9.026923180E-1,5.060819983E-1,9.720243454E0
1.638203700E-2,-8.937192559E-1,4.821537733E-1,9.706484795E0
1.857326200E-2,-8.889335990E-1,4.295116663E-1,9.668199539E0
2.076797400E-2,-8.847461939E-1,3.864408433E-1,9.658628464E0
2.295909800E-2,-8.949156404E-1,3.816552162E-1,9.682557106E0
2.515309200E-2,-9.146564603E-1,3.248256743E-1,9.677771568E0
2.738821900E-2,-9.152546525E-1,2.907279432E-1,9.706484795E0
2.961783300E-2,-9.212366939E-1,2.476571500E-1,9.763913155E0
3.185306200E-2,-9.314061999E-1,2.333002090E-1,9.806385040E0
3.408762100E-2,-9.613165259E-1,1.716850251E-1,9.839884758E0
3.632584100E-2,-9.858429432E-1,1.573280841E-1,9.891928673E0
3.856375600E-2,-9.864411354E-1,1.238285750E-1,9.934999466E0
4.079953500E-2,-9.631111026E-1,8.494520187E-2,9.930213928E0
4.303683900E-2,-9.828519225E-1,8.973085135E-2,9.978070259E0
4.527829400E-2,-9.643075466E-1,6.101697683E-2,9.987641335E0
4.750980100E-2,-9.684949517E-1,4.666004330E-2,9.944570541E0
4.974637300E-2,-9.882357717E-1,3.290131316E-2,9.954142570E0
5.198318900E-2,-9.924231768E-1,3.768695518E-2,9.930213928E0
5.422293600E-2,-9.541380405E-1,3.708875179E-2,9.892526627E0
5.647257000E-2,-9.589236975E-1,3.768695518E-2,9.863813400E0
5.870798200E-2,-9.433703423E-1,5.204389244E-2,9.811769485E0
6.094193000E-2,-9.667003751E-1,7.657032460E-2,9.772886276E0
6.316556200E-2,-9.475577474E-1,7.597211748E-2,9.730413437E0
6.541104600E-2,-9.224331379E-1,1.286142170E-1,9.677771568E0
6.765170700E-2,-9.266205430E-1,1.429711580E-1,9.640084267E0
6.989127100E-2,-9.164510965E-1,1.716850251E-1,9.616155624E0
7.212662200E-2,-9.158528447E-1,1.914258152E-1,9.587442398E0
7.436301100E-2,-8.913264275E-1,2.338984162E-1,9.597013474E0
7.659976700E-2,-9.146564603E-1,2.536391914E-1,9.568299294E0
7.883505700E-2,-9.098708034E-1,3.008974493E-1,9.597013474E0
8.107169000E-2,-9.332008362E-1,3.110669553E-1,9.596415520E0
8.330826300E-2,-9.236295223E-1,3.391826153E-1,9.605986595E0
8.554562800E-2,-9.379864931E-1,3.493520916E-1,9.639486313E0
8.778214000E-2,-9.517452121E-1,3.780659735E-1,9.639486313E0
9.001901700E-2,-9.517452121E-1,3.972085714E-1,9.662816048E0
9.225674900E-2,-9.810572863E-1,3.924229145E-1,9.681958199E0
9.449332100E-2,-9.804590940E-1,4.115654826E-1,9.701101303E0
9.672897800E-2,-9.996016622E-1,4.307080805E-1,9.719645500E0
9.896542800E-2,-1.018744230E0,4.360919297E-1,9.700503349E0
1.012017560E-1,-1.028315544E0,4.313062727E-1,9.714859962E0
1.034388170E-1,-1.057627559E0,4.223332107E-1,9.723833084E0
1.056754500E-1,-1.076770186E0,4.271188378E-1,9.733404160E0
1.079128160E-1,-1.076770186E0,4.127618968E-1,9.728618622E0
1.101503640E-1,-1.105484009E0,3.942175210E-1,9.709476471E0
1.123868760E-1,-1.110269666E0,3.894318938E-1,9.719047546E0
1.146222270E-1,-1.115055323E0,3.942175210E-1,9.699904442E0
1.168589830E-1,-1.130010486E0,3.708875179E-1,9.695118904E0
1.190953720E-1,-1.134796143E0,3.565305769E-1,9.694520950E0
1.213327380E-1,-1.134796143E0,3.565305769E-1,9.675976753E0
1.235691880E-1,-1.139581800E0,3.421736360E-1,9.708877563E0
1.258061260E-1,-1.144367456E0,3.421736360E-1,9.694520950E0
1.280438580E-1,-1.115653515E0,3.326023519E-1,9.652048111E0
1.302804310E-1,-1.110867858E0,3.086741269E-1,9.647262573E0
1.325160260E-1,-1.106680512E0,3.038884699E-1,9.680762291E0
1.347522940E-1,-1.092323542E0,2.985046208E-1,9.661619186E0
1.369888660E-1,-1.082752228E0,2.937189937E-1,9.676574707E0
1.392245220E-1,-1.058824062E0,2.883351147E-1,9.667003632E0
1.414532210E-1,-1.063609719E0,2.697907388E-1,9.662218094E0
1.436817970E-1,-1.040279627E0,2.691925466E-1,9.667003632E0
1.459255110E-1,-1.035493970E0,2.596212626E-1,9.686145782E0
1.481753890E-1,-1.006780148E0,2.638086975E-1,9.691530228E0
1.504130600E-1,-9.924231768E-1,2.638086975E-1,9.686744690E0
1.526489000E-1,-9.684949517E-1,2.344966233E-1,9.686744690E0
1.548827260E-1,-9.732806087E-1,2.488535494E-1,9.686744690E0
1.571197860E-1,-9.349954724E-1,2.530409992E-1,9.687342644E0
1.593561750E-1,-9.637092948E-1,2.392822653E-1,9.686744690E0
1.615902450E-1,-9.302098155E-1,2.434697002E-1,9.682557106E0
1.638182720E-1,-9.206385016E-1,2.530409992E-1,9.696913719E0
1.660676010E-1,-9.158528447E-1,2.530409992E-1,9.663414001E0
1.683031360E-1,-9.158528447E-1,2.578266263E-1,9.692128181E0
1.705428820E-1,-9.014959335E-1,2.572284341E-1,9.706484795E0
1.727762190E-1,-9.349954724E-1,2.578266263E-1,9.701699257E0
1.750130360E-1,-9.302098155E-1,2.578266263E-1,9.716055870E0
1.772496080E-1,-9.445667267E-1,2.673979402E-1,9.729815483E0
1.794867290E-1,-9.445667267E-1,2.769692242E-1,9.725028992E0
1.817215920E-1,-9.637092948E-1,2.913261652E-1,9.763314247E0
1.839462630E-1,-9.637092948E-1,2.961117923E-1,9.734601021E0
1.861849720E-1,-9.834501147E-1,2.679961324E-1,9.758528709E0
1.884329580E-1,-9.924231768E-1,3.062812984E-1,9.762716293E0
1.906725810E-1,-1.006780148E0,2.871387303E-1,9.748359680E0
1.929098860E-1,-1.001994491E0,2.823530734E-1,9.767501831E0
1.951437730E-1,-1.016351461E0,3.068794906E-1,9.767501831E0
1.973805890E-1,-1.050449133E0,2.877369225E-1,9.795618057E0
1.996181380E-1,-1.031306505E0,2.829512656E-1,9.777072906E0
2.018548320E-1,-1.060020447E0,2.829512656E-1,9.790832520E0
2.040902450E-1,-1.064207911E0,3.074777126E-1,9.786046028E0
2.063268780E-1,-1.059422255E0,3.026920557E-1,9.771689415E0
2.085635120E-1,-1.054636598E0,3.026920557E-1,9.762118340E0
2.108002060E-1,-1.064207911E0,3.122633696E-1,9.766903877E0
2.130369610E-1,-1.040279627E0,3.068794906E-1,9.757930756E0
2.152737780E-1,-1.064207911E0,2.883351147E-1,9.742975235E0
2.175116930E-1,-1.049850941E0,2.883351147E-1,9.719645500E0
2.197482040E-1,-1.064207911E0,2.835494876E-1,9.710074425E0
2.219838000E-1,-1.045065284E0,2.733799815E-1,9.743574142E0
2.242201280E-1,-1.049850941E0,2.644068897E-1,9.719645500E0
2.264569440E-1,-1.035493970E0,2.829512656E-1,9.734002113E0
2.286910750E-1,-1.040279627E0,2.691925466E-1,9.690931320E0
2.309188580E-1,-1.049850941E0,2.691925466E-1,9.710074425E0
2.331673930E-1,-1.040279627E0,2.644068897E-1,9.690931320E0
2.354051860E-1,-1.035493970E0,2.644068897E-1,9.695717812E0
2.376446890E-1,-1.011565804E0,2.638086975E-1,9.696315765E0
2.398774150E-1,-1.035493970E0,2.500499785E-1,9.681360245E0
2.421139270E-1,-1.040279627E0,2.452643216E-1,9.686145782E0
2.443504990E-1,-1.025922656E0,2.644068897E-1,9.677172661E0
2.465875590E-1,-1.030708313E0,2.596212626E-1,9.690931320E0
2.488241320E-1,-1.030708313E0,2.542374134E-1,9.710074425E0
2.510611920E-1,-1.030708313E0,2.404786795E-1,9.686145782E0
2.532987410E-1,-1.040279627E0,2.500499785E-1,9.695717812E0
2.555353130E-1,-1.055234790E0,2.356930375E-1,9.686145782E0
2.577708480E-1,-1.050449133E0,2.356930375E-1,9.686145782E0
2.600072370E-1,-1.059422255E0,2.452643216E-1,9.671789169E0
2.622439930E-1,-1.049850941E0,2.548356056E-1,9.690931320E0
2.644808700E-1,-1.045663476E0,2.404786795E-1,9.690931320E0
2.667176860E-1,-1.049850941E0,2.404786795E-1,9.676574707E0
2.689545640E-1,-1.049850941E0,2.548356056E-1,9.686145782E0
2.711926010E-1,-1.060020447E0,2.452643216E-1,9.700503349E0
2.734288680E-1,-1.073779106E0,2.602194548E-1,9.695717812E0
2.756615340E-1,-1.073779106E0,2.410768867E-1,9.681360245E0
2.778890120E-1,-1.073779106E0,2.458625287E-1,9.690931320E0
2.801376080E-1,-1.059422255E0,2.548356056E-1,9.690931320E0
2.823715560E-1,-1.068993568E0,2.650051117E-1,9.690931320E0
2.846017200E-1,-1.064806104E0,2.404786795E-1,9.690931320E0
2.868480570E-1,-1.064806104E0,2.356930375E-1,9.690931320E0
2.890830420E-1,-1.064806104E0,2.452643216E-1,9.705288887E0
2.913143050E-1,-1.064207911E0,2.596212626E-1,9.705288887E0
2.935580790E-1,-1.045065284E0,2.596212626E-1,9.700503349E0
2.957915390E-1,-1.049850941E0,2.739782035E-1,9.710074425E0
2.980217640E-1,-1.054636598E0,2.739782035E-1,9.724431038E0
3.002682850E-1,-1.045065284E0,2.596212626E-1,9.710074425E0
3.025020490E-1,-1.035493970E0,2.590230405E-1,9.724431038E0
3.047329450E-1,-1.030708313E0,2.685943544E-1,9.719645500E0
3.069764750E-1,-1.025922656E0,2.733799815E-1,9.710074425E0
3.092041980E-1,-1.016351461E0,2.733799815E-1,9.710074425E0
3.114545640E-1,-1.021137118E0,2.781656384E-1,9.705288887E0
3.136881460E-1,-1.025922656E0,2.733799815E-1,9.729216576E0
3.159276470E-1,-1.016351461E0,2.781656384E-1,9.734002113E0
3.181617780E-1,-9.924231768E-1,2.871387303E-1,9.729815483E0
3.203983500E-1,-9.972088337E-1,2.871387303E-1,9.739386559E0
3.226354720E-1,-9.876375198E-1,2.967100143E-1,9.758528709E0
3.248732040E-1,-9.876375198E-1,3.014956415E-1,9.734601021E0
3.271094710E-1,-1.001994491E0,2.871387303E-1,9.743574142E0
3.293448840E-1,-9.972088337E-1,2.967100143E-1,9.748359680E0
3.315773050E-1,-9.876375198E-1,2.919243574E-1,9.744172096E0
3.338009390E-1,-9.732806087E-1,2.967100143E-1,9.748957634E0
3.360553940E-1,-9.780662656E-1,2.871387303E-1,9.748957634E0
3.382919050E-1,-9.822536707E-1,3.110669553E-1,9.748957634E0
3.405332990E-1,-9.876375198E-1,3.062812984E-1,9.757930756E0
3.427665750E-1,-9.918249846E-1,3.158525825E-1,9.739386559E0
3.450033310E-1,-9.918249846E-1,3.062812984E-1,9.734601021E0
3.472387440E-1,-1.006780148E0,3.062812984E-1,9.748359680E0
3.494754380E-1,-1.006780148E0,3.062812984E-1,9.748359680E0
3.517087140E-1,-9.972088337E-1,2.919243574E-1,9.753145218E0
3.539376570E-1,-1.006181955E0,3.206382394E-1,9.748359680E0
3.561853990E-1,-1.006181955E0,3.260220885E-1,9.734002113E0
3.584226420E-1,-9.918249846E-1,3.158525825E-1,9.729815483E0
3.606631820E-1,-1.010967612E0,3.068794906E-1,9.729216576E0
3.628968860E-1,-1.020538807E0,3.260220885E-1,9.729216576E0
3.651321760E-1,-9.918249846E-1,3.062812984E-1,9.734002113E0
3.673684430E-1,-1.006181955E0,3.020938635E-1,9.719645500E0
3.696050770E-1,-1.001396298E0,3.206382394E-1,9.724431038E0
3.718424420E-1,-1.006181955E0,3.164508045E-1,9.724431038E0
3.740790760E-1,-9.870393276E-1,3.062812984E-1,9.729815483E0
3.763161970E-1,-9.966106415E-1,3.014956415E-1,9.724431038E0
3.785538680E-1,-1.001396298E0,3.212364316E-1,9.714859962E0
3.807901960E-1,-9.966106415E-1,3.206382394E-1,9.705886841E0
3.830257920E-1,-1.015753269E0,3.164508045E-1,9.738788605E0
3.852623030E-1,-1.006181955E0,3.212364316E-1,9.729216576E0
3.874989370E-1,-1.015753269E0,3.116651475E-1,9.719645500E0
3.897359970E-1,-9.966106415E-1,3.062812984E-1,9.734002113E0
3.919725080E-1,-1.010967612E0,3.116651475E-1,9.724431038E0
3.942093860E-1,-1.001396298E0,3.062812984E-1,9.734002113E0
3.964471780E-1,-9.918249846E-1,3.110669553E-1,9.720243454E0
3.986838120E-1,-1.001994491E0,2.919243574E-1,9.734002113E0
4.009196520E-1,-1.001396298E0,3.068794906E-1,9.705886841E0
4.031559800E-1,-1.006780148E0,2.877369225E-1,9.719645500E0
4.053927960E-1,-1.006181955E0,3.020938635E-1,9.696315765E0
4.076297960E-1,-1.020538807E0,2.973082066E-1,9.705288887E0
4.098663680E-1,-1.001396298E0,2.973082066E-1,9.701101303E0
4.121031230E-1,-1.010967612E0,2.925225794E-1,9.696315765E0
4.143407330E-1,-1.015753269E0,2.877369225E-1,9.700503349E0
4.165744980E-1,-1.015753269E0,3.020938635E-1,9.681958199E0
4.188008770E-1,-9.876375198E-1,2.775674164E-1,9.710672379E0
4.210492300E-1,-1.015753269E0,2.973082066E-1,9.700503349E0
4.232859850E-1,-1.010369420E0,3.260220885E-1,9.695717812E0
4.255260970E-1,-1.006181955E0,3.068794906E-1,9.691530228E0
4.277597400E-1,-1.020538807E0,2.925225794E-1,9.695717812E0
4.299968000E-1,-1.030110121E0,3.068794906E-1,9.700503349E0
4.322345320E-1,-1.034895778E0,2.931207716E-1,9.695717812E0
4.344708600E-1,-1.025324464E0,2.973082066E-1,9.705288887E0
4.367064560E-1,-1.010967612E0,3.116651475E-1,9.705288887E0
4.389429670E-1,-1.034895778E0,2.979064286E-1,9.700503349E0
4.411796010E-1,-1.020538807E0,3.068794906E-1,9.686145782E0
4.434167220E-1,-1.006181955E0,3.020938635E-1,9.701101303E0
4.456535380E-1,-1.015753269E0,3.164508045E-1,9.700503349E0
4.478905990E-1,-1.030110121E0,3.122633696E-1,9.676574707E0
4.501281480E-1,-1.025324464E0,2.829512656E-1,9.686145782E0
4.523645980E-1,-1.034895778E0,2.931207716E-1,9.690931320E0
4.545999500E-1,-1.020538807E0,2.877369225E-1,9.690931320E0
4.568335920E-1,-1.035493970E0,2.739782035E-1,9.700503349E0
4.590613150E-1,-1.040279627E0,2.739782035E-1,9.695717812E0
4.613099720E-1,-1.035493970E0,2.787638307E-1,9.690931320E0
4.635467880E-1,-1.035493970E0,2.739782035E-1,9.690931320E0
4.657867780E-1,-1.040877819E0,2.500499785E-1,9.710074425E0
4.680215190E-1,-1.025922656E0,2.542374134E-1,9.710074425E0
4.702582140E-1,-1.040877819E0,2.452643216E-1,9.710074425E0
4.724935040E-1,-1.035493970E0,2.596212626E-1,9.710074425E0
4.747299550E-1,-1.040877819E0,2.548356056E-1,9.724431038E0
4.769668930E-1,-1.026520967E0,2.255235314E-1,9.729216576E0
4.792038310E-1,-1.002592683E0,2.255235314E-1,9.739386559E0
4.814407090E-1,-1.016949654E0,2.159522474E-1,9.715457916E0
4.836776470E-1,-1.022333503E0,2.063809484E-1,9.734002113E0
4.859152570E-1,-9.882357717E-1,2.201396823E-1,9.701101303E0
4.881517680E-1,-9.882357717E-1,2.297109663E-1,9.720243454E0
4.903873030E-1,-9.984052777E-1,2.015953064E-1,9.720243454E0
4.926236310E-1,-9.690931439E-1,2.201396823E-1,9.725028992E0
4.948602650E-1,-9.505487680E-1,2.051845491E-1,9.729815483E0
4.970975080E-1,-9.744769931E-1,1.866401732E-1,9.739386559E0
4.993338360E-1,-9.505487680E-1,1.860419661E-1,9.725627899E0
5.015678450E-1,-9.553344250E-1,2.003988922E-1,9.729815483E0
5.037970320E-1,-9.511470199E-1,1.764706671E-1,9.748957634E0
5.060453840E-1,-9.607182741E-1,1.860419661E-1,9.758528709E0
5.082809800E-1,-9.457631707E-1,1.956132501E-1,9.758528709E0
5.105172470E-1,-9.074779749E-1,1.950150430E-1,9.754341125E0
5.127423450E-1,-9.367900491E-1,1.812563092E-1,9.763913155E0
5.149911850E-1,-9.170492887E-1,1.854437590E-1,9.739984512E0
5.172279400E-1,-9.074779749E-1,2.141576260E-1,9.749555588E0
5.194674420E-1,-9.266205430E-1,2.045863420E-1,9.768698692E0
5.216993750E-1,-9.026923180E-1,1.998006850E-1,9.763913155E0
5.239270980E-1,-9.074779749E-1,2.045863420E-1,9.754341125E0
5.261747180E-1,-8.883354068E-1,2.087737769E-1,9.778269768E0
5.284117170E-1,-8.931210637E-1,2.093719840E-1,9.763913155E0
5.306502420E-1,-9.074779749E-1,1.998006850E-1,9.763913155E0
5.328844340E-1,-9.212366939E-1,2.333002090E-1,9.754341125E0
5.351210680E-1,-9.266205430E-1,2.285145670E-1,9.759127617E0
5.373583720E-1,-8.931210637E-1,2.237289101E-1,9.763913155E0
5.395959210E-1,-9.020941257E-1,2.333002090E-1,9.744770050E0
5.418324330E-1,-9.068797827E-1,2.285145670E-1,9.754341125E0
5.440680280E-1,-9.068797827E-1,2.524427772E-1,9.749555588E0
5.463045400E-1,-9.260223508E-1,2.620140910E-1,9.763913155E0
5.485408680E-1,-9.062815905E-1,2.620140910E-1,9.744770050E0
5.507779890E-1,-9.068797827E-1,2.428714931E-1,9.768698692E0
5.530148060E-1,-9.308080077E-1,2.578266263E-1,9.739984512E0
5.552519270E-1,-9.445667267E-1,2.913261652E-1,9.725028992E0
5.574894760E-1,-9.349954724E-1,2.913261652E-1,9.748957634E0
5.597259870E-1,-9.445667267E-1,3.008974493E-1,9.763314247E0
5.619615220E-1,-9.684949517E-1,3.008974493E-1,9.763314247E0
5.641979110E-1,-9.541380405E-1,3.104687333E-1,9.763314247E0
5.664346670E-1,-9.780662656E-1,3.206382394E-1,9.772886276E0
5.686715440E-1,-9.918249846E-1,3.206382394E-1,9.757930756E0
5.709084210E-1,-9.870393276E-1,3.302095234E-1,9.762716293E0
5.731454210E-1,-9.918249846E-1,3.302095234E-1,9.753145218E0
5.753830300E-1,-1.001396298E0,3.445664644E-1,9.743574142E0
5.776194810E-1,-1.010967612E0,3.493520916E-1,9.748359680E0
5.798548320E-1,-1.019940615E0,3.547359705E-1,9.729216576E0
5.820914050E-1,-1.029511929E0,3.499503136E-1,9.719645500E0
5.843280380E-1,-1.034297585E0,3.451646566E-1,9.714859962E0
5.865654040E-1,-1.043868899E0,3.649054468E-1,9.705288887E0
5.888019150E-1,-1.072582722E0,3.649054468E-1,9.695118904E0
5.910388530E-1,-1.082154036E0,3.702892959E-1,9.695118904E0
5.932767680E-1,-1.091725349E0,3.511467278E-1,9.695118904E0
5.955130970E-1,-1.095912814E0,3.655036688E-1,9.680762291E0
5.977486920E-1,-1.110867858E0,3.661018610E-1,9.680762291E0
5.999848990E-1,-1.100698471E0,3.655036688E-1,9.675976753E0
6.022215930E-1,-1.130010486E0,3.565305769E-1,9.666405678E0
6.044588970E-1,-1.130010486E0,3.613162339E-1,9.671191216E0
6.066929060E-1,-1.149153113E0,3.571287692E-1,9.680164337E0
6.089220930E-1,-1.125224829E0,3.469592929E-1,9.666405678E0
6.111700790E-1,-1.139581800E0,3.517449200E-1,9.666405678E0
6.134067120E-1,-1.138983607E0,3.619144261E-1,9.647262573E0
6.156437120E-1,-1.143769264E0,3.523431420E-1,9.647262573E0
6.178732040E-1,-1.134796143E0,3.517449200E-1,9.656833649E0
6.201153920E-1,-1.130010486E0,3.421736360E-1,9.647262573E0
6.223501940E-1,-1.139581800E0,3.373879790E-1,9.661619186E0
6.245816390E-1,-1.138983607E0,3.523431420E-1,9.647262573E0
6.268261460E-1,-1.158126116E0,3.475574851E-1,9.641879082E0
6.290638780E-1,-1.153938770E0,3.427718580E-1,9.647262573E0
6.313024030E-1,-1.153938770E0,3.427718580E-1,9.651450157E0
6.335358020E-1,-1.149153113E0,3.284149170E-1,9.632905960E0
6.357677960E-1,-1.149153113E0,3.236292601E-1,9.642477036E0
6.379879500E-1,-1.144367456E0,3.332005441E-1,9.652048111E0
6.402314190E-1,-1.139581800E0,3.284149170E-1,9.656833649E0
6.424681130E-1,-1.144367456E0,3.332005441E-1,9.671191216E0
6.447121940E-1,-1.144965649E0,3.188436031E-1,9.675976753E0
6.469601180E-1,-1.134796143E0,3.182454109E-1,9.661619186E0
6.491920520E-1,-1.140179992E0,3.182454109E-1,9.680762291E0
6.514140370E-1,-1.121037364E0,3.182454109E-1,9.690333366E0
6.536659290E-1,-1.121037364E0,2.943171859E-1,9.690333366E0
6.559025010E-1,-1.106680512E0,3.176472187E-1,9.695118904E0
6.581442000E-1,-1.097109199E0,3.128615618E-1,9.671191216E0
6.603763780E-1,-1.097109199E0,3.128615618E-1,9.704689980E0
6.626102640E-1,-1.087537885E0,3.032902777E-1,9.699904442E0
6.648390850E-1,-1.111466169E0,3.128615618E-1,9.714262009E0
6.670874980E-1,-1.088136077E0,2.985046208E-1,9.719047546E0
6.693229110E-1,-1.078564763E0,2.889333367E-1,9.709476471E0
6.715594220E-1,-1.088136077E0,2.841476798E-1,9.709476471E0
6.737840320E-1,-1.083350420E0,2.745763958E-1,9.733404160E0
6.760331160E-1,-1.068993568E0,2.835494876E-1,9.719645500E0
6.782712140E-1,-1.059422255E0,2.596212626E-1,9.714859962E0
6.805159040E-1,-1.060020447E0,2.452643216E-1,9.710074425E0
6.827446030E-1,-1.064806104E0,2.548356056E-1,9.733404160E0
6.849810530E-1,-1.045663476E0,2.452643216E-1,9.729216576E0
6.872147570E-1,-1.045663476E0,2.452643216E-1,9.724431038E0
6.894532210E-1,-1.021735311E0,2.542374134E-1,9.743574142E0
6.916868630E-1,-1.012163997E0,2.446661144E-1,9.748359680E0
6.939159900E-1,-1.022333503E0,2.303091735E-1,9.753145218E0
6.961631820E-1,-1.012762189E0,2.159522474E-1,9.738788605E0
6.984003030E-1,-1.012762189E0,2.255235314E-1,9.743574142E0
7.006405380E-1,-1.007976532E0,2.207378894E-1,9.753145218E0
7.028744860E-1,-9.984052777E-1,2.105683982E-1,9.748957634E0
7.051102650E-1,-1.012762189E0,2.111666054E-1,9.738788605E0
7.073465930E-1,-9.846464992E-1,1.914258152E-1,9.758528709E0
7.095832260E-1,-9.936196208E-1,2.009970993E-1,9.748957634E0
7.118204090E-1,-9.888339639E-1,2.201396823E-1,9.758528709E0
7.140567980E-1,-9.744769931E-1,2.057827413E-1,9.758528709E0
7.162952620E-1,-9.744769931E-1,2.153540403E-1,9.763314247E0
7.185370220E-1,-9.696913958E-1,2.249253243E-1,9.753743172E0
7.207682240E-1,-9.553344250E-1,2.099701911E-1,9.758528709E0
7.230035750E-1,-9.601200819E-1,2.195414752E-1,9.753743172E0
7.252387440E-1,-9.409775138E-1,2.099701911E-1,9.753743172E0
7.274766590E-1,-9.601200819E-1,2.009970993E-1,9.729815483E0
7.297138410E-1,-9.601200819E-1,2.147558331E-1,9.744172096E0
7.319505970E-1,-9.601200819E-1,1.956132501E-1,9.744172096E0
7.341874740E-1,-9.601200819E-1,2.051845491E-1,9.748957634E0
7.364252060E-1,-9.499505758E-1,2.243271172E-1,9.739386559E0
7.386615340E-1,-9.595218897E-1,2.153540403E-1,9.720243454E0
7.408973740E-1,-9.595218897E-1,2.291127741E-1,9.744172096E0
7.431337020E-1,-9.786644578E-1,2.344966233E-1,9.758528709E0
7.453705800E-1,-9.690931439E-1,2.440679073E-1,9.748957634E0
7.476075180E-1,-9.595218897E-1,2.626122832E-1,9.748957634E0
7.498439680E-1,-9.738788009E-1,2.536391914E-1,9.739386559E0
7.520812120E-1,-9.684949517E-1,2.721835673E-1,9.753743172E0
7.543187610E-1,-9.876375198E-1,2.823530734E-1,9.758528709E0
7.565546620E-1,-9.924231768E-1,2.727817893E-1,9.739386559E0
7.587870220E-1,-9.876375198E-1,2.919243574E-1,9.744172096E0
7.610235950E-1,-1.021137118E0,2.829512656E-1,9.767501831E0
7.632640120E-1,-1.001994491E0,2.823530734E-1,9.757930756E0
7.655016830E-1,-9.972088337E-1,2.967100143E-1,9.739386559E0
7.677389260E-1,-1.006780148E0,3.020938635E-1,9.738788605E0
7.699747050E-1,-1.021137118E0,3.068794906E-1,9.753145218E0
7.722120710E-1,-1.025922656E0,3.020938635E-1,9.738788605E0
7.744485210E-1,-1.030110121E0,3.068794906E-1,9.729216576E0
7.766841780E-1,-1.058824062E0,3.218346536E-1,9.728618622E0
7.789208730E-1,-1.058824062E0,3.266202807E-1,9.719645500E0
7.811576890E-1,-1.054038405E0,3.074777126E-1,9.714859962E0
7.833948100E-1,-1.063609719E0,3.218346536E-1,9.719047546E0
7.856315660E-1,-1.063609719E0,3.170489967E-1,9.710074425E0
7.878683210E-1,-1.063609719E0,3.122633696E-1,9.723833084E0
7.901058700E-1,-1.077966571E0,3.266202807E-1,9.714262009E0
7.923423810E-1,-1.082752228E0,3.367897868E-1,9.723833084E0
7.945779770E-1,-1.087537885E0,3.176472187E-1,9.719047546E0
7.968143050E-1,-1.092323542E0,3.272185028E-1,9.699904442E0
7.990508170E-1,-1.101894855E0,3.320041299E-1,9.709476471E0
8.012877550E-1,-1.106680512E0,3.367897868E-1,9.704689980E0
8.035248760E-1,-1.106082320E0,3.415754437E-1,9.690333366E0
8.057620590E-1,-1.116251707E0,3.278166950E-1,9.695118904E0
8.080000350E-1,-1.101894855E0,3.224328458E-1,9.695118904E0
8.102359970E-1,-1.125823021E0,3.278166950E-1,9.699904442E0
8.124715320E-1,-1.096511006E0,3.272185028E-1,9.685547829E0
8.147077380E-1,-1.106082320E0,3.421736360E-1,9.675976753E0
8.169444320E-1,-1.082752228E0,3.080759048E-1,9.667003632E0
8.191815540E-1,-1.096511006E0,3.176472187E-1,9.666405678E0
8.214184310E-1,-1.096511006E0,3.128615618E-1,9.656833649E0
8.236555520E-1,-1.086939692E0,3.128615618E-1,9.652647018E0
8.258912090E-1,-1.077368379E0,3.224328458E-1,9.657432556E0
8.281211900E-1,-1.091725349E0,3.176472187E-1,9.671191216E0
8.303649030E-1,-1.082154036E0,3.224328458E-1,9.667003632E0
8.326015980E-1,-1.087537885E0,3.032902777E-1,9.652647018E0
8.348401230E-1,-1.087537885E0,3.080759048E-1,9.662218094E0
8.370754130E-1,-1.092323542E0,3.032902777E-1,9.685547829E0
8.393119250E-1,-1.082154036E0,3.176472187E-1,9.662218094E0
8.415479470E-1,-1.058824062E0,3.122633696E-1,9.695717812E0
8.437821390E-1,-1.077966571E0,3.032902777E-1,9.685547829E0
8.460231670E-1,-1.068395257E0,3.128615618E-1,9.676574707E0
8.482589460E-1,-1.054038405E0,2.979064286E-1,9.690931320E0
8.504963730E-1,-1.063609719E0,3.074777126E-1,9.705288887E0
8.527318470E-1,-1.049252748E0,3.026920557E-1,9.714859962E0
8.549688460E-1,-1.040279627E0,2.883351147E-1,9.705288887E0
8.572054790E-1,-1.049850941E0,2.787638307E-1,9.705288887E0
8.594425400E-1,-1.045065284E0,2.883351147E-1,9.710074425E0
8.616770980E-1,-1.030110121E0,3.020938635E-1,9.710074425E0
8.639046370E-1,-1.045065284E0,2.883351147E-1,9.700503349E0
8.661519520E-1,-1.025922656E0,2.685943544E-1,9.734002113E0
8.683885850E-1,-1.006780148E0,2.781656384E-1,9.729216576E0
8.706283920E-1,-1.021137118E0,2.733799815E-1,9.743574142E0
8.728625230E-1,-9.978070259E-1,2.632105052E-1,9.743574142E0
8.750990950E-1,-9.930213690E-1,2.584248483E-1,9.739386559E0
8.773361550E-1,-9.882357717E-1,2.488535494E-1,9.744172096E0
8.795739480E-1,-9.834501147E-1,2.679961324E-1,9.744172096E0
8.818104600E-1,-9.834501147E-1,2.536391914E-1,9.744172096E0
8.840458110E-1,-9.595218897E-1,2.578266263E-1,9.748957634E0
8.862823230E-1,-9.547362328E-1,2.434697002E-1,9.744172096E0
8.885188950E-1,-9.547362328E-1,2.386840582E-1,9.758528709E0
8.907559560E-1,-9.403793216E-1,2.386840582E-1,9.758528709E0
8.929923450E-1,-9.499505758E-1,2.482553422E-1,9.768099785E0
8.952297100E-1,-9.505487680E-1,2.291127741E-1,9.758528709E0
8.974674420E-1,-9.403793216E-1,2.578266263E-1,9.758528709E0
8.997037700E-1,-9.116654396E-1,2.333002090E-1,9.763913155E0
9.019391220E-1,-9.074779749E-1,2.237289101E-1,9.754341125E0
9.041758780E-1,-8.883354068E-1,2.039881349E-1,9.754341125E0
9.064114120E-1,-8.739784956E-1,2.135594189E-1,9.754341125E0
9.086452380E-1,-8.500502706E-1,1.890329868E-1,9.759725571E0
9.108862040E-1,-8.691928387E-1,1.944168359E-1,9.750154495E0
9.131234480E-1,-8.691928387E-1,2.087737769E-1,9.759127617E0
9.153618520E-1,-8.787640929E-1,2.087737769E-1,9.778269768E0
9.175973250E-1,-8.835497499E-1,2.039881349E-1,9.768698692E0
9.198329210E-1,-8.931210637E-1,2.183450609E-1,9.768698692E0
9.220697370E-1,-8.931210637E-1,2.039881349E-1,9.783055305E0
9.243060650E-1,-9.026923180E-1,2.093719840E-1,9.768698692E0
9.265431260E-1,-9.074779749E-1,2.141576260E-1,9.792626381E0
9.287796980E-1,-9.212366939E-1,2.380858511E-1,9.773484230E0
9.310170640E-1,-9.409775138E-1,2.386840582E-1,9.777671814E0
9.332546130E-1,-9.403793216E-1,2.578266263E-1,9.744172096E0
9.354911240E-1,-9.403793216E-1,2.338984162E-1,9.758528709E0
9.377264140E-1,-9.649057388E-1,2.291127741E-1,9.753743172E0
9.399629870E-1,-9.738788009E-1,2.482553422E-1,9.768099785E0
9.421995590E-1,-9.882357717E-1,2.679961324E-1,9.753145218E0
9.444367420E-1,-9.978070259E-1,2.632105052E-1,9.738788605E0
9.466739850E-1,-1.001994491E0,2.775674164E-1,9.757930756E0
9.489093360E-1,-1.016351461E0,2.973082066E-1,9.757930756E0
9.511362040E-1,-1.030708313E0,2.973082066E-1,9.738788605E0
9.533846790E-1,-1.044467092E0,3.212364316E-1,9.738788605E0
9.556166730E-1,-1.049252748E0,3.170489967E-1,9.743574142E0
9.578470810E-1,-1.054038405E0,3.074777126E-1,9.724431038E0
9.600931140E-1,-1.063609719E0,3.266202807E-1,9.719047546E0
9.623301740E-1,-1.072582722E0,3.272185028E-1,9.690931320E0
9.645699210E-1,-1.077966571E0,3.224328458E-1,9.709476471E0
9.668039290E-1,-1.082154036E0,3.272185028E-1,9.690333366E0
9.690417220E-1,-1.077368379E0,3.463610709E-1,9.695118904E0
9.712782330E-1,-1.067797065E0,3.457628787E-1,9.690333366E0
9.735136460E-1,-1.091725349E0,3.511467278E-1,9.656833649E0
9.757504620E-1,-1.082154036E0,3.607180119E-1,9.680762291E0
9.779872180E-1,-1.076770186E0,3.655036688E-1,9.652647018E0
9.802240950E-1,-1.101296663E0,3.469592929E-1,9.652048111E0
9.824575540E-1,-1.086939692E0,3.511467278E-1,9.666405678E0
9.846853990E-1,-1.082154036E0,3.415754437E-1,9.647860527E0
9.869352160E-1,-1.095912814E0,3.511467278E-1,9.652048111E0
9.891717880E-1,-1.091127157E0,3.702892959E-1,9.632905960E0
9.914073840E-1,-1.095912814E0,3.613162339E-1,9.637691498E0
9.936320540E-1,-1.091127157E0,3.421736360E-1,9.619147301E0
9.958816880E-1,-1.077368379E0,3.272185028E-1,9.619147301E0
9.981173450E-1,-1.039083242E0,2.931207716E-1,9.619147301E0
1.000357213E0,-1.030110121E0,2.739782035E-1,9.624530792E0
1.002587925E0,-9.870393276E-1,2.685943544E-1,9.643673897E0
1.004816868E0,-9.726824164E-1,2.733799815E-1,9.629914284E0
1.007065282E0,-9.822536707E-1,2.877369225E-1,9.638887405E0
1.009297764E0,-9.870393276E-1,2.877369225E-1,9.667601585E0
1.011530797E0,-9.966106415E-1,2.877369225E-1,9.658030510E0
1.013782140E0,-1.001396298E0,2.829512656E-1,9.648459435E0
1.016011204E0,-1.010967612E0,2.685943544E-1,9.662816048E0
1.018250646E0,-1.006181955E0,2.781656384E-1,9.677172661E0
1.020482762E0,-1.001396298E0,2.829512656E-1,9.677172661E0
1.022722325E0,-1.030110121E0,2.877369225E-1,9.695717812E0
1.024958897E0,-1.045065284E0,2.739782035E-1,9.714859962E0
1.027194493E0,-1.040279627E0,2.739782035E-1,9.710074425E0
1.029431065E0,-1.049850941E0,2.691925466E-1,9.724431038E0
1.031664586E0,-1.059422255E0,2.691925466E-1,9.714859962E0
1.033892491E0,-1.059422255E0,2.787638307E-1,9.752547264E0
1.036141270E0,-1.064207911E0,2.979064286E-1,9.771689415E0
1.038378392E0,-1.025922656E0,2.973082066E-1,9.786644936E0
1.040619176E0,-1.035493970E0,3.212364316E-1,9.790832520E0
1.042852452E0,-1.006780148E0,3.014956415E-1,9.801001549E0
1.045088048E0,-1.035493970E0,3.068794906E-1,9.805189133E0
1.047324559E0,-1.021137118E0,3.110669553E-1,9.815358162E0
1.049561192E0,-1.006780148E0,3.110669553E-1,9.815358162E0
1.051798253E0,-9.972088337E-1,3.200400174E-1,9.834501266E0
1.054034764E0,-1.016949654E0,3.062812984E-1,9.834501266E0
1.056271641E0,-1.021137118E0,3.110669553E-1,9.820143700E0
1.058509434E0,-1.011565804E0,3.206382394E-1,9.805787086E0
1.060746007E0,-1.011565804E0,3.397808075E-1,9.829116821E0
1.062981602E0,-1.016351461E0,3.445664644E-1,9.805787086E0
1.065217931E0,-1.010967612E0,3.589234054E-1,9.805787086E0
1.067454747E0,-1.010967612E0,3.493520916E-1,9.796216011E0
1.069691808E0,-1.020538807E0,3.493520916E-1,9.796216011E0
1.071927831E0,-1.015753269E0,3.493520916E-1,9.786644936E0
1.074160069E0,-1.024726272E0,3.738785386E-1,9.767501831E0
1.076391270E0,-1.034297585E0,3.690928817E-1,9.762118340E0
1.078639500E0,-1.039083242E0,3.595215976E-1,9.729216576E0
1.080875462E0,-1.039083242E0,3.595215976E-1,9.729216576E0
1.083114476E0,-1.053440213E0,3.505485058E-1,9.710074425E0
1.085348607E0,-1.052842021E0,3.792623878E-1,9.705288887E0
1.087585789E0,-1.052842021E0,3.649054468E-1,9.671789169E0
1.089822545E0,-1.052842021E0,3.601198196E-1,9.667003632E0
1.092059239E0,-1.048056364E0,3.649054468E-1,9.638289452E0
1.094296788E0,-1.048056364E0,3.696911037E-1,9.638289452E0
1.096533238E0,-1.048056364E0,3.553341627E-1,9.647860527E0
1.098768651E0,-1.062413216E0,3.511467278E-1,9.623932838E0
1.101005223E0,-1.057627559E0,3.559323549E-1,9.609575272E0
1.103241795E0,-1.062413216E0,3.272185028E-1,9.609575272E0
1.105478917E0,-1.081555843E0,3.272185028E-1,9.609575272E0
1.107715489E0,-1.077368379E0,3.272185028E-1,9.633503914E0
1.109952611E0,-1.072582722E0,2.985046208E-1,9.604789734E0
1.112190343E0,-1.077368379E0,2.937189937E-1,9.609575272E0
1.114423802E0,-1.092323542E0,2.985046208E-1,9.638289452E0
1.116650792E0,-1.073180914E0,2.793620527E-1,9.628718376E0
1.118898778E0,-1.077966571E0,2.889333367E-1,9.619147301E0
1.121135411E0,-1.073180914E0,2.793620527E-1,9.643074989E0
1.123372350E0,-1.073180914E0,2.841476798E-1,9.619147301E0
1.125597142E0,-1.092323542E0,2.841476798E-1,9.661619186E0
1.127846409E0,-1.101894855E0,2.751746178E-1,9.652048111E0
1.130083958E0,-1.078564763E0,2.697907388E-1,9.662218094E0
1.132323522E0,-1.088136077E0,2.506481707E-1,9.652647018E0
1.134556065E0,-1.083350420E0,2.602194548E-1,9.662218094E0
1.136789708E0,-1.073779106E0,2.602194548E-1,9.657432556E0
1.139014500E0,-1.068395257E0,2.889333367E-1,9.676574707E0
1.141252355E0,-1.068395257E0,2.889333367E-1,9.681360245E0
1.143493077E0,-1.063609719E0,2.835494876E-1,9.681360245E0
1.145727818E0,-1.054636598E0,2.739782035E-1,9.681360245E0
1.147962559E0,-1.049850941E0,2.883351147E-1,9.714859962E0
1.150200047E0,-1.049850941E0,2.835494876E-1,9.714859962E0
1.152438633E0,-1.035493970E0,2.973082066E-1,9.734002113E0
1.154675450E0,-1.021137118E0,2.877369225E-1,9.734002113E0
1.156911046E0,-1.001994491E0,2.871387303E-1,9.743574142E0
1.159148106E0,-1.016351461E0,3.020938635E-1,9.753145218E0
1.161384679E0,-1.011565804E0,2.919243574E-1,9.772287369E0
1.163622044E0,-9.972088337E-1,2.919243574E-1,9.767501831E0
1.165860570E0,-1.001994491E0,2.871387303E-1,9.777072906E0
1.168099095E0,-9.786644578E-1,2.769692242E-1,9.787242889E0
1.170346349E0,-9.882357717E-1,2.632105052E-1,9.786644936E0
1.172582371E0,-9.690931439E-1,2.578266263E-1,9.782457352E0
1.174819188E0,-9.738788009E-1,2.673979402E-1,9.777671814E0
1.177053258E0,-9.547362328E-1,2.530409992E-1,9.792028427E0
1.179289769E0,-9.409775138E-1,2.428714931E-1,9.801599503E0
1.181528722E0,-9.547362328E-1,2.434697002E-1,9.768099785E0
1.183770421E0,-9.457631707E-1,2.147558331E-1,9.772886276E0
1.186001134E0,-9.409775138E-1,2.099701911E-1,9.758528709E0
1.188236363E0,-9.409775138E-1,2.051845491E-1,9.782457352E0
1.190471593E0,-9.415757060E-1,1.908276081E-1,9.782457352E0
1.192709874E0,-9.409775138E-1,1.956132501E-1,9.758528709E0
1.194946934E0,-9.272187948E-1,1.806581169E-1,9.783055305E0
1.197183263E0,-9.367900491E-1,1.950150430E-1,9.792028427E0
1.199420323E0,-9.511470199E-1,1.860419661E-1,9.787242889E0
1.201655309E0,-9.320043921E-1,1.812563092E-1,9.768698692E0
1.203883519E0,-9.320043921E-1,1.710868180E-1,9.796813965E0
1.206130345E0,-9.607182741E-1,1.668993831E-1,9.792028427E0
1.208366856E0,-9.607182741E-1,1.764706671E-1,9.763314247E0
1.210606236E0,-9.798609018E-1,1.722832322E-1,9.763314247E0
1.212840489E0,-9.607182741E-1,1.764706671E-1,9.768099785E0
1.215077061E0,-9.750752449E-1,1.866401732E-1,9.758528709E0
1.217314183E0,-9.702895880E-1,1.770688742E-1,9.758528709E0
1.219551915E0,-9.607182741E-1,1.812563092E-1,9.753743172E0
1.221785374E0,-9.744769931E-1,1.866401732E-1,9.734601021E0
1.224009373E0,-9.846464992E-1,1.818545163E-1,9.753743172E0
1.226248387E0,-9.936196208E-1,2.057827413E-1,9.744172096E0
1.228497044E0,-1.017547846E0,2.063809484E-1,9.720243454E0
1.230737157E0,-9.930213690E-1,2.201396823E-1,9.729815483E0
1.232973607E0,-1.012163997E0,2.255235314E-1,9.738788605E0
1.235207677E0,-1.012163997E0,2.255235314E-1,9.729216576E0
1.237445225E0,-1.036092162E0,2.350948304E-1,9.738788605E0
1.239682103E0,-1.036092162E0,2.452643216E-1,9.710074425E0
1.241917577E0,-1.036092162E0,2.356930375E-1,9.705288887E0
1.244153844E0,-1.030708313E0,2.638086975E-1,9.719645500E0
1.246391026E0,-1.040279627E0,2.644068897E-1,9.724431038E0
1.248627782E0,-1.030708313E0,2.733799815E-1,9.705288887E0
1.250864232E0,-1.025922656E0,2.733799815E-1,9.690931320E0
1.253101170E0,-1.049252748E0,3.026920557E-1,9.700503349E0
1.255339024E0,-1.044467092E0,3.026920557E-1,9.690931320E0
1.257575597E0,-1.034895778E0,3.170489967E-1,9.700503349E0
1.259810948E0,-1.044467092E0,3.170489967E-1,9.705288887E0
1.262047460E0,-1.039681435E0,3.170489967E-1,9.690931320E0
1.264284032E0,-1.049252748E0,3.122633696E-1,9.676574707E0
1.266521153E0,-1.029511929E0,3.266202807E-1,9.662218094E0
1.268757786E0,-1.039083242E0,3.122633696E-1,9.667003632E0
1.270995091E0,-1.034297585E0,3.361915946E-1,9.667003632E0
1.273232640E0,-1.043868899E0,3.457628787E-1,9.676574707E0
1.275469212E0,-1.044467092E0,3.266202807E-1,9.695717812E0
1.277704686E0,-1.039083242E0,3.409772217E-1,9.681360245E0
1.279941014E0,-1.029511929E0,3.218346536E-1,9.681360245E0
1.282177587E0,-1.034895778E0,3.260220885E-1,9.700503349E0
1.284414708E0,-1.020538807E0,3.116651475E-1,9.705288887E0
1.286651585E0,-1.029511929E0,3.457628787E-1,9.671789169E0
1.288888707E0,-1.029511929E0,3.308077157E-1,9.690931320E0
1.291126378E0,-1.044467092E0,3.026920557E-1,9.681360245E0
1.293362462E0,-1.039083242E0,3.314059377E-1,9.686145782E0
1.295598241E0,-1.054038405E0,3.074777126E-1,9.700503349E0
1.297834508E0,-1.034895778E0,3.122633696E-1,9.686145782E0
1.300071263E0,-1.034895778E0,3.020938635E-1,9.710074425E0
1.302308446E0,-1.049252748E0,3.074777126E-1,9.686145782E0
1.304544835E0,-1.044467092E0,3.170489967E-1,9.695717812E0
1.306781956E0,-1.020538807E0,3.164508045E-1,9.686145782E0
1.309016697E0,-1.044467092E0,3.074777126E-1,9.695717812E0
1.311241307E0,-1.034895778E0,3.068794906E-1,9.710074425E0
1.313479710E0,-1.025324464E0,3.020938635E-1,9.695717812E0
1.315728429E0,-1.025324464E0,3.020938635E-1,9.695717812E0
1.317967991E0,-1.045065284E0,2.931207716E-1,9.714859962E0
1.320205052E0,-1.025324464E0,3.020938635E-1,9.719645500E0
1.322435460E0,-1.030110121E0,3.212364316E-1,9.710074425E0
1.324663975E0,-1.030110121E0,3.164508045E-1,9.700503349E0
1.326913243E0,-1.015753269E0,3.164508045E-1,9.700503349E0
1.329149876E0,-1.025324464E0,3.068794906E-1,9.714859962E0
1.331388341E0,-1.034895778E0,3.116651475E-1,9.724431038E0
1.333621983E0,-1.015753269E0,3.068794906E-1,9.724431038E0
1.335858495E0,-1.020538807E0,3.164508045E-1,9.714859962E0
1.338095372E0,-1.015753269E0,3.355933726E-1,9.734002113E0
1.340332188E0,-1.020538807E0,3.212364316E-1,9.743574142E0
1.342566319E0,-1.010967612E0,3.260220885E-1,9.743574142E0
1.344795140E0,-1.010967612E0,3.308077157E-1,9.738788605E0
1.347043370E0,-1.020538807E0,3.355933726E-1,9.729216576E0
1.349278905E0,-1.010967612E0,3.445664644E-1,9.753145218E0
1.351518162E0,-1.015753269E0,3.308077157E-1,9.734002113E0
1.353751866E0,-1.011565804E0,3.116651475E-1,9.748359680E0
1.355989171E0,-1.006181955E0,3.254238665E-1,9.757930756E0
1.358225804E0,-9.918249846E-1,3.397808075E-1,9.729216576E0
1.360462986E0,-1.001396298E0,3.302095234E-1,9.724431038E0
1.362700841E0,-1.001396298E0,3.349951804E-1,9.719645500E0
1.364936925E0,-1.015753269E0,3.308077157E-1,9.738788605E0
1.367172520E0,-1.010967612E0,3.116651475E-1,9.729216576E0
1.369408971E0,-1.006181955E0,3.302095234E-1,9.734002113E0
1.371642674E0,-1.006181955E0,3.212364316E-1,9.695717812E0
1.373870763E0,-1.010967612E0,3.308077157E-1,9.719645500E0
1.376119298E0,-1.010967612E0,3.308077157E-1,9.719645500E0
1.378356358E0,-1.010967612E0,3.116651475E-1,9.724431038E0
1.380596959E0,-1.020538807E0,3.116651475E-1,9.710074425E0
1.382830785E0,-1.010369420E0,3.260220885E-1,9.690931320E0
1.385066319E0,-1.006181955E0,3.164508045E-1,9.705288887E0
1.387300939E0,-1.025324464E0,3.020938635E-1,9.714859962E0
1.389532262E0,-1.044467092E0,3.074777126E-1,9.710074425E0
1.391773106E0,-1.019940615E0,3.260220885E-1,9.686145782E0
1.394001378E0,-1.044467092E0,2.979064286E-1,9.690931320E0
1.396251683E0,-1.034895778E0,2.979064286E-1,9.681360245E0
1.398487828E0,-1.030110121E0,3.020938635E-1,9.695717812E0
1.400727147E0,-1.039681435E0,3.074777126E-1,9.690931320E0
1.402959630E0,-1.034895778E0,3.074777126E-1,9.705288887E0
1.405196141E0,-1.044467092E0,3.026920557E-1,9.671789169E0
1.407432774E0,-1.044467092E0,3.074777126E-1,9.671789169E0
1.409670079E0,-1.049252748E0,3.074777126E-1,9.686145782E0
1.411906407E0,-1.054038405E0,2.979064286E-1,9.676574707E0
1.414143529E0,-1.058824062E0,2.835494876E-1,9.662218094E0
1.416381261E0,-1.063609719E0,2.883351147E-1,9.690931320E0
1.418617894E0,-1.048654556E0,3.122633696E-1,9.667003632E0
1.420853490E0,-1.053440213E0,3.218346536E-1,9.676574707E0
1.423090001E0,-1.044467092E0,3.122633696E-1,9.700503349E0
1.425326512E0,-1.058824062E0,2.931207716E-1,9.695717812E0
1.427563390E0,-1.068395257E0,2.985046208E-1,9.676574707E0
1.429796849E0,-1.054038405E0,2.883351147E-1,9.676574707E0
1.432023900E0,-1.054038405E0,2.835494876E-1,9.667003632E0
1.434275120E0,-1.058824062E0,2.883351147E-1,9.681360245E0
1.436511449E0,-1.058824062E0,3.026920557E-1,9.710074425E0
1.438750584E0,-1.054636598E0,2.931207716E-1,9.710074425E0
1.440983434E0,-1.054038405E0,2.931207716E-1,9.681360245E0
1.443219884E0,-1.058824062E0,3.026920557E-1,9.710074425E0
1.445457066E0,-1.059422255E0,2.979064286E-1,9.719645500E0
1.447693517E0,-1.073779106E0,2.787638307E-1,9.714262009E0
1.449930882E0,-1.049252748E0,2.931207716E-1,9.700503349E0
1.452168370E0,-1.073779106E0,2.931207716E-1,9.728618622E0
1.454405003E0,-1.049850941E0,2.835494876E-1,9.714859962E0
1.456640477E0,-1.040279627E0,2.787638307E-1,9.719645500E0
1.458876866E0,-1.059422255E0,2.739782035E-1,9.733404160E0
1.461113683E0,-1.040279627E0,2.829512656E-1,9.724431038E0
1.463350743E0,-1.040279627E0,2.733799815E-1,9.729216576E0
1.465587437E0,-1.045663476E0,2.638086975E-1,9.738788605E0
1.467824681E0,-1.040279627E0,2.685943544E-1,9.729216576E0
1.470062169E0,-1.045065284E0,2.733799815E-1,9.743574142E0
1.472298497E0,-1.025922656E0,2.733799815E-1,9.738788605E0
1.474530370E0,-1.035493970E0,2.733799815E-1,9.743574142E0
1.476756017E0,-1.055234790E0,2.596212626E-1,9.757332802E0
1.479007481E0,-1.050449133E0,2.548356056E-1,9.748359680E0
1.481244298E0,-1.031306505E0,2.733799815E-1,9.748359680E0
1.483484532E0,-1.031306505E0,2.638086975E-1,9.753145218E0
1.485717869E0,-1.031306505E0,2.685943544E-1,9.762716293E0
1.487955540E0,-1.045663476E0,2.638086975E-1,9.767501831E0
1.490192296E0,-1.050449133E0,2.596212626E-1,9.748359680E0
1.492427647E0,-1.036092162E0,2.638086975E-1,9.762716293E0
1.494664220E0,-1.060020447E0,2.596212626E-1,9.757332802E0
1.496900670E0,-1.055234790E0,2.548356056E-1,9.743574142E0
1.499137608E0,-1.050449133E0,2.356930375E-1,9.748359680E0
1.501374425E0,-1.069591761E0,2.356930375E-1,9.738189697E0
1.503611546E0,-1.074377418E0,2.548356056E-1,9.733404160E0
1.505849400E0,-1.064806104E0,2.596212626E-1,9.738189697E0
1.508085850E0,-1.060020447E0,2.691925466E-1,9.743574142E0
1.510321202E0,-1.050449133E0,2.644068897E-1,9.748359680E0
1.512554844E0,-1.040877819E0,2.590230405E-1,9.729216576E0
1.514782750E0,-1.068993568E0,2.596212626E-1,9.700503349E0
1.517031163E0,-1.079162955E0,2.596212626E-1,9.742975235E0
1.519268040E0,-1.060020447E0,2.691925466E-1,9.743574142E0
1.521508153E0,-1.064207911E0,2.691925466E-1,9.733404160E0
1.523742650E0,-1.040279627E0,2.691925466E-1,9.724431038E0
1.525979161E0,-1.054636598E0,2.691925466E-1,9.724431038E0
1.528214757E0,-1.055234790E0,2.548356056E-1,9.719645500E0
1.530451573E0,-1.064207911E0,2.691925466E-1,9.705288887E0
1.532687962E0,-1.045065284E0,2.739782035E-1,9.714859962E0
1.534925206E0,-1.054636598E0,2.596212626E-1,9.695717812E0
1.537161473E0,-1.064207911E0,2.691925466E-1,9.690931320E0
1.539398655E0,-1.049850941E0,2.644068897E-1,9.686145782E0
1.541633396E0,-1.054636598E0,2.500499785E-1,9.695717812E0
1.543861058E0,-1.054636598E0,2.644068897E-1,9.714859962E0
1.546108617E0,-1.045065284E0,2.739782035E-1,9.681360245E0
1.548345067E0,-1.049850941E0,2.596212626E-1,9.700503349E0
1.550584386E0,-1.035493970E0,2.739782035E-1,9.690931320E0
1.552818273E0,-1.030110121E0,2.787638307E-1,9.676574707E0
1.555054295E0,-1.040279627E0,2.691925466E-1,9.671789169E0
1.557292271E0,-1.049252748E0,2.787638307E-1,9.676574707E0
1.559530308E0,-1.049850941E0,2.739782035E-1,9.676574707E0
1.561767186E0,-1.064207911E0,2.787638307E-1,9.695717812E0
1.564002904E0,-1.054636598E0,2.787638307E-1,9.714859962E0
1.566238561E0,-1.040279627E0,2.883351147E-1,9.700503349E0
1.568474950E0,-1.035493970E0,2.877369225E-1,9.710074425E0
1.570712071E0,-1.030708313E0,2.925225794E-1,9.710074425E0
1.572948643E0,-1.030708313E0,2.829512656E-1,9.724431038E0
1.575186070E0,-1.025324464E0,3.068794906E-1,9.729216576E0
1.577423680E0,-1.040279627E0,2.644068897E-1,9.719645500E0
1.579659825E0,-1.039681435E0,2.979064286E-1,9.714859962E0
1.581895299E0,-1.025922656E0,2.973082066E-1,9.724431038E0
1.584131688E0,-1.025922656E0,3.020938635E-1,9.743574142E0
1.586368871E0,-1.030708313E0,3.068794906E-1,9.738788605E0
1.588605931E0,-1.040279627E0,2.925225794E-1,9.738788605E0
1.590842564E0,-1.020538807E0,3.164508045E-1,9.734002113E0
1.593079564E0,-1.030110121E0,3.116651475E-1,9.729216576E0
1.595317296E0,-1.030110121E0,3.020938635E-1,9.719645500E0
1.597553624E0,-1.021137118E0,3.020938635E-1,9.734002113E0
1.599789159E0,-1.016351461E0,3.068794906E-1,9.748359680E0
1.602025487E0,-1.021137118E0,3.020938635E-1,9.729216576E0
1.604262364E0,-1.016351461E0,2.973082066E-1,9.729216576E0
1.606499425E0,-1.011565804E0,2.877369225E-1,9.734002113E0
1.608736058E0,-1.006780148E0,2.919243574E-1,9.757930756E0
1.610973118E0,-1.016351461E0,3.020938635E-1,9.743574142E0
1.613210911E0,-1.030708313E0,2.925225794E-1,9.748359680E0
1.615447423E0,-1.030708313E0,2.925225794E-1,9.729216576E0
1.617682774E0,-1.021137118E0,2.829512656E-1,9.724431038E0
1.619919286E0,-1.016351461E0,2.733799815E-1,9.724431038E0
1.622155858E0,-1.016351461E0,2.829512656E-1,9.738788605E0
1.624392979E0,-1.011565804E0,2.638086975E-1,9.729216576E0
1.626629613E0,-1.016351461E0,2.685943544E-1,9.729216576E0
1.628866917E0,-1.012163997E0,2.542374134E-1,9.734002113E0
1.631104466E0,-1.002592683E0,2.679961324E-1,9.743574142E0
1.633340977E0,-1.031306505E0,2.638086975E-1,9.734002113E0
1.635573338E0,-1.026520967E0,2.590230405E-1,9.743574142E0
1.637798253E0,-1.045663476E0,2.685943544E-1,9.738788605E0
1.640036961E0,-1.025922656E0,2.590230405E-1,9.719645500E0
1.642280980E0,-1.035493970E0,2.733799815E-1,9.714859962E0
1.644516515E0,-1.025922656E0,2.781656384E-1,9.724431038E0
1.646748448E0,-1.045065284E0,2.596212626E-1,9.714859962E0
1.648987340E0,-1.031306505E0,2.494517565E-1,9.719645500E0
1.651236424E0,-1.055234790E0,2.596212626E-1,9.719645500E0
1.653469884E0,-1.040279627E0,2.596212626E-1,9.714859962E0
1.655697667E0,-1.064806104E0,2.596212626E-1,9.714859962E0
1.657943212E0,-1.049850941E0,2.787638307E-1,9.705288887E0
1.660180333E0,-1.040279627E0,2.787638307E-1,9.705288887E0
1.662416783E0,-1.049850941E0,2.787638307E-1,9.714859962E0
1.664642491E0,-1.049850941E0,2.835494876E-1,9.700503349E0
1.666891575E0,-1.035493970E0,2.883351147E-1,9.700503349E0
1.669128392E0,-1.054636598E0,2.739782035E-1,9.700503349E0
1.671366491E0,-1.058824062E0,3.026920557E-1,9.700503349E0
1.673600011E0,-1.058824062E0,3.026920557E-1,9.710074425E0
1.675836705E0,-1.058824062E0,3.074777126E-1,9.695717812E0
1.678073582E0,-1.049850941E0,2.979064286E-1,9.724431038E0
1.680311315E0,-1.049252748E0,3.122633696E-1,9.710074425E0
1.682548680E0,-1.039681435E0,3.074777126E-1,9.690931320E0
1.684773167E0,-1.044467092E0,3.122633696E-1,9.686145782E0
1.687021642E0,-1.049850941E0,2.979064286E-1,9.714859962E0
1.689255955E0,-1.030708313E0,2.925225794E-1,9.710074425E0
1.691496801E0,-1.039681435E0,3.170489967E-1,9.705288887E0
1.693730382E0,-1.049252748E0,3.026920557E-1,9.690931320E0
1.695967503E0,-1.030110121E0,2.973082066E-1,9.690931320E0
1.698204015E0,-1.044467092E0,3.074777126E-1,9.705288887E0
1.700441075E0,-1.039681435E0,2.883351147E-1,9.690931320E0
1.702678624E0,-1.025324464E0,2.925225794E-1,9.695717812E0
1.704915196E0,-1.030708313E0,2.781656384E-1,9.695717812E0
1.707150792E0,-1.025324464E0,2.877369225E-1,9.681360245E0
1.709387364E0,-1.030110121E0,2.925225794E-1,9.690931320E0
1.711620885E0,-1.021137118E0,2.781656384E-1,9.686145782E0
1.713848790E0,-1.016351461E0,2.781656384E-1,9.714859962E0
1.716097569E0,-1.001396298E0,3.014956415E-1,9.719645500E0
1.718334691E0,-1.021137118E0,2.685943544E-1,9.700503349E0
1.720572545E0,-1.030708313E0,2.829512656E-1,9.719645500E0
1.722797825E0,-1.006181955E0,2.973082066E-1,9.700503349E0
1.725047581E0,-1.016351461E0,2.685943544E-1,9.714859962E0
1.727281102E0,-1.021137118E0,2.542374134E-1,9.705288887E0
1.729520421E0,-1.011565804E0,2.877369225E-1,9.729216576E0
1.731750829E0,-1.011565804E0,2.781656384E-1,9.719645500E0
1.733979344E0,-1.011565804E0,2.781656384E-1,9.734002113E0
1.736228245E0,-1.016351461E0,2.781656384E-1,9.714859962E0
1.738466038E0,-1.012163997E0,2.542374134E-1,9.748359680E0
1.740705541E0,-1.016949654E0,2.590230405E-1,9.743574142E0
1.742938145E0,-1.031306505E0,2.781656384E-1,9.757930756E0
1.745174413E0,-1.006780148E0,2.919243574E-1,9.757930756E0
1.747411046E0,-1.035493970E0,2.925225794E-1,9.753145218E0
1.749648289E0,-1.025922656E0,2.781656384E-1,9.753145218E0
1.751884679E0,-1.021137118E0,2.781656384E-1,9.743574142E0
1.754121800E0,-1.054636598E0,2.931207716E-1,9.743574142E0
1.756359532E0,-1.030708313E0,2.829512656E-1,9.748359680E0
1.758596104E0,-1.035493970E0,2.925225794E-1,9.753145218E0
1.760831456E0,-1.068993568E0,2.883351147E-1,9.757332802E0
1.763067845E0,-1.040279627E0,2.973082066E-1,9.748359680E0
1.765304051E0,-1.049850941E0,2.931207716E-1,9.742975235E0
1.767541661E0,-1.054636598E0,3.122633696E-1,9.738189697E0
1.769778294E0,-1.059422255E0,3.074777126E-1,9.762118340E0
1.772015782E0,-1.059422255E0,3.074777126E-1,9.757332802E0
1.774253392E0,-1.064207911E0,3.026920557E-1,9.728618622E0
1.776489720E0,-1.064207911E0,3.170489967E-1,9.771689415E0
1.778725255E0,-1.059422255E0,3.026920557E-1,9.738189697E0
1.780961705E0,-1.073779106E0,3.122633696E-1,9.738189697E0
1.783198094E0,-1.063609719E0,3.218346536E-1,9.733404160E0
1.785435155E0,-1.068395257E0,3.218346536E-1,9.738189697E0
1.787671788E0,-1.068395257E0,3.170489967E-1,9.728618622E0
1.789906163E0,-1.058824062E0,3.266202807E-1,9.733404160E0
1.792134739E0,-1.073180914E0,3.122633696E-1,9.723833084E0
1.794383275E0,-1.058824062E0,3.218346536E-1,9.704689980E0
1.796618748E0,-1.063609719E0,3.314059377E-1,9.709476471E0
1.798858068E0,-1.073180914E0,3.314059377E-1,9.704689980E0
1.801091710E0,-1.101894855E0,3.032902777E-1,9.709476471E0
1.803329015E0,-1.063609719E0,3.122633696E-1,9.709476471E0
1.805565648E0,-1.082752228E0,3.272185028E-1,9.704689980E0
1.807799717E0,-1.073180914E0,3.272185028E-1,9.690333366E0
1.810028233E0,-1.077368379E0,3.320041299E-1,9.690333366E0
1.812276768E0,-1.063609719E0,3.218346536E-1,9.690931320E0
1.814512364E0,-1.068395257E0,3.032902777E-1,9.676574707E0
1.816751867E0,-1.068395257E0,3.170489967E-1,9.699904442E0
1.818985265E0,-1.073180914E0,3.026920557E-1,9.704689980E0
1.821222630E0,-1.068395257E0,2.985046208E-1,9.671789169E0
1.823459386E0,-1.077966571E0,2.937189937E-1,9.699904442E0
1.825696324E0,-1.068395257E0,3.026920557E-1,9.686145782E0
1.827933995E0,-1.049252748E0,2.931207716E-1,9.657432556E0
1.830170262E0,-1.054038405E0,2.835494876E-1,9.686145782E0
1.832405858E0,-1.063609719E0,2.835494876E-1,9.686145782E0
1.834642125E0,-1.068993568E0,2.793620527E-1,9.681360245E0
1.836878819E0,-1.049252748E0,2.883351147E-1,9.686145782E0
1.839116124E0,-1.049252748E0,2.835494876E-1,9.667003632E0
1.841352757E0,-1.039681435E0,2.739782035E-1,9.662218094E0
1.843589879E0,-1.034895778E0,2.739782035E-1,9.671789169E0
1.845827550E0,-1.059422255E0,2.691925466E-1,9.686145782E0
1.848063878E0,-1.040279627E0,2.644068897E-1,9.686145782E0
1.850299535E0,-1.035493970E0,2.590230405E-1,9.719645500E0
1.852536229E0,-1.021137118E0,2.829512656E-1,9.705288887E0
1.854772618E0,-1.021137118E0,2.829512656E-1,9.700503349E0
1.857009679E0,-1.011565804E0,2.638086975E-1,9.724431038E0
1.859246251E0,-1.025922656E0,2.590230405E-1,9.710074425E0
1.861483677E0,-1.025922656E0,2.829512656E-1,9.714859962E0
1.863721409E0,-1.025922656E0,2.685943544E-1,9.734002113E0
1.865957677E0,-1.026520967E0,2.685943544E-1,9.738788605E0
1.868193028E0,-1.011565804E0,2.733799815E-1,9.724431038E0
1.870429784E0,-1.011565804E0,2.733799815E-1,9.729216576E0
1.872666417E0,-1.006780148E0,2.829512656E-1,9.734002113E0
1.874903477E0,-9.924231768E-1,2.727817893E-1,9.734002113E0
1.877139806E0,-1.001994491E0,2.775674164E-1,9.738788605E0
1.879377110E0,-1.006780148E0,2.919243574E-1,9.767501831E0
1.881611607E0,-1.021735311E0,2.685943544E-1,9.772287369E0
1.883839085E0,-1.016949654E0,2.685943544E-1,9.743574142E0
1.886085179E0,-1.021735311E0,2.638086975E-1,9.767501831E0
1.888316747E0,-1.007378340E0,2.679961324E-1,9.757930756E0
1.890562841E0,-1.016949654E0,2.733799815E-1,9.757930756E0
1.892797276E0,-1.012163997E0,2.679961324E-1,9.772287369E0
1.895035252E0,-1.002592683E0,2.584248483E-1,9.753145218E0
1.897270726E0,-1.007378340E0,2.584248483E-1,9.772287369E0
1.899508214E0,-9.978070259E-1,2.584248483E-1,9.738788605E0
1.901742039E0,-9.978070259E-1,2.488535494E-1,9.753145218E0
1.903968419E0,-9.786644578E-1,2.392822653E-1,9.748957634E0
1.906216954E0,-9.834501147E-1,2.344966233E-1,9.753743172E0
1.908453465E0,-9.930213690E-1,2.297109663E-1,9.729815483E0
1.910693517E0,-9.930213690E-1,2.392822653E-1,9.734601021E0
1.912926915E0,-9.930213690E-1,2.392822653E-1,9.739386559E0
1.915164219E0,-9.882357717E-1,2.344966233E-1,9.739386559E0
1.917401768E0,-9.984052777E-1,2.153540403E-1,9.725028992E0
1.919638402E0,-1.002592683E0,2.255235314E-1,9.729216576E0
1.921873875E0,-9.738788009E-1,2.249253243E-1,9.720243454E0
1.924110326E0,-9.786644578E-1,2.392822653E-1,9.739386559E0
1.926347386E0,-9.834501147E-1,2.249253243E-1,9.725028992E0
1.928584386E0,-9.696913958E-1,2.153540403E-1,9.729815483E0
1.930820775E0,-9.888339639E-1,2.249253243E-1,9.744172096E0
1.933057774E0,-9.738788009E-1,2.249253243E-1,9.705886841E0
1.935295567E0,-9.978070259E-1,2.303091735E-1,9.705886841E0
1.937532140E0,-9.786644578E-1,2.297109663E-1,9.720243454E0
1.939767491E0,-9.834501147E-1,2.488535494E-1,9.725028992E0
1.942004003E0,-9.834501147E-1,2.440679073E-1,9.715457916E0
1.944240575E0,-9.978070259E-1,2.440679073E-1,9.729815483E0
1.946477696E0,-9.972088337E-1,2.638086975E-1,9.715457916E0
1.948714329E0,-9.972088337E-1,2.542374134E-1,9.715457916E0
1.950951634E0,-9.786644578E-1,2.440679073E-1,9.720243454E0
1.953189183E0,-9.924231768E-1,2.679961324E-1,9.725028992E0
1.955425755E0,-1.025324464E0,2.973082066E-1,9.705288887E0
1.957661229E0,-1.001994491E0,2.638086975E-1,9.705886841E0
1.959897557E0,-1.006780148E0,2.733799815E-1,9.714859962E0
1.962134129E0,-1.016351461E0,2.733799815E-1,9.724431038E0
1.964371251E0,-1.006780148E0,2.685943544E-1,9.729216576E0
1.966608128E0,-1.011565804E0,2.685943544E-1,9.700503349E0
1.968845189E0,-1.011565804E0,2.925225794E-1,9.719645500E0
1.971082799E0,-1.015753269E0,3.260220885E-1,9.705288887E0
1.973316136E0,-1.020538807E0,3.068794906E-1,9.710074425E0
1.975541295E0,-1.001396298E0,3.020938635E-1,9.705288887E0
1.977790929E0,-1.010967612E0,3.116651475E-1,9.719645500E0
1.980027928E0,-1.020538807E0,3.164508045E-1,9.695717812E0
1.982268407E0,-1.010967612E0,3.116651475E-1,9.695717812E0
1.984501744E0,-1.025324464E0,3.020938635E-1,9.705288887E0
1.986738682E0,-1.025324464E0,3.020938635E-1,9.695717812E0
1.988976231E0,-1.025324464E0,2.973082066E-1,9.686145782E0
1.991212804E0,-1.039681435E0,3.218346536E-1,9.700503349E0
1.993448399E0,-1.025324464E0,3.068794906E-1,9.719645500E0
1.995681981E0,-1.015753269E0,2.877369225E-1,9.686145782E0
1.997909581E0,-1.015753269E0,3.068794906E-1,9.690931320E0
2.000158604E0,-1.020538807E0,2.973082066E-1,9.695717812E0
2.002394017E0,-1.044467092E0,3.026920557E-1,9.705288887E0
2.004630650E0,-1.025324464E0,2.931207716E-1,9.667003632E0
2.006870091E0,-1.039681435E0,3.026920557E-1,9.700503349E0
2.009106541E0,-1.039681435E0,3.074777126E-1,9.690931320E0
2.011343053E0,-1.030110121E0,2.925225794E-1,9.700503349E0
2.013578465E0,-1.034895778E0,2.925225794E-1,9.700503349E0
2.015809117E0,-1.039681435E0,2.979064286E-1,9.690931320E0
2.018040257E0,-1.044467092E0,3.026920557E-1,9.690931320E0
2.020288609E0,-1.039681435E0,3.026920557E-1,9.695717812E0
2.022523839E0,-1.025922656E0,2.877369225E-1,9.705288887E0
2.024754613E0,-1.068993568E0,2.739782035E-1,9.705288887E0
2.026999913E0,-1.059422255E0,2.787638307E-1,9.700503349E0
2.029235448E0,-1.049850941E0,2.787638307E-1,9.700503349E0
2.031475010E0,-1.064207911E0,2.835494876E-1,9.700503349E0
2.033708653E0,-1.064207911E0,2.739782035E-1,9.714859962E0
2.035945775E0,-1.054636598E0,2.883351147E-1,9.705288887E0
2.038182591E0,-1.059422255E0,2.739782035E-1,9.700503349E0
2.040419713E0,-1.059422255E0,2.835494876E-1,9.705288887E0
2.042657445E0,-1.073180914E0,2.979064286E-1,9.699904442E0
2.044893651E0,-1.074377418E0,2.596212626E-1,9.728618622E0
2.047128880E0,-1.035493970E0,2.829512656E-1,9.734002113E0
2.049366063E0,-1.040279627E0,2.883351147E-1,9.705288887E0
2.051606663E0,-1.045065284E0,2.883351147E-1,9.719645500E0
2.053837742E0,-1.045065284E0,2.835494876E-1,9.719645500E0
2.056063939E0,-1.059422255E0,2.787638307E-1,9.714859962E0
2.058311681E0,-1.039681435E0,3.068794906E-1,9.719645500E0
2.060550389E0,-1.059422255E0,2.979064286E-1,9.728618622E0
2.062790319E0,-1.054636598E0,3.026920557E-1,9.724431038E0
2.065022923E0,-1.025922656E0,2.973082066E-1,9.724431038E0
2.067259129E0,-1.034895778E0,3.020938635E-1,9.719645500E0
2.069495763E0,-1.049850941E0,2.931207716E-1,9.724431038E0
2.071730076E0,-1.049850941E0,3.068794906E-1,9.747760773E0
2.073957738E0,-1.054636598E0,2.979064286E-1,9.742975235E0
2.076206761E0,-1.059422255E0,3.074777126E-1,9.733404160E0
2.078444249E0,-1.049252748E0,3.074777126E-1,9.710074425E0
2.080683812E0,-1.049850941E0,2.979064286E-1,9.724431038E0
2.082916417E0,-1.039681435E0,3.116651475E-1,9.724431038E0
2.085152989E0,-1.054038405E0,3.074777126E-1,9.729216576E0
2.087389562E0,-1.045065284E0,2.829512656E-1,9.762716293E0
2.089626622E0,-1.035493970E0,3.068794906E-1,9.743574142E0
2.091863194E0,-1.034895778E0,2.973082066E-1,9.714859962E0
2.094100255E0,-1.045065284E0,2.835494876E-1,9.734002113E0
2.096337803E0,-1.049850941E0,3.026920557E-1,9.724431038E0
2.098574376E0,-1.049850941E0,2.931207716E-1,9.734002113E0
2.100809972E0,-1.064207911E0,2.883351147E-1,9.714262009E0
2.103046544E0,-1.059422255E0,2.931207716E-1,9.705288887E0
2.105283116E0,-1.054636598E0,2.787638307E-1,9.719645500E0
2.107520177E0,-1.054636598E0,2.883351147E-1,9.700503349E0
2.109756810E0,-1.059422255E0,2.931207716E-1,9.719047546E0
2.111994114E0,-1.073779106E0,2.787638307E-1,9.714262009E0
2.114231663E0,-1.064207911E0,2.883351147E-1,9.705288887E0
2.116468175E0,-1.068993568E0,2.739782035E-1,9.690931320E0
2.118703465E0,-1.054636598E0,2.883351147E-1,9.705288887E0
2.120939977E0,-1.054636598E0,2.644068897E-1,9.695717812E0
2.123176366E0,-1.059422255E0,2.739782035E-1,9.695717812E0
2.125413731E0,-1.064207911E0,2.787638307E-1,9.710074425E0
2.127650365E0,-1.059422255E0,2.691925466E-1,9.690931320E0
2.129887669E0,-1.059422255E0,2.787638307E-1,9.681360245E0
2.132124974E0,-1.054038405E0,2.883351147E-1,9.695717812E0
2.134358860E0,-1.054038405E0,2.883351147E-1,9.690931320E0
2.136582615E0,-1.064207911E0,2.739782035E-1,9.676574707E0
2.138821996E0,-1.068993568E0,2.691925466E-1,9.690931320E0
2.141067418E0,-1.063609719E0,2.931207716E-1,9.686145782E0
2.143295323E0,-1.059422255E0,2.644068897E-1,9.695717812E0
2.145532323E0,-1.049850941E0,2.787638307E-1,9.705288887E0
2.147769017E0,-1.073779106E0,2.841476798E-1,9.699904442E0
2.150022008E0,-1.058824062E0,3.026920557E-1,9.686145782E0
2.152258214E0,-1.059422255E0,2.883351147E-1,9.700503349E0
2.154493871E0,-1.059422255E0,2.787638307E-1,9.705288887E0
2.156727086E0,-1.068395257E0,2.979064286E-1,9.699904442E0
2.158963719E0,-1.049850941E0,2.931207716E-1,9.719645500E0
2.161200780E0,-1.039681435E0,2.883351147E-1,9.695717812E0
2.163434483E0,-1.049252748E0,2.979064286E-1,9.695717812E0
2.165662816E0,-1.058824062E0,2.979064286E-1,9.695717812E0
2.167912327E0,-1.044467092E0,2.979064286E-1,9.690931320E0
2.170148900E0,-1.040279627E0,2.979064286E-1,9.714859962E0
2.172387425E0,-1.054636598E0,2.835494876E-1,9.695717812E0
2.174621007E0,-1.021137118E0,2.925225794E-1,9.714859962E0
2.176857518E0,-1.039681435E0,2.931207716E-1,9.700503349E0
2.179094334E0,-1.030708313E0,2.925225794E-1,9.714859962E0
2.181330968E0,-1.025922656E0,2.925225794E-1,9.724431038E0
2.183568333E0,-1.021137118E0,2.781656384E-1,9.714859962E0
2.185806187E0,-1.030708313E0,2.829512656E-1,9.729216576E0
2.188042638E0,-1.030708313E0,2.781656384E-1,9.710074425E0
2.190277745E0,-1.006780148E0,2.925225794E-1,9.734002113E0
2.192514501E0,-1.040877819E0,2.638086975E-1,9.734002113E0
2.194751012E0,-1.026520967E0,2.638086975E-1,9.734002113E0
2.196988011E0,-1.011565804E0,2.781656384E-1,9.738788605E0
2.199224767E0,-1.006780148E0,2.685943544E-1,9.738788605E0
2.201461827E0,-1.012163997E0,2.775674164E-1,9.757930756E0
2.203699437E0,-1.030708313E0,2.829512656E-1,9.753145218E0
2.205936009E0,-1.021137118E0,2.733799815E-1,9.743574142E0
2.208171788E0,-1.011565804E0,2.685943544E-1,9.734002113E0
2.210408116E0,-1.016351461E0,2.733799815E-1,9.738788605E0
2.212644689E0,-1.007378340E0,2.590230405E-1,9.738788605E0
2.214881688E0,-1.007378340E0,2.536391914E-1,9.748359680E0
2.217118321E0,-1.021137118E0,2.781656384E-1,9.729216576E0
2.219355443E0,-1.016351461E0,2.781656384E-1,9.753145218E0
2.221590306E0,-1.011565804E0,2.781656384E-1,9.743574142E0
2.223818089E0,-1.001994491E0,2.775674164E-1,9.743574142E0
2.226065343E0,-1.025922656E0,2.829512656E-1,9.729216576E0
2.228301610E0,-1.016351461E0,2.877369225E-1,9.743574142E0
2.230541112E0,-1.006780148E0,2.829512656E-1,9.724431038E0
2.232775304E0,-1.011565804E0,2.973082066E-1,9.724431038E0
2.235012120E0,-1.021137118E0,2.877369225E-1,9.724431038E0
2.237247044E0,-1.030708313E0,2.829512656E-1,9.714859962E0
2.239478917E0,-1.001994491E0,2.829512656E-1,9.714859962E0
2.241720067E0,-1.040279627E0,2.829512656E-1,9.729216576E0
2.243946934E0,-1.016351461E0,2.973082066E-1,9.729216576E0
2.246197118E0,-1.015753269E0,3.020938635E-1,9.714859962E0
2.248431798E0,-1.015753269E0,3.020938635E-1,9.710074425E0
2.250671788E0,-1.020538807E0,2.925225794E-1,9.700503349E0
2.252905492E0,-1.030708313E0,2.781656384E-1,9.724431038E0
2.255142796E0,-1.030708313E0,2.877369225E-1,9.724431038E0
2.257380284E0,-1.030708313E0,2.877369225E-1,9.714859962E0
2.259616612E0,-1.030110121E0,3.116651475E-1,9.714859962E0
2.261852147E0,-1.034895778E0,2.925225794E-1,9.695717812E0
2.264088780E0,-1.049252748E0,3.122633696E-1,9.705288887E0
2.266325658E0,-1.034895778E0,3.116651475E-1,9.710074425E0
2.268562657E0,-1.039681435E0,3.020938635E-1,9.714859962E0
2.270799046E0,-1.045065284E0,2.883351147E-1,9.724431038E0
2.273036290E0,-1.044467092E0,3.026920557E-1,9.700503349E0
2.275273839E0,-1.039681435E0,3.122633696E-1,9.710074425E0
2.277507176E0,-1.054038405E0,3.170489967E-1,9.710074425E0
2.279732762E0,-1.044467092E0,3.074777126E-1,9.719645500E0
2.281982335E0,-1.054038405E0,3.170489967E-1,9.710074425E0
2.284219090E0,-1.054038405E0,3.122633696E-1,9.710074425E0
2.286459264E0,-1.049252748E0,2.931207716E-1,9.695717812E0
2.288692906E0,-1.044467092E0,3.026920557E-1,9.700503349E0
2.290930150E0,-1.054038405E0,3.122633696E-1,9.705288887E0
2.293167759E0,-1.044467092E0,2.979064286E-1,9.700503349E0
2.295404210E0,-1.054038405E0,3.074777126E-1,9.705288887E0
2.297639561E0,-1.049252748E0,3.026920557E-1,9.686145782E0
2.299876317E0,-1.054038405E0,3.170489967E-1,9.681360245E0
2.302112584E0,-1.034895778E0,3.020938635E-1,9.705288887E0
2.304349522E0,-1.020538807E0,3.116651475E-1,9.686145782E0
2.306586278E0,-1.025324464E0,3.020938635E-1,9.700503349E0
2.308823399E0,-1.025324464E0,3.116651475E-1,9.686145782E0
2.311061070E0,-1.025922656E0,2.877369225E-1,9.724431038E0
2.313297826E0,-1.039681435E0,3.116651475E-1,9.714859962E0
2.315533360E0,-1.044467092E0,3.218346536E-1,9.695717812E0
2.317769689E0,-1.034895778E0,2.931207716E-1,9.690931320E0
2.320006200E0,-1.034895778E0,3.020938635E-1,9.705288887E0
2.322242344E0,-1.044467092E0,3.026920557E-1,9.686145782E0
2.324473179E0,-1.049252748E0,3.074777126E-1,9.700503349E0
2.326704808E0,-1.035493970E0,2.829512656E-1,9.714859962E0
2.328954808E0,-1.044467092E0,3.074777126E-1,9.724431038E0
2.331192235E0,-1.044467092E0,3.026920557E-1,9.710074425E0
2.333429723E0,-1.030110121E0,2.973082066E-1,9.710074425E0
2.335660252E0,-1.035493970E0,2.877369225E-1,9.714859962E0
2.337888097E0,-1.021137118E0,2.781656384E-1,9.705288887E0
2.340137181E0,-1.016351461E0,2.781656384E-1,9.710074425E0
2.342370640E0,-1.016351461E0,2.973082066E-1,9.734002113E0
2.344601293E0,-1.021137118E0,2.733799815E-1,9.729216576E0
2.346848363E0,-1.031306505E0,2.542374134E-1,9.719645500E0
2.349085118E0,-1.040877819E0,2.494517565E-1,9.734002113E0
2.351323583E0,-1.026520967E0,2.638086975E-1,9.729216576E0
2.353557042E0,-1.031306505E0,2.542374134E-1,9.738788605E0
2.355790501E0,-1.031306505E0,2.494517565E-1,9.743574142E0
2.358018468E0,-1.027119160E0,2.255235314E-1,9.738788605E0
2.360264256E0,-1.031306505E0,2.542374134E-1,9.748359680E0
2.362489414E0,-1.021735311E0,2.446661144E-1,9.738788605E0
2.364733250E0,-1.026520967E0,2.494517565E-1,9.743574142E0
2.366978673E0,-1.012163997E0,2.590230405E-1,9.734002113E0
2.369217015E0,-1.040877819E0,2.590230405E-1,9.734002113E0
2.371453466E0,-1.031306505E0,2.590230405E-1,9.729216576E0
2.373686864E0,-1.036092162E0,2.542374134E-1,9.743574142E0
2.375924168E0,-1.045663476E0,2.548356056E-1,9.738788605E0
2.378160558E0,-1.045663476E0,2.685943544E-1,9.748359680E0
2.380397923E0,-1.049850941E0,2.739782035E-1,9.734002113E0
2.382635472E0,-1.035493970E0,2.644068897E-1,9.705288887E0
2.384872288E0,-1.049850941E0,2.835494876E-1,9.705288887E0
2.387107579E0,-1.045065284E0,2.835494876E-1,9.705288887E0
2.389344151E0,-1.059422255E0,2.596212626E-1,9.714859962E0
2.391576451E0,-1.064207911E0,2.739782035E-1,9.719047546E0
2.393800938E0,-1.054636598E0,2.739782035E-1,9.729216576E0
2.396054356E0,-1.068993568E0,2.931207716E-1,9.709476471E0
2.398291478E0,-1.049850941E0,2.835494876E-1,9.705288887E0
2.400533483E0,-1.054636598E0,2.931207716E-1,9.724431038E0
2.402765782E0,-1.045065284E0,2.739782035E-1,9.714859962E0
2.404998509E0,-1.054636598E0,3.026920557E-1,9.724431038E0
2.407227147E0,-1.064207911E0,2.931207716E-1,9.714262009E0
2.409474278E0,-1.063609719E0,2.931207716E-1,9.700503349E0
2.411708836E0,-1.058824062E0,3.122633696E-1,9.695717812E0
2.413939549E0,-1.049252748E0,3.026920557E-1,9.710074425E0
2.416185032E0,-1.054038405E0,2.931207716E-1,9.676574707E0
2.418422825E0,-1.063609719E0,3.026920557E-1,9.681360245E0
2.420662327E0,-1.049850941E0,2.787638307E-1,9.690931320E0
2.422894688E0,-1.039681435E0,2.931207716E-1,9.681360245E0
2.425131200E0,-1.058824062E0,2.931207716E-1,9.690931320E0
2.427367772E0,-1.030110121E0,3.068794906E-1,9.695717812E0
2.429605199E0,-1.049252748E0,3.026920557E-1,9.681360245E0
2.431838780E0,-1.044467092E0,3.074777126E-1,9.700503349E0
2.434066868E0,-1.058824062E0,2.979064286E-1,9.681360245E0
2.436316319E0,-1.063609719E0,2.979064286E-1,9.676574707E0
2.438552831E0,-1.054038405E0,3.122633696E-1,9.700503349E0
2.440791173E0,-1.044467092E0,2.931207716E-1,9.690931320E0
2.443024815E0,-1.049252748E0,2.931207716E-1,9.700503349E0
2.445261754E0,-1.054038405E0,3.026920557E-1,9.681360245E0
2.447499242E0,-1.068993568E0,2.835494876E-1,9.699904442E0
2.449735326E0,-1.068395257E0,3.122633696E-1,9.695118904E0
2.451972386E0,-1.073180914E0,3.074777126E-1,9.714262009E0
2.454209996E0,-1.058824062E0,2.979064286E-1,9.710074425E0
2.456446446E0,-1.054636598E0,2.979064286E-1,9.719645500E0
2.458682042E0,-1.064207911E0,3.026920557E-1,9.723833084E0
2.460918553E0,-1.073180914E0,3.218346536E-1,9.723833084E0
2.463155187E0,-1.068993568E0,2.979064286E-1,9.723833084E0
2.465392247E0,-1.058824062E0,3.266202807E-1,9.719047546E0
2.467628819E0,-1.068395257E0,3.074777126E-1,9.723833084E0
2.469865941E0,-1.068395257E0,3.170489967E-1,9.723833084E0
2.472103673E0,-1.078564763E0,2.979064286E-1,9.719047546E0
2.474340001E0,-1.092323542E0,3.080759048E-1,9.719047546E0
2.476575536E0,-1.073180914E0,3.314059377E-1,9.719047546E0
2.478811864E0,-1.063609719E0,3.266202807E-1,9.723833084E0
2.481048802E0,-1.058824062E0,3.170489967E-1,9.738189697E0
2.483286046E0,-1.068395257E0,3.218346536E-1,9.738189697E0
2.485522496E0,-1.063609719E0,3.170489967E-1,9.733404160E0
2.487759739E0,-1.054636598E0,3.170489967E-1,9.747760773E0
2.489996861E0,-1.073779106E0,3.122633696E-1,9.738189697E0
2.492230931E0,-1.064207911E0,3.026920557E-1,9.714262009E0
2.494463536E0,-1.064207911E0,2.931207716E-1,9.714262009E0
2.496705907E0,-1.044467092E0,3.164508045E-1,9.728618622E0
2.498942601E0,-1.054038405E0,3.361915946E-1,9.709476471E0
2.501180760E0,-1.034895778E0,3.308077157E-1,9.700503349E0
2.503415868E0,-1.025324464E0,3.020938635E-1,9.710074425E0
2.505653111E0,-1.034895778E0,3.212364316E-1,9.705288887E0
2.507891087E0,-1.025324464E0,3.212364316E-1,9.705288887E0
2.510127354E0,-1.054038405E0,3.122633696E-1,9.710074425E0
2.512362767E0,-1.044467092E0,3.266202807E-1,9.690931320E0
2.514599401E0,-1.039681435E0,3.122633696E-1,9.705288887E0
2.516835790E0,-1.024726272E0,3.308077157E-1,9.686145782E0
2.519072972E0,-1.030110121E0,3.260220885E-1,9.690931320E0
2.521309727E0,-1.034895778E0,3.260220885E-1,9.705288887E0
2.523546849E0,-1.025324464E0,3.260220885E-1,9.705288887E0
2.525784459E0,-1.034895778E0,3.260220885E-1,9.714859962E0
2.528021153E0,-1.025324464E0,3.020938635E-1,9.695717812E0
2.530256444E0,-1.034895778E0,3.122633696E-1,9.686145782E0
2.532492833E0,-1.020538807E0,3.068794906E-1,9.700503349E0
2.534729588E0,-1.030110121E0,3.020938635E-1,9.714859962E0
2.536966710E0,-1.015753269E0,3.020938635E-1,9.719645500E0
2.539203343E0,-1.016351461E0,2.829512656E-1,9.705288887E0
2.541440465E0,-1.025922656E0,2.781656384E-1,9.695717812E0
2.543678441E0,-1.011565804E0,2.877369225E-1,9.710074425E0
2.545914647E0,-1.015753269E0,2.829512656E-1,9.676574707E0
2.548149815E0,-1.016351461E0,2.829512656E-1,9.705288887E0
2.550386510E0,-1.021137118E0,2.781656384E-1,9.700503349E0
2.552623143E0,-1.006780148E0,2.733799815E-1,9.714859962E0
2.554860326E0,-1.001994491E0,2.829512656E-1,9.696315765E0
2.557096837E0,-1.001994491E0,2.679961324E-1,9.729216576E0
2.559333897E0,-9.972088337E-1,2.679961324E-1,9.729216576E0
2.561568699E0,-1.016351461E0,2.781656384E-1,9.705288887E0
2.563797093E0,-1.011565804E0,2.829512656E-1,9.734002113E0
2.566043858E0,-1.001994491E0,2.733799815E-1,9.724431038E0
2.568277257E0,-9.876375198E-1,2.775674164E-1,9.744172096E0
2.570507786E0,-9.978070259E-1,2.632105052E-1,9.743574142E0
2.572753758E0,-9.978070259E-1,2.584248483E-1,9.734601021E0
2.574990453E0,-1.001994491E0,2.829512656E-1,9.719645500E0
2.577230748E0,-9.972088337E-1,2.727817893E-1,9.734002113E0
2.579465611E0,-9.828519225E-1,2.775674164E-1,9.734601021E0
2.581699314E0,-1.016351461E0,2.829512656E-1,9.724431038E0
2.583926122E0,-1.001994491E0,2.775674164E-1,9.729216576E0
2.586173619E0,-9.972088337E-1,2.727817893E-1,9.719645500E0
2.588410253E0,-1.001994491E0,2.775674164E-1,9.724431038E0
2.590650486E0,-9.972088337E-1,2.775674164E-1,9.734002113E0
2.592884495E0,-1.011565804E0,2.877369225E-1,9.738788605E0
2.595121312E0,-1.016351461E0,2.685943544E-1,9.719645500E0
2.597358800E0,-1.021735311E0,2.685943544E-1,9.753145218E0
2.599595311E0,-9.972088337E-1,2.823530734E-1,9.748359680E0
2.601830907E0,-1.006780148E0,2.781656384E-1,9.714859962E0
2.604067357E0,-1.001994491E0,2.775674164E-1,9.734002113E0
2.606304356E0,-1.006780148E0,2.733799815E-1,9.734002113E0
2.608541173E0,-1.025922656E0,2.925225794E-1,9.714859962E0
2.610777745E0,-1.025922656E0,2.781656384E-1,9.719645500E0
2.613014500E0,-1.016949654E0,2.542374134E-1,9.729216576E0
2.615252415E0,-1.021137118E0,2.733799815E-1,9.714859962E0
2.617489171E0,-1.011565804E0,2.733799815E-1,9.700503349E0
2.619724522E0,-1.006780148E0,2.590230405E-1,9.714859962E0
2.621960851E0,-1.021735311E0,2.542374134E-1,9.724431038E0
2.624197606E0,-1.016351461E0,2.733799815E-1,9.710074425E0
2.626434727E0,-1.001994491E0,2.638086975E-1,9.720243454E0
2.628671361E0,-1.006780148E0,2.733799815E-1,9.724431038E0
2.630908421E0,-9.924231768E-1,2.536391914E-1,9.705886841E0
2.633143285E0,-1.011565804E0,2.590230405E-1,9.710074425E0
2.635368077E0,-1.006780148E0,2.590230405E-1,9.681958199E0
2.637605198E0,-9.828519225E-1,2.584248483E-1,9.691530228E0
2.639846959E0,-9.978070259E-1,2.488535494E-1,9.720243454E0
2.642079198E0,-1.011565804E0,2.590230405E-1,9.695717812E0
2.644316563E0,-9.972088337E-1,2.775674164E-1,9.729216576E0
2.646554357E0,-1.011565804E0,2.542374134E-1,9.705288887E0
2.648805272E0,-1.021137118E0,2.685943544E-1,9.714859962E0
2.651042943E0,-1.001994491E0,2.590230405E-1,9.677172661E0
2.653279271E0,-1.001994491E0,2.638086975E-1,9.701101303E0
2.655511876E0,-1.011565804E0,2.494517565E-1,9.701101303E0
2.657748326E0,-9.924231768E-1,2.679961324E-1,9.701101303E0
2.659984715E0,-1.011565804E0,2.781656384E-1,9.700503349E0
2.662221776E0,-1.001994491E0,2.781656384E-1,9.724431038E0
2.664458409E0,-1.001994491E0,2.733799815E-1,9.696315765E0
2.666695775E0,-1.011565804E0,2.685943544E-1,9.729216576E0
2.668933384E0,-1.006780148E0,2.829512656E-1,9.710074425E0
2.671170140E0,-1.021137118E0,2.829512656E-1,9.724431038E0
2.673402440E0,-1.016351461E0,2.925225794E-1,9.710074425E0
2.675628697E0,-1.011565804E0,2.781656384E-1,9.710074425E0
2.677873082E0,-1.011565804E0,2.733799815E-1,9.710074425E0
2.680115331E0,-1.021137118E0,2.925225794E-1,9.724431038E0
2.682352818E0,-1.030708313E0,2.973082066E-1,9.714859962E0
2.684582127E0,-1.006780148E0,2.973082066E-1,9.719645500E0
2.686827183E0,-1.016351461E0,2.925225794E-1,9.719645500E0
2.689063695E0,-1.001994491E0,2.919243574E-1,9.729216576E0
2.691301121E0,-1.016351461E0,2.877369225E-1,9.714859962E0
2.693535558E0,-1.010967612E0,3.020938635E-1,9.714859962E0
2.695767796E0,-1.015753269E0,2.877369225E-1,9.700503349E0
2.697991124E0,-1.006780148E0,2.925225794E-1,9.714859962E0
2.700245824E0,-1.015753269E0,3.164508045E-1,9.724431038E0
2.702480076E0,-1.010967612E0,3.020938635E-1,9.724431038E0
2.704713231E0,-1.030708313E0,2.877369225E-1,9.729216576E0
2.706957249E0,-1.025324464E0,3.116651475E-1,9.714859962E0
2.709192784E0,-1.030110121E0,3.116651475E-1,9.729216576E0
2.711432286E0,-1.035493970E0,3.116651475E-1,9.738788605E0
2.713665624E0,-1.034895778E0,3.116651475E-1,9.719645500E0
2.715902684E0,-1.034895778E0,3.116651475E-1,9.705288887E0
2.718139256E0,-1.030110121E0,3.068794906E-1,9.724431038E0
2.720376439E0,-1.025324464E0,3.308077157E-1,9.729216576E0
2.722611241E0,-1.044467092E0,3.212364316E-1,9.729216576E0
2.724838780E0,-1.030110121E0,2.973082066E-1,9.700503349E0
2.727086095E0,-1.044467092E0,3.170489967E-1,9.695717812E0
2.729322606E0,-1.063609719E0,3.074777126E-1,9.695717812E0
2.731559239E0,-1.068395257E0,3.026920557E-1,9.714262009E0
2.733784581E0,-1.063609719E0,3.122633696E-1,9.704689980E0
2.736032811E0,-1.083350420E0,2.889333367E-1,9.704689980E0
2.738269749E0,-1.077966571E0,2.985046208E-1,9.695118904E0
2.740510777E0,-1.077966571E0,3.080759048E-1,9.695118904E0
2.742744603E0,-1.083350420E0,2.937189937E-1,9.699904442E0
2.744980015E0,-1.077966571E0,2.937189937E-1,9.680762291E0
2.747216405E0,-1.077966571E0,3.032902777E-1,9.709476471E0
2.749452672E0,-1.082752228E0,2.985046208E-1,9.695118904E0
2.751686863E0,-1.082752228E0,3.128615618E-1,9.699904442E0
2.753914708E0,-1.092323542E0,3.080759048E-1,9.704689980E0
2.756163853E0,-1.088136077E0,2.937189937E-1,9.699904442E0
2.758401646E0,-1.092921734E0,2.889333367E-1,9.690333366E0
2.760641088E0,-1.082752228E0,2.937189937E-1,9.695118904E0
2.762873448E0,-1.106680512E0,2.985046208E-1,9.690333366E0
2.765109960E0,-1.102493048E0,2.889333367E-1,9.695118904E0
2.767346532E0,-1.092921734E0,2.985046208E-1,9.709476471E0
2.769583653E0,-1.087537885E0,2.985046208E-1,9.690333366E0
2.771817234E0,-1.097707391E0,2.793620527E-1,9.680762291E0
2.774045384E0,-1.097109199E0,3.032902777E-1,9.695118904E0
2.776291722E0,-1.092921734E0,2.841476798E-1,9.704689980E0
2.778515049E0,-1.078564763E0,3.026920557E-1,9.719047546E0
2.780758336E0,-1.063609719E0,2.979064286E-1,9.699904442E0
2.783003819E0,-1.063609719E0,2.931207716E-1,9.695717812E0
2.785243810E0,-1.077966571E0,2.937189937E-1,9.695118904E0
2.787480382E0,-1.077966571E0,3.122633696E-1,9.709476471E0
2.789713719E0,-1.068993568E0,2.931207716E-1,9.704689980E0
2.791950841E0,-1.077966571E0,3.080759048E-1,9.704689980E0
2.794188634E0,-1.073180914E0,2.985046208E-1,9.695118904E0
2.796425206E0,-1.073779106E0,3.026920557E-1,9.719047546E0
2.798660558E0,-1.068993568E0,2.883351147E-1,9.719047546E0
2.800897069E0,-1.063609719E0,3.074777126E-1,9.690931320E0
2.803133641E0,-1.068395257E0,3.026920557E-1,9.695118904E0
2.805370824E0,-1.034895778E0,3.020938635E-1,9.705288887E0
2.807607640E0,-1.054636598E0,2.979064286E-1,9.728618622E0
2.809844700E0,-1.034895778E0,3.122633696E-1,9.695717812E0
2.812082249E0,-1.054038405E0,2.979064286E-1,9.705288887E0
2.814318761E0,-1.073779106E0,3.026920557E-1,9.714262009E0
2.816554295E0,-1.064207911E0,2.787638307E-1,9.695717812E0
2.818790624E0,-1.049850941E0,2.931207716E-1,9.714859962E0
2.821024205E0,-1.059422255E0,3.026920557E-1,9.733404160E0
2.823249302E0,-1.054636598E0,2.835494876E-1,9.710074425E0
2.825485936E0,-1.049850941E0,2.835494876E-1,9.738189697E0
2.827726109E0,-1.059422255E0,2.931207716E-1,9.738189697E0
2.829979039E0,-1.078564763E0,2.883351147E-1,9.728618622E0
2.832215428E0,-1.059422255E0,2.835494876E-1,9.728618622E0
2.834451207E0,-1.049850941E0,2.691925466E-1,9.724431038E0
2.836684422E0,-1.064806104E0,2.596212626E-1,9.719047546E0
2.838921056E0,-1.068993568E0,2.739782035E-1,9.714262009E0
2.841157994E0,-1.059422255E0,2.835494876E-1,9.710074425E0
2.843394444E0,-1.040279627E0,2.596212626E-1,9.695717812E0
2.845631749E0,-1.050449133E0,2.548356056E-1,9.710074425E0
2.847869298E0,-1.059422255E0,2.691925466E-1,9.714859962E0
2.850105992E0,-1.050449133E0,2.500499785E-1,9.714859962E0
2.852341771E0,-1.045065284E0,2.596212626E-1,9.700503349E0
2.854578221E0,-1.026520967E0,2.398804724E-1,9.719645500E0
2.856814305E0,-1.040279627E0,2.644068897E-1,9.719645500E0
2.859048497E0,-1.021137118E0,2.590230405E-1,9.700503349E0
2.861277073E0,-1.035493970E0,2.596212626E-1,9.705288887E0
2.863526890E0,-1.030708313E0,2.590230405E-1,9.695717812E0
2.865763218E0,-1.040279627E0,2.548356056E-1,9.686145782E0
2.868002538E0,-1.040877819E0,2.452643216E-1,9.705288887E0
2.870234654E0,-1.049850941E0,2.835494876E-1,9.695717812E0
2.872471593E0,-1.035493970E0,2.638086975E-1,9.714859962E0
2.874708409E0,-1.049850941E0,2.548356056E-1,9.700503349E0
2.876945470E0,-1.040877819E0,2.500499785E-1,9.710074425E0
2.879181859E0,-1.016949654E0,2.542374134E-1,9.710074425E0
2.881419041E0,-1.016351461E0,2.542374134E-1,9.690931320E0
2.883656407E0,-1.031306505E0,2.542374134E-1,9.729216576E0
2.885893285E0,-1.025922656E0,2.685943544E-1,9.719645500E0
2.888128819E0,-1.021735311E0,2.542374134E-1,9.729216576E0
2.890365453E0,-1.025922656E0,2.781656384E-1,9.724431038E0
2.892601903E0,-1.040279627E0,2.883351147E-1,9.705288887E0
2.894838719E0,-1.021137118E0,2.733799815E-1,9.719645500E0
2.897075291E0,-1.030708313E0,2.733799815E-1,9.724431038E0
2.899312474E0,-1.030708313E0,2.733799815E-1,9.724431038E0
2.901549107E0,-1.031306505E0,2.638086975E-1,9.734002113E0
2.903781224E0,-1.040279627E0,2.733799815E-1,9.738788605E0
2.906022374E0,-1.016351461E0,2.781656384E-1,9.743574142E0
2.908258641E0,-1.021137118E0,2.781656384E-1,9.729216576E0
2.910496862E0,-1.035493970E0,2.973082066E-1,9.738788605E0
2.912732335E0,-1.030708313E0,2.733799815E-1,9.738788605E0
2.914969212E0,-1.035493970E0,2.925225794E-1,9.729216576E0
2.917206212E0,-1.025922656E0,2.829512656E-1,9.729216576E0
2.919443883E0,-1.030708313E0,2.829512656E-1,9.748359680E0
2.921677586E0,-1.025922656E0,2.781656384E-1,9.743574142E0
2.923903966E0,-1.035493970E0,2.733799815E-1,9.738788605E0
2.926152501E0,-1.021137118E0,2.973082066E-1,9.743574142E0
2.928389012E0,-1.025922656E0,2.781656384E-1,9.738788605E0
2.930629064E0,-1.035493970E0,2.877369225E-1,9.743574142E0
2.932862462E0,-1.021137118E0,2.829512656E-1,9.719645500E0
2.935099827E0,-1.040279627E0,2.829512656E-1,9.734002113E0
2.937337559E0,-1.045663476E0,2.877369225E-1,9.766903877E0
2.939573949E0,-1.016351461E0,2.829512656E-1,9.724431038E0
2.941809422E0,-1.011565804E0,2.829512656E-1,9.743574142E0
2.944046422E0,-1.025922656E0,2.877369225E-1,9.724431038E0
2.946285314E0,-1.035493970E0,2.925225794E-1,9.714859962E0
2.948519688E0,-1.011565804E0,2.925225794E-1,9.738788605E0
2.950756322E0,-1.030708313E0,2.925225794E-1,9.738788605E0
2.952992772E0,-1.021137118E0,2.733799815E-1,9.738788605E0
2.955231419E0,-1.025922656E0,2.781656384E-1,9.724431038E0
2.957467747E0,-1.040279627E0,2.931207716E-1,9.714859962E0
2.959703343E0,-1.040279627E0,2.877369225E-1,9.719645500E0
2.961939794E0,-1.045065284E0,2.691925466E-1,9.714859962E0
2.964176427E0,-1.030110121E0,3.020938635E-1,9.714859962E0
2.966413426E0,-1.039681435E0,3.026920557E-1,9.714859962E0
2.968649815E0,-1.049850941E0,2.883351147E-1,9.710074425E0
2.970887120E0,-1.040279627E0,2.691925466E-1,9.714859962E0
2.973124730E0,-1.049252748E0,2.931207716E-1,9.695717812E0
2.975361607E0,-1.040279627E0,2.787638307E-1,9.705288887E0
2.977597020E0,-1.045065284E0,2.787638307E-1,9.705288887E0
2.979833165E0,-1.054636598E0,2.835494876E-1,9.690931320E0
2.982069920E0,-1.049850941E0,2.691925466E-1,9.705288887E0
2.984306981E0,-1.034895778E0,3.020938635E-1,9.705288887E0
2.986543675E0,-1.039681435E0,3.026920557E-1,9.700503349E0
2.988777807E0,-1.049850941E0,2.979064286E-1,9.714859962E0
2.991006749E0,-1.030708313E0,2.877369225E-1,9.705288887E0
2.993254796E0,-1.044467092E0,3.074777126E-1,9.700503349E0
2.995490392E0,-1.058824062E0,3.026920557E-1,9.695118904E0
2.997729832E0,-1.044467092E0,2.979064286E-1,9.681360245E0
2.999963597E0,-1.068395257E0,3.026920557E-1,9.690333366E0
3.002200841E0,-1.049252748E0,2.931207716E-1,9.686145782E0
3.004437169E0,-1.039681435E0,3.218346536E-1,9.705288887E0
3.006674290E0,-1.044467092E0,3.170489967E-1,9.710074425E0
3.008912022E0,-1.039681435E0,3.170489967E-1,9.681360245E0
3.011148595E0,-1.049252748E0,3.170489967E-1,9.676574707E0
3.013383946E0,-1.030110121E0,3.116651475E-1,9.695717812E0
3.015617162E0,-1.044467092E0,3.170489967E-1,9.710074425E0
3.017843846E0,-1.049252748E0,2.979064286E-1,9.700503349E0
3.020094151E0,-1.025324464E0,3.068794906E-1,9.695717812E0
3.022330724E0,-1.039681435E0,3.212364316E-1,9.710074425E0
3.024571141E0,-1.049252748E0,3.122633696E-1,9.729216576E0
3.026802586E0,-1.044467092E0,2.979064286E-1,9.705288887E0
3.029029942E0,-1.030110121E0,2.973082066E-1,9.710074425E0
3.031277562E0,-1.030110121E0,3.020938635E-1,9.705288887E0
3.033514317E0,-1.015753269E0,3.068794906E-1,9.729216576E0
3.035753881E0,-1.030110121E0,3.068794906E-1,9.710074425E0
3.037987706E0,-1.030708313E0,3.068794906E-1,9.729216576E0
3.040224278E0,-1.015753269E0,3.020938635E-1,9.719645500E0
3.042458653E0,-1.020538807E0,3.068794906E-1,9.729216576E0
3.044687474E0,-1.025922656E0,2.877369225E-1,9.724431038E0
3.046935765E0,-1.025324464E0,3.116651475E-1,9.719645500E0
3.049171300E0,-1.030708313E0,2.973082066E-1,9.724431038E0
3.051410801E0,-1.030708313E0,3.020938635E-1,9.734002113E0
3.053644444E0,-1.049850941E0,3.026920557E-1,9.719645500E0
3.055881505E0,-1.030708313E0,2.829512656E-1,9.719645500E0
3.058118077E0,-1.025922656E0,2.829512656E-1,9.729216576E0
3.060355137E0,-1.016351461E0,2.925225794E-1,9.738788605E0
3.062589756E0,-1.035493970E0,2.925225794E-1,9.734002113E0
3.064817540E0,-1.040279627E0,2.931207716E-1,9.714859962E0
3.067063206E0,-1.030708313E0,2.829512656E-1,9.700503349E0
3.069294835E0,-1.035493970E0,2.877369225E-1,9.705288887E0
3.071542699E0,-1.030708313E0,2.829512656E-1,9.700503349E0
3.073782140E0,-1.011565804E0,2.685943544E-1,9.710074425E0
3.076013280E0,-1.040279627E0,2.739782035E-1,9.710074425E0
3.078248753E0,-1.030708313E0,2.733799815E-1,9.714859962E0
3.080484776E0,-1.035493970E0,2.781656384E-1,9.724431038E0
3.082723058E0,-1.049850941E0,2.644068897E-1,9.705288887E0
3.084958409E0,-1.035493970E0,2.829512656E-1,9.729216576E0
3.087194920E0,-1.045663476E0,2.638086975E-1,9.748359680E0
3.089431493E0,-1.055234790E0,2.691925466E-1,9.738788605E0
3.091665684E0,-1.050449133E0,2.644068897E-1,9.748359680E0
3.093893468E0,-1.040279627E0,2.931207716E-1,9.714859962E0
3.096142308E0,-1.064207911E0,2.739782035E-1,9.733404160E0
3.098380101E0,-1.049850941E0,2.739782035E-1,9.728618622E0
3.100619603E0,-1.045663476E0,2.446661144E-1,9.734002113E0
3.102852208E0,-1.060020447E0,2.691925466E-1,9.742975235E0
3.105088475E0,-1.073779106E0,3.026920557E-1,9.742975235E0
3.107325108E0,-1.064207911E0,2.835494876E-1,9.723833084E0
3.109562352E0,-1.068993568E0,2.787638307E-1,9.704689980E0
3.111795750E0,-1.083350420E0,2.793620527E-1,9.719047546E0
3.114023961E0,-1.064207911E0,2.883351147E-1,9.690333366E0
3.116273839E0,-1.064207911E0,2.883351147E-1,9.709476471E0
3.118510167E0,-1.068993568E0,2.835494876E-1,9.723833084E0
3.120748570E0,-1.059422255E0,2.691925466E-1,9.728618622E0
3.122982274E0,-1.054636598E0,2.835494876E-1,9.714859962E0
3.125218968E0,-1.054636598E0,2.787638307E-1,9.705288887E0
3.127456273E0,-1.054636598E0,2.787638307E-1,9.705288887E0
3.129692540E0,-1.035493970E0,2.829512656E-1,9.700503349E0
3.131926915E0,-1.030708313E0,2.733799815E-1,9.705288887E0
3.134153416E0,-1.049850941E0,2.787638307E-1,9.705288887E0
3.136392064E0,-1.054636598E0,2.787638307E-1,9.695717812E0
3.138639500E0,-1.049252748E0,2.931207716E-1,9.690931320E0
3.140875463E0,-1.035493970E0,2.829512656E-1,9.714859962E0
3.143100987E0,-1.040279627E0,2.835494876E-1,9.700503349E0
3.145337804E0,-1.034895778E0,2.979064286E-1,9.686145782E0
3.147586400E0,-1.025922656E0,2.877369225E-1,9.705288887E0
3.149826085E0,-1.021137118E0,2.685943544E-1,9.671789169E0
3.152063939E0,-1.025922656E0,2.644068897E-1,9.662218094E0
3.154296849E0,-1.040279627E0,2.739782035E-1,9.671789169E0
3.156526159E0,-1.025922656E0,2.685943544E-1,9.690931320E0
3.158752294E0,-1.015753269E0,3.020938635E-1,9.690931320E0
3.161006017E0,-1.025324464E0,2.925225794E-1,9.700503349E0
3.163243931E0,-1.025922656E0,2.829512656E-1,9.686145782E0
3.165483982E0,-1.030708313E0,2.973082066E-1,9.714859962E0
3.167717076E0,-1.025324464E0,3.068794906E-1,9.714859962E0
3.169954747E0,-1.025324464E0,3.068794906E-1,9.705288887E0
3.172188206E0,-1.015753269E0,3.212364316E-1,9.734002113E0
3.174414952E0,-1.035493970E0,3.116651475E-1,9.738788605E0
3.176663182E0,-1.025324464E0,3.164508045E-1,9.714859962E0
3.178899815E0,-1.020538807E0,3.164508045E-1,9.738788605E0
3.181139745E0,-1.054038405E0,3.314059377E-1,9.742975235E0
3.183373204E0,-1.040279627E0,3.164508045E-1,9.752547264E0
3.185610570E0,-1.054038405E0,3.266202807E-1,9.752547264E0
3.187848302E0,-1.054636598E0,3.170489967E-1,9.747760773E0
3.190084630E0,-1.059422255E0,3.218346536E-1,9.752547264E0
3.192319920E0,-1.064207911E0,3.122633696E-1,9.747760773E0
3.194556432E0,-1.078564763E0,3.122633696E-1,9.747760773E0
3.196793126E0,-1.064207911E0,3.122633696E-1,9.752547264E0
3.199030492E0,-1.083350420E0,3.170489967E-1,9.757332802E0
3.201267064E0,-1.087537885E0,3.266202807E-1,9.738189697E0
3.203504185E0,-1.078564763E0,3.122633696E-1,9.757332802E0
3.205741917E0,-1.102493048E0,3.032902777E-1,9.738189697E0
3.207978490E0,-1.077966571E0,3.266202807E-1,9.723833084E0
3.210214024E0,-1.097707391E0,3.128615618E-1,9.742975235E0
3.212450292E0,-1.083350420E0,3.122633696E-1,9.728618622E0
3.214686864E0,-1.092921734E0,3.080759048E-1,9.728618622E0
3.216923924E0,-1.087537885E0,3.272185028E-1,9.714262009E0
3.219160619E0,-1.101894855E0,3.080759048E-1,9.709476471E0
3.221397923E0,-1.092323542E0,3.128615618E-1,9.714262009E0
3.223635472E0,-1.073180914E0,3.074777126E-1,9.719047546E0
3.225871983E0,-1.088136077E0,2.937189937E-1,9.699904442E0
3.228107274E0,-1.092323542E0,3.080759048E-1,9.709476471E0
3.230343846E0,-1.101894855E0,3.176472187E-1,9.690333366E0
3.232580846E0,-1.083350420E0,2.889333367E-1,9.699904442E0
3.234819249E0,-1.088136077E0,2.841476798E-1,9.699904442E0
3.237054112E0,-1.077966571E0,3.128615618E-1,9.671191216E0
3.239291234E0,-1.097109199E0,2.937189937E-1,9.690333366E0
3.241525304E0,-1.101894855E0,3.080759048E-1,9.680762291E0
3.243752415E0,-1.097109199E0,3.176472187E-1,9.695118904E0
3.246001134E0,-1.077368379E0,3.272185028E-1,9.666405678E0
3.248237401E0,-1.077966571E0,3.080759048E-1,9.685547829E0
3.250477330E0,-1.082154036E0,3.176472187E-1,9.666405678E0
3.252711339E0,-1.082752228E0,2.985046208E-1,9.699904442E0
3.254947972E0,-1.068395257E0,3.218346536E-1,9.685547829E0
3.257185093E0,-1.082752228E0,3.176472187E-1,9.690333366E0
3.259422825E0,-1.068395257E0,3.074777126E-1,9.699904442E0
3.261656346E0,-1.077966571E0,3.080759048E-1,9.695118904E0
3.263879795E0,-1.058824062E0,2.979064286E-1,9.695717812E0
3.266119481E0,-1.058824062E0,2.979064286E-1,9.705288887E0
3.268367772E0,-1.049252748E0,2.883351147E-1,9.690931320E0
3.270607823E0,-1.049252748E0,2.931207716E-1,9.700503349E0
3.272844152E0,-1.049850941E0,2.835494876E-1,9.700503349E0
3.275075718E0,-1.040279627E0,2.739782035E-1,9.690931320E0
3.277304844E0,-1.035493970E0,2.691925466E-1,9.695717812E0
3.279552708E0,-1.021137118E0,2.638086975E-1,9.710074425E0
3.281788182E0,-1.001994491E0,2.632105052E-1,9.724431038E0
3.284027440E0,-1.001994491E0,2.590230405E-1,9.710074425E0
3.286261693E0,-1.011565804E0,2.685943544E-1,9.719645500E0
3.288498692E0,-1.012163997E0,2.590230405E-1,9.724431038E0
3.290735081E0,-1.007378340E0,2.542374134E-1,9.724431038E0
3.292972081E0,-9.834501147E-1,2.344966233E-1,9.748957634E0
3.295209874E0,-9.738788009E-1,2.344966233E-1,9.729815483E0
3.297446446E0,-9.786644578E-1,2.392822653E-1,9.748957634E0
3.299681798E0,-9.840483069E-1,2.249253243E-1,9.748957634E0
3.301918309E0,-9.690931439E-1,2.249253243E-1,9.734601021E0
3.304154881E0,-9.690931439E-1,2.297109663E-1,9.725028992E0
3.306392003E0,-9.690931439E-1,2.344966233E-1,9.744172096E0
3.308628636E0,-9.643075466E-1,2.530409992E-1,9.739386559E0
3.310865941E0,-9.786644578E-1,2.488535494E-1,9.767501831E0
3.313103550E0,-9.792626500E-1,2.297109663E-1,9.753743172E0
3.315340306E0,-9.888339639E-1,2.392822653E-1,9.762716293E0
3.317575536E0,-9.738788009E-1,2.392822653E-1,9.753743172E0
3.319811864E0,-9.978070259E-1,2.440679073E-1,9.753145218E0
3.322048375E0,-9.882357717E-1,2.632105052E-1,9.743574142E0
3.324282567E0,-1.002592683E0,2.440679073E-1,9.753145218E0
3.326510472E0,-9.930213690E-1,2.536391914E-1,9.762716293E0
3.328759556E0,-1.002592683E0,2.584248483E-1,9.767501831E0
3.330997288E0,-1.012163997E0,2.398804724E-1,9.748359680E0
3.333236608E0,-1.016949654E0,2.542374134E-1,9.757930756E0
3.335469395E0,-1.021137118E0,2.781656384E-1,9.748359680E0
3.337705663E0,-1.006780148E0,2.775674164E-1,9.753145218E0
3.339942296E0,-9.828519225E-1,2.775674164E-1,9.729815483E0
3.342179295E0,-1.002592683E0,2.632105052E-1,9.748359680E0
3.344415929E0,-1.006780148E0,2.733799815E-1,9.705288887E0
3.346652989E0,-1.001994491E0,2.685943544E-1,9.719645500E0
3.348890538E0,-1.016949654E0,2.542374134E-1,9.738788605E0
3.351127171E0,-1.001994491E0,2.638086975E-1,9.705288887E0
3.353362950E0,-1.016351461E0,2.733799815E-1,9.686145782E0
3.355599278E0,-1.006780148E0,2.638086975E-1,9.710074425E0
3.357835851E0,-9.972088337E-1,2.590230405E-1,9.705886841E0
3.360072850E0,-9.918249846E-1,2.781656384E-1,9.677172661E0
3.362309483E0,-1.001994491E0,2.877369225E-1,9.700503349E0
3.364546605E0,-1.001994491E0,2.733799815E-1,9.700503349E0
3.366784398E0,-1.016351461E0,2.781656384E-1,9.686145782E0
3.369020909E0,-1.021137118E0,2.829512656E-1,9.686145782E0
3.371256322E0,-1.010967612E0,2.877369225E-1,9.662218094E0
3.373493077E0,-1.021137118E0,2.781656384E-1,9.686145782E0
3.375729588E0,-1.020538807E0,2.973082066E-1,9.686145782E0
3.377966466E0,-1.010967612E0,3.068794906E-1,9.681360245E0
3.380203038E0,-1.010967612E0,2.973082066E-1,9.690931320E0
3.382440648E0,-1.025922656E0,2.829512656E-1,9.686145782E0
3.384679173E0,-1.030708313E0,2.829512656E-1,9.690931320E0
3.386914525E0,-1.044467092E0,2.979064286E-1,9.686145782E0
3.389149998E0,-1.039681435E0,2.931207716E-1,9.681360245E0
3.391386022E0,-1.030110121E0,3.020938635E-1,9.700503349E0
3.393622960E0,-1.054038405E0,3.218346536E-1,9.695717812E0
3.395860204E0,-1.054038405E0,3.170489967E-1,9.695717812E0
3.398096654E0,-1.044467092E0,3.218346536E-1,9.705288887E0
3.400330967E0,-1.034297585E0,3.355933726E-1,9.700503349E0
3.402559483E0,-1.044467092E0,3.266202807E-1,9.700503349E0
3.404808079E0,-1.054038405E0,3.170489967E-1,9.700503349E0
3.407043614E0,-1.053440213E0,3.361915946E-1,9.695717812E0
3.409283178E0,-1.039083242E0,3.314059377E-1,9.695717812E0
3.411516393E0,-1.043868899E0,3.314059377E-1,9.681360245E0
3.413752415E0,-1.039083242E0,3.361915946E-1,9.690931320E0
3.415990636E0,-1.049252748E0,3.409772217E-1,9.714859962E0
3.418227452E0,-1.039681435E0,3.170489967E-1,9.705288887E0
3.420465428E0,-1.039681435E0,3.122633696E-1,9.700503349E0
3.422701817E0,-1.039681435E0,3.212364316E-1,9.714859962E0
3.424937413E0,-1.049252748E0,3.170489967E-1,9.700503349E0
3.427173741E0,-1.039681435E0,3.164508045E-1,9.724431038E0
3.429410253E0,-1.039681435E0,3.122633696E-1,9.700503349E0
3.431644383E0,-1.044467092E0,3.170489967E-1,9.700503349E0
3.433872227E0,-1.034895778E0,3.068794906E-1,9.710074425E0
3.436121068E0,-1.020538807E0,2.973082066E-1,9.710074425E0
3.438358861E0,-1.015753269E0,2.973082066E-1,9.695717812E0
3.440598302E0,-1.006181955E0,3.116651475E-1,9.686145782E0
3.442830663E0,-1.020538807E0,3.020938635E-1,9.695717812E0
3.445067052E0,-1.020538807E0,2.973082066E-1,9.690931320E0
3.447304112E0,-1.035493970E0,2.925225794E-1,9.705288887E0
3.449541173E0,-1.011565804E0,2.829512656E-1,9.719645500E0
3.451774632E0,-1.006780148E0,2.829512656E-1,9.714859962E0
3.454002904E0,-1.006181955E0,2.925225794E-1,9.700503349E0
3.456252598E0,-1.035493970E0,2.829512656E-1,9.705288887E0
3.458488927E0,-1.035493970E0,2.925225794E-1,9.714859962E0
3.460727208E0,-1.030708313E0,2.781656384E-1,9.719645500E0
3.462960851E0,-1.040279627E0,2.787638307E-1,9.710074425E0
3.465197911E0,-1.049850941E0,2.835494876E-1,9.690931320E0
3.467434788E0,-1.045065284E0,2.931207716E-1,9.705288887E0
3.469671361E0,-1.045065284E0,2.931207716E-1,9.710074425E0
3.471908360E0,-1.025922656E0,2.925225794E-1,9.714859962E0
3.474146153E0,-1.045065284E0,3.068794906E-1,9.723833084E0
3.476382420E0,-1.030708313E0,3.020938635E-1,9.724431038E0
3.478617833E0,-1.058824062E0,2.979064286E-1,9.695118904E0
3.480854588E0,-1.035493970E0,2.877369225E-1,9.729216576E0
3.483091222E0,-1.063609719E0,3.074777126E-1,9.704689980E0
3.485328343E0,-1.045065284E0,2.973082066E-1,9.724431038E0
3.487561802E0,-1.054636598E0,2.979064286E-1,9.719047546E0
3.489789769E0,-1.040279627E0,2.877369225E-1,9.738788605E0
3.492039769E0,-1.059422255E0,3.026920557E-1,9.733404160E0
3.494276341E0,-1.068993568E0,3.026920557E-1,9.742975235E0
3.496514928E0,-1.045065284E0,3.068794906E-1,9.743574142E0
3.498748082E0,-1.054636598E0,2.979064286E-1,9.714859962E0
3.500984471E0,-1.059422255E0,2.931207716E-1,9.710074425E0
3.503221837E0,-1.063609719E0,3.218346536E-1,9.709476471E0
3.505458714E0,-1.054038405E0,3.074777126E-1,9.723833084E0
3.507695897E0,-1.058824062E0,3.026920557E-1,9.705288887E0
3.509933568E0,-1.068993568E0,2.931207716E-1,9.738189697E0
3.512169835E0,-1.078564763E0,2.883351147E-1,9.719047546E0
3.514405370E0,-1.058824062E0,2.979064286E-1,9.704689980E0
3.516641637E0,-1.059422255E0,2.979064286E-1,9.728618622E0
3.518878331E0,-1.058824062E0,3.074777126E-1,9.699904442E0
3.521115575E0,-1.049850941E0,2.931207716E-1,9.710074425E0
3.523351964E0,-1.058824062E0,3.026920557E-1,9.704689980E0
3.525589085E0,-1.059422255E0,2.931207716E-1,9.733404160E0
3.527826817E0,-1.064207911E0,2.979064286E-1,9.714262009E0
3.530063390E0,-1.073180914E0,2.979064286E-1,9.704689980E0
3.532298741E0,-1.068993568E0,2.979064286E-1,9.709476471E0
3.534535253E0,-1.068993568E0,2.787638307E-1,9.690931320E0
3.536771825E0,-1.064207911E0,2.883351147E-1,9.704689980E0
3.539009007E0,-1.059422255E0,2.979064286E-1,9.714262009E0
3.541245824E0,-1.040279627E0,2.835494876E-1,9.710074425E0
3.543482945E0,-1.045065284E0,2.883351147E-1,9.705288887E0
3.545720738E0,-1.049850941E0,2.739782035E-1,9.690931320E0
3.547957188E0,-1.073779106E0,2.835494876E-1,9.695118904E0
3.550192540E0,-1.064207911E0,2.691925466E-1,9.686145782E0
3.552429112E0,-1.064207911E0,2.835494876E-1,9.699904442E0
3.554665868E0,-1.059422255E0,2.979064286E-1,9.719047546E0
3.556902684E0,-1.063609719E0,3.026920557E-1,9.709476471E0
3.559139073E0,-1.040279627E0,2.931207716E-1,9.705288887E0
3.561376317E0,-1.058824062E0,2.979064286E-1,9.700503349E0
3.563613988E0,-1.054636598E0,2.883351147E-1,9.705288887E0
3.565849400E0,-1.054636598E0,2.835494876E-1,9.710074425E0
3.568077610E0,-1.064207911E0,2.787638307E-1,9.733404160E0
3.570311253E0,-1.054636598E0,2.787638307E-1,9.719645500E0
3.572559483E0,-1.054636598E0,2.931207716E-1,9.719645500E0
3.574797948E0,-1.059422255E0,2.931207716E-1,9.710074425E0
3.577035741E0,-1.064207911E0,2.835494876E-1,9.705288887E0
3.579269993E0,-1.050449133E0,2.691925466E-1,9.738788605E0
3.581508030E0,-1.049850941E0,2.739782035E-1,9.719645500E0
3.583744542E0,-1.049850941E0,2.787638307E-1,9.724431038E0
3.585979710E0,-1.049850941E0,2.787638307E-1,9.719645500E0
3.588216405E0,-1.068993568E0,2.835494876E-1,9.709476471E0
3.590452977E0,-1.054636598E0,2.835494876E-1,9.723833084E0
3.592690160E0,-1.040279627E0,2.925225794E-1,9.729216576E0
3.594926671E0,-1.011565804E0,2.781656384E-1,9.690931320E0
3.597163731E0,-1.030708313E0,2.877369225E-1,9.710074425E0
3.599401341E0,-1.034895778E0,2.925225794E-1,9.700503349E0
3.601635106E0,-1.016351461E0,2.733799815E-1,9.714859962E0
3.603861424E0,-1.016351461E0,2.925225794E-1,9.710074425E0
3.606109715E0,-1.015753269E0,2.877369225E-1,9.690931320E0
3.608343236E0,-1.016351461E0,2.829512656E-1,9.690931320E0
3.610574437E0,-1.001994491E0,2.967100143E-1,9.729216576E0
3.612820286E0,-1.007378340E0,2.590230405E-1,9.724431038E0
3.615057408E0,-1.016949654E0,2.590230405E-1,9.729216576E0
3.617298131E0,-1.021137118E0,2.685943544E-1,9.719645500E0
3.619531407E0,-1.021137118E0,2.781656384E-1,9.710074425E0
3.621766942E0,-1.006780148E0,2.685943544E-1,9.724431038E0
3.624003331E0,-1.021137118E0,2.781656384E-1,9.719645500E0
3.626240453E0,-1.011565804E0,2.877369225E-1,9.705288887E0
3.628477452E0,-1.016351461E0,2.685943544E-1,9.705288887E0
3.630711033E0,-1.011565804E0,2.829512656E-1,9.724431038E0
3.632936680E0,-1.011565804E0,2.829512656E-1,9.710074425E0
3.635176915E0,-1.011565804E0,2.781656384E-1,9.714859962E0
3.637425206E0,-9.972088337E-1,2.775674164E-1,9.705886841E0
3.639660497E0,-1.006780148E0,2.829512656E-1,9.719645500E0
3.641885594E0,-1.001994491E0,2.733799815E-1,9.719645500E0
3.644121983E0,-1.021137118E0,2.781656384E-1,9.719645500E0
3.646371007E0,-1.006780148E0,2.685943544E-1,9.724431038E0
3.648610265E0,-9.972088337E-1,3.014956415E-1,9.729216576E0
3.650847630E0,-1.001994491E0,2.823530734E-1,9.748359680E0
3.653079808E0,-1.025922656E0,2.877369225E-1,9.729216576E0
3.655310582E0,-1.011565804E0,2.829512656E-1,9.734002113E0
3.657559483E0,-1.025922656E0,3.020938635E-1,9.734002113E0
3.659790868E0,-1.006780148E0,3.062812984E-1,9.734002113E0
3.662029576E0,-1.030110121E0,3.212364316E-1,9.753145218E0
3.664263035E0,-1.016351461E0,3.164508045E-1,9.748359680E0
3.666501134E0,-1.011565804E0,3.020938635E-1,9.724431038E0
3.668738255E0,-1.015753269E0,3.116651475E-1,9.729216576E0
3.670975804E0,-1.021137118E0,3.020938635E-1,9.734002113E0
3.673209385E0,-9.972088337E-1,2.871387303E-1,9.719645500E0
3.675436192E0,-1.011565804E0,3.020938635E-1,9.724431038E0
3.677684483E0,-1.040279627E0,2.931207716E-1,9.705288887E0
3.679921056E0,-1.030110121E0,3.164508045E-1,9.719645500E0
3.682161046E0,-1.030708313E0,2.925225794E-1,9.710074425E0
3.684394688E0,-1.030708313E0,2.973082066E-1,9.714859962E0
3.686631810E0,-1.025922656E0,2.877369225E-1,9.714859962E0
3.688869603E0,-1.030708313E0,2.877369225E-1,9.719645500E0
3.691106053E0,-1.035493970E0,2.877369225E-1,9.714859962E0
3.693338658E0,-1.044467092E0,3.122633696E-1,9.705288887E0
3.695567723E0,-1.025324464E0,3.068794906E-1,9.695717812E0
3.697814549E0,-1.020538807E0,2.973082066E-1,9.705288887E0
3.700051732E0,-1.035493970E0,2.877369225E-1,9.714859962E0
3.702290806E0,-1.054636598E0,2.835494876E-1,9.710074425E0
3.704525364E0,-1.040279627E0,2.883351147E-1,9.705288887E0
3.706763157E0,-1.039681435E0,2.883351147E-1,9.690931320E0
3.708999730E0,-1.049252748E0,2.979064286E-1,9.705288887E0
3.711235326E0,-1.025922656E0,2.829512656E-1,9.690931320E0
3.713471837E0,-1.054636598E0,2.883351147E-1,9.710074425E0
3.715708409E0,-1.044467092E0,2.883351147E-1,9.690931320E0
3.717945409E0,-1.049850941E0,2.787638307E-1,9.690931320E0
3.720181798E0,-1.040279627E0,2.739782035E-1,9.686145782E0
3.722415745E0,-1.054636598E0,2.883351147E-1,9.690931320E0
3.724643223E0,-1.040279627E0,2.596212626E-1,9.710074425E0
3.726893285E0,-1.054636598E0,2.787638307E-1,9.710074425E0
3.729128819E0,-1.045065284E0,2.931207716E-1,9.710074425E0
3.731368139E0,-1.045065284E0,2.691925466E-1,9.700503349E0
3.733596532E0,-1.059422255E0,2.787638307E-1,9.700503349E0
3.735827061E0,-1.035493970E0,2.877369225E-1,9.729216576E0
3.738075597E0,-1.059422255E0,2.691925466E-1,9.686145782E0
3.740313267E0,-1.045065284E0,2.787638307E-1,9.724431038E0
3.742550206E0,-1.060020447E0,2.644068897E-1,9.723833084E0
3.744774876E0,-1.049850941E0,2.787638307E-1,9.719645500E0
3.747022618E0,-1.054636598E0,2.883351147E-1,9.705288887E0
3.749258946E0,-1.045065284E0,2.787638307E-1,9.700503349E0
3.751498510E0,-1.045065284E0,2.835494876E-1,9.700503349E0
3.753732518E0,-1.035493970E0,2.925225794E-1,9.719645500E0
3.755969151E0,-1.054636598E0,2.787638307E-1,9.700503349E0
3.758206273E0,-1.045065284E0,2.925225794E-1,9.734002113E0
3.760444066E0,-1.040279627E0,2.787638307E-1,9.710074425E0
3.762680638E0,-1.039681435E0,3.122633696E-1,9.690931320E0
3.764916173E0,-1.011565804E0,3.020938635E-1,9.729216576E0
3.767152440E0,-1.021137118E0,3.020938635E-1,9.743574142E0
3.769389012E0,-1.021137118E0,3.020938635E-1,9.724431038E0
3.771623082E0,-1.035493970E0,2.877369225E-1,9.714859962E0
3.773847813E0,-1.030708313E0,2.877369225E-1,9.714859962E0
3.776088109E0,-1.021137118E0,2.877369225E-1,9.724431038E0
3.778337620E0,-1.025922656E0,2.973082066E-1,9.753145218E0
3.780577123E0,-1.045065284E0,2.973082066E-1,9.734002113E0
3.782812352E0,-1.020538807E0,3.116651475E-1,9.719645500E0
3.785045812E0,-1.030708313E0,2.877369225E-1,9.729216576E0
3.787282872E0,-1.049252748E0,3.074777126E-1,9.719645500E0
3.789519933E0,-1.025922656E0,2.925225794E-1,9.729216576E0
3.791753392E0,-1.030708313E0,2.973082066E-1,9.719645500E0
3.793981663E0,-1.040279627E0,2.925225794E-1,9.714859962E0
3.796231358E0,-1.040279627E0,3.020938635E-1,9.724431038E0
3.798467686E0,-1.054636598E0,2.931207716E-1,9.710074425E0
3.800706029E0,-1.040279627E0,2.733799815E-1,9.729216576E0
3.802939794E0,-1.035493970E0,2.781656384E-1,9.710074425E0
3.805176427E0,-1.045065284E0,2.644068897E-1,9.710074425E0
3.807413548E0,-1.045065284E0,2.979064286E-1,9.714859962E0
3.809650059E0,-1.045065284E0,2.739782035E-1,9.705288887E0
3.811887181E0,-1.049850941E0,2.883351147E-1,9.719645500E0
3.814124974E0,-1.054636598E0,2.883351147E-1,9.705288887E0
3.816361485E0,-1.059422255E0,2.691925466E-1,9.723833084E0
3.818593785E0,-1.073779106E0,2.739782035E-1,9.714262009E0
3.820820347E0,-1.073779106E0,2.739782035E-1,9.714262009E0
3.823063695E0,-1.078564763E0,2.602194548E-1,9.699904442E0
3.825294835E0,-1.069591761E0,2.596212626E-1,9.728618622E0
3.827546666E0,-1.069591761E0,2.548356056E-1,9.728618622E0
3.829781530E0,-1.049850941E0,2.835494876E-1,9.724431038E0
3.832021581E0,-1.060020447E0,2.596212626E-1,9.723833084E0
3.834255040E0,-1.078564763E0,2.739782035E-1,9.723833084E0
3.836490331E0,-1.068993568E0,2.691925466E-1,9.685547829E0
3.838726659E0,-1.054636598E0,2.787638307E-1,9.728618622E0
3.840963475E0,-1.078564763E0,2.691925466E-1,9.719047546E0
3.843200597E0,-1.064207911E0,2.739782035E-1,9.709476471E0
3.845437291E0,-1.068993568E0,2.979064286E-1,9.719047546E0
3.847674534E0,-1.068993568E0,2.787638307E-1,9.709476471E0
3.849912144E0,-1.078564763E0,2.739782035E-1,9.723833084E0
3.852148900E0,-1.078564763E0,2.835494876E-1,9.719047546E0
3.854384190E0,-1.088136077E0,2.793620527E-1,9.709476471E0
3.856620702E0,-1.064207911E0,2.931207716E-1,9.714262009E0
3.858856969E0,-1.073779106E0,2.787638307E-1,9.704689980E0
3.861094090E0,-1.064207911E0,2.979064286E-1,9.714262009E0
3.863330724E0,-1.068395257E0,3.026920557E-1,9.709476471E0
3.865568150E0,-1.059422255E0,2.835494876E-1,9.699904442E0
3.867805943E0,-1.063609719E0,2.979064286E-1,9.704689980E0
3.870042454E0,-1.064207911E0,2.931207716E-1,9.699904442E0
3.872277745E0,-1.049252748E0,3.074777126E-1,9.705288887E0
3.874514256E0,-1.049252748E0,3.026920557E-1,9.690931320E0
3.876750768E0,-1.049252748E0,3.026920557E-1,9.686145782E0
3.878987706E0,-1.044467092E0,3.026920557E-1,9.700503349E0
3.881221837E0,-1.049252748E0,2.979064286E-1,9.690931320E0
3.883450902E0,-1.039681435E0,2.883351147E-1,9.686145782E0
3.885699498E0,-1.049252748E0,3.074777126E-1,9.705288887E0
3.887935948E0,-1.025324464E0,3.068794906E-1,9.700503349E0
3.890173985E0,-1.025324464E0,3.164508045E-1,9.710074425E0
3.892407811E0,-1.015753269E0,3.116651475E-1,9.719645500E0
3.894644383E0,-1.015753269E0,3.164508045E-1,9.690931320E0
3.896881505E0,-1.015753269E0,3.020938635E-1,9.700503349E0
3.899116673E0,-1.020538807E0,3.068794906E-1,9.700503349E0
3.901345250E0,-1.034895778E0,3.164508045E-1,9.724431038E0
3.903575657E0,-1.044467092E0,3.026920557E-1,9.714859962E0
3.905829503E0,-1.040279627E0,2.973082066E-1,9.719645500E0
3.908066319E0,-1.025922656E0,2.877369225E-1,9.724431038E0
3.910305943E0,-1.025922656E0,2.829512656E-1,9.724431038E0
3.912537999E0,-1.025324464E0,3.020938635E-1,9.714859962E0
3.914775304E0,-1.011565804E0,2.973082066E-1,9.738788605E0
3.917011571E0,-1.025922656E0,2.781656384E-1,9.729216576E0
3.919248753E0,-1.035493970E0,2.973082066E-1,9.719645500E0
3.921486485E0,-1.040279627E0,2.973082066E-1,9.734002113E0
3.923723119E0,-1.030708313E0,2.973082066E-1,9.743574142E0
3.925958714E0,-1.021137118E0,2.973082066E-1,9.753145218E0
3.928195165E0,-1.045065284E0,2.829512656E-1,9.738788605E0
3.930431554E0,-1.045065284E0,2.787638307E-1,9.729216576E0
3.932668858E0,-1.040279627E0,3.020938635E-1,9.729216576E0
3.934905370E0,-1.059422255E0,2.979064286E-1,9.728618622E0
3.937142369E0,-1.045065284E0,2.931207716E-1,9.714859962E0
3.939380345E0,-1.049850941E0,2.931207716E-1,9.729216576E0
3.941613804E0,-1.049850941E0,2.877369225E-1,9.747760773E0
3.943841466E0,-1.040279627E0,2.925225794E-1,9.748359680E0
3.946094335E0,-1.064207911E0,2.883351147E-1,9.738189697E0
3.948325292E0,-1.049850941E0,2.883351147E-1,9.738189697E0
3.950565465E0,-1.054636598E0,2.883351147E-1,9.752547264E0
3.952797581E0,-1.045065284E0,2.973082066E-1,9.752547264E0
3.955036046E0,-1.059422255E0,2.931207716E-1,9.742975235E0
3.957273594E0,-1.045065284E0,2.883351147E-1,9.714859962E0
3.959510228E0,-1.059422255E0,2.835494876E-1,9.728618622E0
3.961743016E0,-1.054636598E0,2.883351147E-1,9.733404160E0
3.963970433E0,-1.054038405E0,3.026920557E-1,9.709476471E0
3.966219151E0,-1.064207911E0,2.931207716E-1,9.704689980E0
3.968455907E0,-1.045065284E0,2.973082066E-1,9.733404160E0
3.970695592E0,-1.059422255E0,2.931207716E-1,9.714262009E0
3.972929905E0,-1.040279627E0,2.973082066E-1,9.710074425E0
3.975167698E0,-1.054038405E0,3.074777126E-1,9.723833084E0
3.977403966E0,-1.054038405E0,3.074777126E-1,9.695717812E0
3.979639256E0,-1.040279627E0,3.068794906E-1,9.734002113E0
3.981875829E0,-1.058824062E0,3.074777126E-1,9.714262009E0
3.984112645E0,-1.064207911E0,3.122633696E-1,9.738189697E0
3.986346592E0,-1.034895778E0,3.068794906E-1,9.700503349E0
3.988574315E0,-1.049252748E0,3.026920557E-1,9.710074425E0
3.990822911E0,-1.025324464E0,2.925225794E-1,9.690931320E0
3.993061009E0,-1.054038405E0,3.074777126E-1,9.719047546E0
3.995300511E0,-1.045065284E0,2.979064286E-1,9.724431038E0
3.997533177E0,-1.049850941E0,2.787638307E-1,9.705288887E0
3.999769444E0,-1.021137118E0,2.829512656E-1,9.700503349E0
4.002006200E0,-1.030110121E0,3.020938635E-1,9.700503349E0
4.004243077E0,-1.016351461E0,2.829512656E-1,9.705288887E0
4.006480015E0,-1.035493970E0,2.644068897E-1,9.690931320E0
4.008717259E0,-1.011565804E0,2.829512656E-1,9.724431038E0
4.010954869E0,-1.035493970E0,2.685943544E-1,9.719645500E0
4.013191380E0,-1.016949654E0,2.590230405E-1,9.719645500E0
4.015426854E0,-1.016351461E0,2.590230405E-1,9.714859962E0
4.017663182E0,-1.007378340E0,2.350948304E-1,9.701101303E0
4.019899754E0,-1.021735311E0,2.542374134E-1,9.719645500E0
4.022136815E0,-1.002592683E0,2.488535494E-1,9.734002113E0
4.024373448E0,-1.001994491E0,2.590230405E-1,9.710074425E0
4.026610570E0,-1.002592683E0,2.344966233E-1,9.734002113E0
4.028848363E0,-1.007378340E0,2.446661144E-1,9.734002113E0
4.031084874E0,-1.016949654E0,2.542374134E-1,9.734002113E0
4.033320286E0,-1.016949654E0,2.494517565E-1,9.734002113E0
4.035556981E0,-9.978070259E-1,2.440679073E-1,9.710074425E0
4.037793248E0,-1.016949654E0,2.446661144E-1,9.724431038E0
4.040030186E0,-1.016949654E0,2.494517565E-1,9.724431038E0
4.042266942E0,-1.011565804E0,2.685943544E-1,9.724431038E0
4.044504185E0,-1.026520967E0,2.398804724E-1,9.719645500E0
4.046742283E0,-1.011565804E0,2.733799815E-1,9.734002113E0
4.048978734E0,-1.021735311E0,2.685943544E-1,9.753145218E0
4.051214024E0,-1.021735311E0,2.494517565E-1,9.734002113E0
4.053450292E0,-1.016351461E0,2.590230405E-1,9.714859962E0
4.055684117E0,-1.040877819E0,2.446661144E-1,9.743574142E0
4.057912267E0,-1.021735311E0,2.638086975E-1,9.757930756E0
4.060160863E0,-1.045663476E0,2.590230405E-1,9.748359680E0
4.062395970E0,-1.045663476E0,2.638086975E-1,9.738788605E0
4.064627172E0,-1.031306505E0,2.590230405E-1,9.724431038E0
4.066854283E0,-1.040877819E0,2.685943544E-1,9.738788605E0
4.069095311E0,-1.030708313E0,2.590230405E-1,9.714859962E0
4.071345738E0,-1.040279627E0,2.685943544E-1,9.729216576E0
4.073584142E0,-1.049850941E0,2.835494876E-1,9.719645500E0
4.075818150E0,-1.040279627E0,2.877369225E-1,9.738788605E0
4.078043675E0,-1.021137118E0,2.638086975E-1,9.719645500E0
4.080291539E0,-1.021137118E0,2.733799815E-1,9.714859962E0
4.082526280E0,-1.040877819E0,2.542374134E-1,9.724431038E0
4.084756505E0,-1.016351461E0,2.733799815E-1,9.710074425E0
4.087001134E0,-1.016351461E0,2.781656384E-1,9.705288887E0
4.089237645E0,-1.021137118E0,2.829512656E-1,9.714859962E0
4.091477269E0,-1.011565804E0,2.685943544E-1,9.705288887E0
4.093711583E0,-1.016351461E0,2.877369225E-1,9.710074425E0
4.095947911E0,-1.025922656E0,2.733799815E-1,9.700503349E0
4.098185032E0,-1.011565804E0,2.781656384E-1,9.690931320E0
4.100422764E0,-1.016351461E0,2.829512656E-1,9.705288887E0
4.102656407E0,-1.030708313E0,2.685943544E-1,9.710074425E0
4.104882970E0,-1.035493970E0,2.739782035E-1,9.700503349E0
4.107131261E0,-1.011565804E0,2.829512656E-1,9.695717812E0
4.109368016E0,-1.011565804E0,2.829512656E-1,9.710074425E0
4.111607151E0,-1.021137118E0,2.925225794E-1,9.705288887E0
4.113838780E0,-1.020538807E0,2.973082066E-1,9.695717812E0
4.116078526E0,-1.030708313E0,2.877369225E-1,9.714859962E0
4.118316380E0,-1.030110121E0,2.877369225E-1,9.690931320E0
4.120553624E0,-1.025922656E0,2.685943544E-1,9.681360245E0
4.122788487E0,-1.030708313E0,2.877369225E-1,9.705288887E0
4.125024815E0,-1.025324464E0,2.925225794E-1,9.676574707E0
4.127261632E0,-1.045065284E0,2.835494876E-1,9.695717812E0
4.129495762E0,-1.016351461E0,2.877369225E-1,9.719645500E0
4.131721837E0,-1.010967612E0,3.068794906E-1,9.700503349E0
4.133962376E0,-1.006181955E0,3.212364316E-1,9.714859962E0
4.136198460E0,-1.020538807E0,3.164508045E-1,9.714859962E0
4.138446751E0,-1.025324464E0,3.164508045E-1,9.710074425E0
4.140669407E0,-1.021137118E0,2.925225794E-1,9.724431038E0
4.142906835E0,-1.044467092E0,3.026920557E-1,9.695717812E0
4.145143407E0,-1.020538807E0,3.020938635E-1,9.690931320E0
4.147395116E0,-1.010967612E0,3.020938635E-1,9.710074425E0
4.149631810E0,-1.010967612E0,2.973082066E-1,9.690931320E0
4.151866124E0,-1.020538807E0,3.164508045E-1,9.695717812E0
4.154091344E0,-1.010967612E0,3.116651475E-1,9.714859962E0
4.156338597E0,-9.966106415E-1,3.164508045E-1,9.686744690E0
4.158575841E0,-1.001396298E0,3.068794906E-1,9.700503349E0
4.160815342E0,-1.010967612E0,3.116651475E-1,9.710074425E0
4.163049107E0,-1.006181955E0,3.116651475E-1,9.714859962E0
4.165285802E0,-9.918249846E-1,3.397808075E-1,9.719645500E0
4.167522557E0,-1.010967612E0,3.164508045E-1,9.695717812E0
4.169759495E0,-1.006181955E0,3.355933726E-1,9.710074425E0
4.171994358E0,-1.025324464E0,3.164508045E-1,9.705288887E0
4.174222081E0,-1.006181955E0,3.164508045E-1,9.705288887E0
4.176469395E0,-1.015753269E0,3.164508045E-1,9.690931320E0
4.178705663E0,-1.025324464E0,3.116651475E-1,9.710074425E0
4.180945225E0,-1.020538807E0,3.164508045E-1,9.695717812E0
4.183179600E0,-1.010967612E0,3.164508045E-1,9.700503349E0
4.185416295E0,-1.030110121E0,3.308077157E-1,9.719645500E0
4.187653599E0,-1.015154958E0,3.355933726E-1,9.705288887E0
4.189890965E0,-1.025324464E0,3.260220885E-1,9.734002113E0
4.192124791E0,-1.044467092E0,3.361915946E-1,9.724431038E0
4.194353551E0,-1.025324464E0,3.212364316E-1,9.705288887E0
4.196599156E0,-1.044467092E0,3.266202807E-1,9.719645500E0
4.198835912E0,-1.039681435E0,3.170489967E-1,9.705288887E0
4.201075413E0,-1.054038405E0,3.314059377E-1,9.705288887E0
4.203309544E0,-1.073180914E0,3.122633696E-1,9.699904442E0
4.205546849E0,-1.058824062E0,3.170489967E-1,9.690931320E0
4.207784398E0,-1.068395257E0,3.218346536E-1,9.714262009E0
4.210021214E0,-1.077966571E0,3.266202807E-1,9.719047546E0
4.212256444E0,-1.077966571E0,3.128615618E-1,9.695118904E0
4.214492833E0,-1.063609719E0,3.266202807E-1,9.699904442E0
4.216729588E0,-1.077966571E0,3.128615618E-1,9.690333366E0
4.218966710E0,-1.077966571E0,3.122633696E-1,9.704689980E0
4.221203404E0,-1.082752228E0,3.224328458E-1,9.695118904E0
4.223440648E0,-1.092323542E0,2.985046208E-1,9.690333366E0
4.225678258E0,-1.087537885E0,3.128615618E-1,9.685547829E0
4.227914952E0,-1.087537885E0,3.032902777E-1,9.704689980E0
4.230149998E0,-1.097707391E0,2.937189937E-1,9.709476471E0
4.232384312E0,-1.092323542E0,3.032902777E-1,9.690333366E0
4.234613988E0,-1.082752228E0,3.128615618E-1,9.704689980E0
4.236860020E0,-1.082752228E0,3.032902777E-1,9.690333366E0
4.239096898E0,-1.083350420E0,2.985046208E-1,9.709476471E0
4.241336460E0,-1.082752228E0,3.128615618E-1,9.680762291E0
4.243571812E0,-1.087537885E0,2.889333367E-1,9.675976753E0
4.245808324E0,-1.082752228E0,2.937189937E-1,9.675976753E0
4.248043858E0,-1.073180914E0,2.889333367E-1,9.685547829E0
4.250280370E0,-1.068993568E0,2.835494876E-1,9.690333366E0
4.252516759E0,-1.039681435E0,2.931207716E-1,9.686145782E0
4.254754002E0,-1.054038405E0,2.931207716E-1,9.686145782E0
4.256990392E0,-1.049850941E0,2.835494876E-1,9.719645500E0
4.259227818E0,-1.040279627E0,2.739782035E-1,9.700503349E0
4.261465550E0,-1.073779106E0,2.787638307E-1,9.704689980E0
4.263702122E0,-1.045065284E0,2.787638307E-1,9.714859962E0
4.265937413E0,-1.030708313E0,2.733799815E-1,9.705288887E0
4.268173924E0,-1.035493970E0,2.733799815E-1,9.705288887E0
4.270410497E0,-1.049850941E0,2.835494876E-1,9.714859962E0
4.272647069E0,-1.045065284E0,2.787638307E-1,9.719645500E0
4.274881993E0,-1.040279627E0,2.973082066E-1,9.724431038E0
4.277121251E0,-1.030708313E0,2.638086975E-1,9.714859962E0
4.279358861E0,-1.025922656E0,2.733799815E-1,9.734002113E0
4.281592930E0,-1.011565804E0,2.685943544E-1,9.729216576E0
4.283818028E0,-1.030708313E0,2.781656384E-1,9.734002113E0
4.286067540E0,-1.036092162E0,2.638086975E-1,9.734002113E0
4.288304112E0,-1.035493970E0,2.781656384E-1,9.724431038E0
4.290544652E0,-1.025922656E0,2.733799815E-1,9.724431038E0
4.292777806E0,-1.021137118E0,2.781656384E-1,9.729216576E0
4.295015111E0,-1.030708313E0,2.925225794E-1,9.729216576E0
4.297252598E0,-1.035493970E0,2.685943544E-1,9.724431038E0
4.299489232E0,-1.030708313E0,2.733799815E-1,9.714859962E0
4.301721837E0,-1.021735311E0,2.685943544E-1,9.734002113E0
4.303949620E0,-1.021735311E0,2.542374134E-1,9.734002113E0
4.306197911E0,-1.012163997E0,2.638086975E-1,9.738788605E0
4.308434972E0,-1.036092162E0,2.685943544E-1,9.738788605E0
4.310674474E0,-1.011565804E0,2.829512656E-1,9.734002113E0
4.312908665E0,-1.031306505E0,2.638086975E-1,9.724431038E0
4.315146397E0,-1.021735311E0,2.638086975E-1,9.729216576E0
4.317379734E0,-1.021735311E0,2.590230405E-1,9.734002113E0
4.319607213E0,-1.030708313E0,2.781656384E-1,9.705288887E0
4.321858312E0,-1.016949654E0,2.685943544E-1,9.738788605E0
4.324091710E0,-1.012163997E0,2.638086975E-1,9.738788605E0
4.326331517E0,-1.006780148E0,2.638086975E-1,9.719645500E0
4.328564244E0,-1.011565804E0,2.781656384E-1,9.724431038E0
4.330802159E0,-1.006780148E0,2.727817893E-1,9.734002113E0
4.333040013E0,-1.030708313E0,2.685943544E-1,9.714859962E0
4.335276524E0,-1.021137118E0,2.685943544E-1,9.719645500E0
4.337511876E0,-1.011565804E0,2.638086975E-1,9.714859962E0
4.339748387E0,-9.972088337E-1,2.632105052E-1,9.720243454E0
4.341984960E0,-1.021137118E0,2.638086975E-1,9.714859962E0
4.344222142E0,-1.006780148E0,2.781656384E-1,9.729216576E0
4.346458958E0,-1.026520967E0,2.638086975E-1,9.734002113E0
4.348696019E0,-1.021137118E0,2.685943544E-1,9.734002113E0
4.350933568E0,-1.016351461E0,2.829512656E-1,9.738788605E0
4.353170079E0,-1.021735311E0,2.638086975E-1,9.734002113E0
4.355402684E0,-1.021137118E0,2.781656384E-1,9.719645500E0
4.357627354E0,-1.035493970E0,2.638086975E-1,9.719645500E0
4.359864171E0,-1.031306505E0,2.685943544E-1,9.743574142E0
4.362101231E0,-1.026520967E0,2.638086975E-1,9.738788605E0
4.364340672E0,-1.035493970E0,2.781656384E-1,9.729216576E0
4.366577305E0,-1.035493970E0,2.973082066E-1,9.729216576E0
4.368815282E0,-1.045065284E0,2.973082066E-1,9.742975235E0
4.371051671E0,-1.045065284E0,2.787638307E-1,9.719645500E0
4.373287633E0,-1.049850941E0,2.931207716E-1,9.705288887E0
4.375524083E0,-1.039681435E0,3.116651475E-1,9.710074425E0
4.377760716E0,-1.054038405E0,3.026920557E-1,9.709476471E0
4.379997716E0,-1.030708313E0,3.020938635E-1,9.719645500E0
4.382234288E0,-1.054636598E0,2.979064286E-1,9.723833084E0
4.384473912E0,-1.049252748E0,3.122633696E-1,9.714859962E0
4.386722996E0,-1.049252748E0,3.026920557E-1,9.710074425E0
4.388961094E0,-1.063609719E0,3.122633696E-1,9.695118904E0
4.391182103E0,-1.039681435E0,3.116651475E-1,9.719645500E0
4.393415379E0,-1.054038405E0,3.170489967E-1,9.719047546E0
4.395650548E0,-1.063609719E0,3.170489967E-1,9.709476471E0
4.397890782E0,-1.058824062E0,3.314059377E-1,9.728618622E0
4.400127782E0,-1.058824062E0,3.170489967E-1,9.719047546E0
4.402365147E0,-1.054038405E0,3.122633696E-1,9.719047546E0
4.404603734E0,-1.063609719E0,3.122633696E-1,9.714262009E0
4.406839146E0,-1.058824062E0,3.266202807E-1,9.723833084E0
4.409075047E0,-1.049252748E0,3.122633696E-1,9.719645500E0
4.411310887E0,-1.044467092E0,3.260220885E-1,9.734002113E0
4.413548863E0,-1.044467092E0,3.314059377E-1,9.719645500E0
4.415785130E0,-1.040279627E0,2.925225794E-1,9.724431038E0
4.418024205E0,-1.044467092E0,3.074777126E-1,9.700503349E0
4.420273168E0,-1.049252748E0,3.026920557E-1,9.705288887E0
4.422507786E0,-1.034895778E0,3.116651475E-1,9.705288887E0
4.424735326E0,-1.049252748E0,3.170489967E-1,9.690931320E0
4.426979893E0,-1.049252748E0,3.122633696E-1,9.714859962E0
4.429216710E0,-1.044467092E0,3.026920557E-1,9.705288887E0
4.431456334E0,-1.049252748E0,2.931207716E-1,9.695717812E0
4.433690404E0,-1.040279627E0,2.739782035E-1,9.690931320E0
4.435926854E0,-1.049850941E0,2.931207716E-1,9.710074425E0
4.438163731E0,-1.045065284E0,2.739782035E-1,9.705288887E0
4.440398228E0,-1.044467092E0,2.883351147E-1,9.690931320E0
4.442624669E0,-1.039681435E0,3.074777126E-1,9.700503349E0
4.444872777E0,-1.054636598E0,2.883351147E-1,9.690931320E0
4.447110265E0,-1.035493970E0,2.685943544E-1,9.705288887E0
4.449350133E0,-1.016351461E0,2.925225794E-1,9.705288887E0
4.451583470E0,-1.040279627E0,2.739782035E-1,9.714859962E0
4.453817784E0,-1.064207911E0,2.835494876E-1,9.695717812E0
4.456057591E0,-1.025324464E0,2.925225794E-1,9.695717812E0
4.458295384E0,-1.035493970E0,2.781656384E-1,9.714859962E0
4.460532505E0,-1.045065284E0,2.787638307E-1,9.705288887E0
4.462767003E0,-1.035493970E0,2.829512656E-1,9.719645500E0
4.465003819E0,-1.049850941E0,2.883351147E-1,9.705288887E0
4.467237584E0,-1.025922656E0,2.781656384E-1,9.724431038E0
4.469462559E0,-1.021137118E0,2.925225794E-1,9.738788605E0
4.471699131E0,-1.021137118E0,2.973082066E-1,9.729216576E0
4.473939366E0,-1.035493970E0,2.829512656E-1,9.719645500E0
4.476191930E0,-1.025922656E0,3.020938635E-1,9.719645500E0
4.478428502E0,-1.025922656E0,2.925225794E-1,9.719645500E0
4.480664037E0,-1.021137118E0,2.877369225E-1,9.729216576E0
4.482897618E0,-1.040279627E0,2.829512656E-1,9.729216576E0
4.485134190E0,-1.025922656E0,2.877369225E-1,9.729216576E0
4.487371251E0,-1.030708313E0,3.020938635E-1,9.738788605E0
4.489607823E0,-1.011565804E0,2.919243574E-1,9.748359680E0
4.491844945E0,-1.045065284E0,2.883351147E-1,9.724431038E0
4.494082677E0,-1.059422255E0,2.979064286E-1,9.719047546E0
4.496318944E0,-1.030110121E0,3.068794906E-1,9.705288887E0
4.498554356E0,-1.021137118E0,2.781656384E-1,9.724431038E0
4.500791173E0,-1.030708313E0,2.925225794E-1,9.734002113E0
4.503027928E0,-1.025922656E0,3.020938635E-1,9.729216576E0
4.505264622E0,-1.030708313E0,2.973082066E-1,9.719645500E0
4.507501317E0,-1.030708313E0,2.877369225E-1,9.724431038E0
4.509738194E0,-1.030708313E0,2.829512656E-1,9.757930756E0
4.511976292E0,-1.021137118E0,2.925225794E-1,9.748359680E0
4.514212620E0,-1.016351461E0,2.925225794E-1,9.743574142E0
4.516448460E0,-1.021137118E0,3.116651475E-1,9.738788605E0
4.518684667E0,-1.035493970E0,2.877369225E-1,9.719645500E0
4.520921361E0,-1.035493970E0,2.877369225E-1,9.719645500E0
4.523158604E0,-1.025922656E0,3.020938635E-1,9.734002113E0
4.525395177E0,-1.030708313E0,2.877369225E-1,9.729216576E0
4.527631993E0,-1.025922656E0,2.877369225E-1,9.705288887E0
4.529866429E0,-1.035493970E0,2.733799815E-1,9.710074425E0
4.532093846E0,-1.049850941E0,2.739782035E-1,9.719645500E0
4.534341710E0,-1.059422255E0,2.787638307E-1,9.681360245E0
4.536578282E0,-1.049850941E0,2.835494876E-1,9.700503349E0
4.538817907E0,-1.054636598E0,2.787638307E-1,9.728618622E0
4.541051915E0,-1.045065284E0,2.739782035E-1,9.695717812E0
4.543288487E0,-1.064806104E0,2.596212626E-1,9.719047546E0
4.545525609E0,-1.054636598E0,2.596212626E-1,9.705288887E0
4.547760656E0,-1.073779106E0,2.644068897E-1,9.704689980E0
4.549988927E0,-1.068993568E0,2.787638307E-1,9.719047546E0
4.552235265E0,-1.068993568E0,2.739782035E-1,9.704689980E0
4.554471776E0,-1.064207911E0,2.931207716E-1,9.704689980E0
4.556711094E0,-1.064207911E0,2.883351147E-1,9.704689980E0
4.558945470E0,-1.083350420E0,2.602194548E-1,9.704689980E0
4.561182103E0,-1.088136077E0,2.745763958E-1,9.723833084E0
4.563419407E0,-1.107278705E0,2.841476798E-1,9.704689980E0
4.565656956E0,-1.092921734E0,2.697907388E-1,9.704689980E0
4.567893529E0,-1.097707391E0,2.793620527E-1,9.714262009E0
4.570129002E0,-1.098305583E0,2.697907388E-1,9.728618622E0
4.572365453E0,-1.102493048E0,2.889333367E-1,9.709476471E0
4.574602452E0,-1.092921734E0,2.889333367E-1,9.738189697E0
4.576839268E0,-1.102493048E0,2.697907388E-1,9.709476471E0
4.579075902E0,-1.107876897E0,2.650051117E-1,9.733404160E0
4.581312840E0,-1.092921734E0,2.793620527E-1,9.719047546E0
4.583550511E0,-1.107278705E0,2.937189937E-1,9.709476471E0
4.585787328E0,-1.083350420E0,2.889333367E-1,9.704689980E0
4.588022862E0,-1.092921734E0,2.889333367E-1,9.719047546E0
4.590258396E0,-1.111466169E0,3.032902777E-1,9.690333366E0
4.592492589E0,-1.083350420E0,2.841476798E-1,9.704689980E0
4.594733006E0,-1.077966571E0,3.026920557E-1,9.709476471E0
4.596969334E0,-1.083350420E0,2.841476798E-1,9.714262009E0
4.599207067E0,-1.078564763E0,2.889333367E-1,9.709476471E0
4.601444249E0,-1.077966571E0,2.889333367E-1,9.685547829E0
4.603680882E0,-1.073180914E0,3.080759048E-1,9.675976753E0
4.605916478E0,-1.077966571E0,3.080759048E-1,9.704689980E0
4.608152745E0,-1.058824062E0,2.979064286E-1,9.690931320E0
