"Time (s)","Gyroscope x (rad/s)","Gyroscope y (rad/s)","Gyroscope z (rad/s)"
2.295909800E-2,-8.216137439E-2,-2.183843218E-2,-4.276056774E-3
2.515309200E-2,-6.597344577E-2,-1.374446787E-2,-4.123340361E-3
2.738821900E-2,-4.993823543E-2,-1.282817032E-2,-2.748893574E-3
2.961783300E-2,-3.023782931E-2,-8.246680722E-3,-2.443460980E-3
3.185306200E-2,-1.420261711E-2,-7.483099122E-3,-1.069014193E-3
3.408762100E-2,6.719517522E-3,-7.788531948E-3,3.054326226E-4
3.632584100E-2,2.657263726E-2,-3.359758761E-3,1.679879380E-3
3.856375600E-2,4.260785133E-2,-1.221730490E-3,4.276056774E-3
4.079953500E-2,5.864306539E-2,4.581489135E-3,5.650503561E-3
4.303683900E-2,7.101308554E-2,5.497787148E-3,8.246680722E-3
4.527829400E-2,8.704829961E-2,5.192354787E-3,8.399397135E-3
4.750980100E-2,9.575312585E-2,1.221730467E-2,7.177666761E-3
4.974637300E-2,1.020144969E-1,1.695151068E-2,1.099557430E-2
5.198318900E-2,1.107193232E-1,2.535090782E-2,9.773843922E-3
5.422293600E-2,1.108720452E-1,3.268129006E-2,7.483099122E-3
5.647257000E-2,1.134682223E-1,3.863722831E-2,6.261368748E-3
5.870798200E-2,1.101084575E-1,5.329799280E-2,7.483099122E-3
6.094193000E-2,1.041525230E-1,6.185010448E-2,5.039638374E-3
6.316556200E-2,9.697485715E-2,7.055493444E-2,5.039638374E-3
6.541104600E-2,8.613199741E-2,8.048149943E-2,3.665191587E-3
6.765170700E-2,7.269296050E-2,8.674286306E-2,3.665191587E-3
6.989127100E-2,6.047565863E-2,9.178250283E-2,1.069014193E-3
7.212662200E-2,4.581489414E-2,9.575312585E-2,-1.527163113E-4
7.436301100E-2,3.237585723E-2,1.021672115E-1,9.162978968E-4
7.659976700E-2,2.015855350E-2,1.035416573E-1,7.635815418E-4
7.883505700E-2,6.719517522E-3,1.111774743E-1,1.985311974E-3
8.107169000E-2,-4.428773187E-3,1.088867337E-1,1.832595794E-3
8.330826300E-2,-1.313360315E-2,1.065959856E-1,6.108652451E-4
8.554562800E-2,-2.290744707E-2,1.044579595E-1,1.679879380E-3
8.778214000E-2,-3.176499158E-2,9.728029370E-2,3.054326226E-4
9.001901700E-2,-3.558290005E-2,9.376781434E-2,2.748893574E-3
9.225674900E-2,-4.062253982E-2,8.781187981E-2,2.748893574E-3
9.449332100E-2,-4.566217586E-2,7.696902007E-2,3.817907767E-3
9.672897800E-2,-4.337143153E-2,7.086037099E-2,3.817907767E-3
9.896542800E-2,-4.108068720E-2,6.230825558E-2,3.817907767E-3
1.012017560E-1,-3.756821156E-2,5.253441259E-2,3.817907767E-3
1.034388170E-1,-3.405573592E-2,4.153883830E-2,2.596177394E-3
1.056754500E-1,-2.565634064E-2,3.405573592E-2,1.374446787E-3
1.079128160E-1,-2.458732575E-2,2.428189293E-2,1.374446787E-3
1.101503640E-1,-1.740965992E-2,1.450804994E-2,3.817907767E-3
1.123868760E-1,-1.389718428E-2,5.955935922E-3,5.039638374E-3
1.146222270E-1,-1.298088674E-2,-6.261368748E-3,5.039638374E-3
1.168589830E-1,-4.581489135E-3,-1.603521220E-2,5.039638374E-3
1.190953720E-1,2.748893574E-3,-2.107485011E-2,3.817907767E-3
1.213327380E-1,8.704829961E-3,-2.977968007E-2,5.039638374E-3
1.235691880E-1,1.359175146E-2,-3.344487399E-2,5.039638374E-3
1.258061260E-1,1.221730467E-2,-4.184427112E-2,5.039638374E-3
1.280438580E-1,1.450804994E-2,-4.688390717E-2,3.817907767E-3
1.302804310E-1,1.817324013E-2,-5.177082866E-2,5.039638374E-3
1.325160260E-1,2.168571576E-2,-5.543602258E-2,6.261368748E-3
1.347522940E-1,2.290744707E-2,-5.787948146E-2,6.261368748E-3
1.369888660E-1,2.031126991E-2,-6.276640296E-2,6.261368748E-3
1.392245220E-1,2.412917651E-2,-6.276640296E-2,6.261368748E-3
1.414532210E-1,2.031126991E-2,-6.276640296E-2,9.926560335E-3
1.436817970E-1,1.786780916E-2,-6.383541971E-2,9.926560335E-3
1.459255110E-1,1.420261711E-2,-6.383541971E-2,9.926560335E-3
1.481753890E-1,1.038470957E-2,-6.612616032E-2,1.099557430E-2
1.504130600E-1,5.497787148E-3,-6.719517708E-2,9.773843922E-3
1.526489000E-1,3.207042580E-3,-5.986479297E-2,9.773843922E-3
1.548827260E-1,3.359758761E-3,-5.268712714E-2,8.552113548E-3
1.571197860E-1,7.635815418E-4,-5.742133409E-2,9.773843922E-3
1.593561750E-1,-5.345070735E-3,-5.726861581E-2,1.099557430E-2
1.615902450E-1,-1.023199316E-2,-4.993823543E-2,9.773843922E-3
1.638182720E-1,-1.130100712E-2,-4.505131021E-2,8.552113548E-3
1.660676010E-1,-1.252273750E-2,-4.382958263E-2,7.330383174E-3
1.683031360E-1,-1.618792862E-2,-4.016438872E-2,8.552113548E-3
1.705428820E-1,-2.092213556E-2,-3.405573592E-2,7.330383174E-3
1.727762190E-1,-2.076941915E-2,-3.039054573E-2,6.108652335E-3
1.750130360E-1,-1.939497143E-2,-2.061670274E-2,6.108652335E-3
1.772496080E-1,-2.061670274E-2,-1.695151068E-2,4.886921961E-3
1.794867290E-1,-1.802052557E-2,-1.099557430E-2,3.665191587E-3
1.817215920E-1,-1.664607786E-2,-3.665191587E-3,3.817907767E-3
1.839462630E-1,-1.527163107E-2,2.290744567E-3,1.374446787E-3
1.861849720E-1,-1.511891466E-2,8.399397135E-3,2.596177394E-3
1.884329580E-1,-1.007927675E-2,1.557706390E-2,1.527163113E-4
1.906725810E-1,-1.114829071E-2,1.924225502E-2,1.527163113E-4
1.929098860E-1,-8.704829961E-3,2.153299935E-2,-2.138028387E-3
1.951437730E-1,-3.665191587E-3,2.641992271E-2,-2.138028387E-3
1.973805890E-1,1.527163113E-4,2.993239649E-2,-2.138028387E-3
1.996181380E-1,3.970623948E-3,3.588833287E-2,-3.207042580E-3
2.018548320E-1,7.635815535E-3,3.711006418E-2,-4.428773187E-3
2.040902450E-1,1.145372353E-2,4.306599870E-2,-4.428773187E-3
2.063268780E-1,1.282817032E-2,4.428773001E-2,-1.985311974E-3
2.085635120E-1,1.649336144E-2,4.657847434E-2,-4.276056774E-3
2.108002060E-1,2.138028294E-2,4.291328415E-2,-4.276056774E-3
2.130369610E-1,2.382374369E-2,4.642575979E-2,-1.832595794E-3
2.152737780E-1,2.153299935E-2,4.886921868E-2,-3.054326167E-3
2.175116930E-1,2.275473066E-2,5.009094998E-2,6.108652451E-4
2.197482040E-1,2.504547499E-2,4.276056588E-2,6.108652451E-4
2.219838000E-1,2.871066704E-2,4.031710699E-2,6.108652451E-4
2.242201280E-1,2.993239649E-2,3.909537569E-2,1.832595794E-3
2.264569440E-1,2.611448988E-2,3.787364438E-2,6.108652451E-4
2.286910750E-1,2.504547499E-2,4.031710699E-2,6.108652451E-4
2.309188580E-1,2.122756653E-2,3.802636266E-2,1.832595794E-3
2.331673930E-1,1.985312067E-2,3.191770986E-2,4.276056774E-3
2.354051860E-1,1.863138936E-2,3.084869497E-2,4.123340361E-3
2.376446890E-1,1.481348183E-2,2.718350291E-2,2.901609987E-3
2.398774150E-1,1.359175146E-2,2.718350291E-2,4.123340361E-3
2.421139270E-1,1.237002108E-2,2.367102914E-2,4.123340361E-3
2.443504990E-1,8.552113548E-3,1.878410578E-2,4.123340361E-3
2.465875590E-1,1.069014193E-3,1.527163107E-2,5.192354787E-3
2.488241320E-1,-3.054326226E-4,9.315694682E-3,5.192354787E-3
2.510611920E-1,-2.748893574E-3,1.053742506E-2,6.414085161E-3
2.532987410E-1,-5.345070735E-3,7.024950348E-3,5.039638374E-3
2.555353130E-1,-1.038470957E-2,-1.527163113E-4,7.483099122E-3
2.577708480E-1,-1.404990070E-2,-2.596177394E-3,5.039638374E-3
2.600072370E-1,-1.420261711E-2,-8.552113548E-3,5.039638374E-3
2.622439930E-1,-1.420261711E-2,-9.773843922E-3,7.483099122E-3
2.644808700E-1,-1.679879427E-2,-9.773843922E-3,7.330383174E-3
2.667176860E-1,-1.924225502E-2,-1.221730467E-2,8.552113548E-3
2.689545640E-1,-2.168571576E-2,-1.572977938E-2,6.108652335E-3
2.711926010E-1,-1.924225502E-2,-1.588249579E-2,6.108652335E-3
2.734288680E-1,-1.939497143E-2,-2.061670274E-2,6.108652335E-3
2.756615340E-1,-1.695151068E-2,-2.199114859E-2,4.886921961E-3
2.778890120E-1,-1.450804994E-2,-2.321287990E-2,4.886921961E-3
2.801376080E-1,-1.450804994E-2,-2.687807009E-2,3.665191587E-3
2.823715560E-1,-1.206458826E-2,-2.809980139E-2,2.443460980E-3
2.846017200E-1,-1.099557430E-2,-2.932153270E-2,1.221730490E-3
2.868480570E-1,-9.621127509E-3,-2.809980139E-2,2.443460980E-3
2.890830420E-1,-7.177666761E-3,-2.580905706E-2,1.221730490E-3
2.913143050E-1,-2.290744567E-3,-3.069597855E-2,-1.069014193E-3
2.935580790E-1,-1.069014193E-3,-2.703078650E-2,1.527163113E-4
2.957915390E-1,3.054326226E-4,-2.474004216E-2,1.374446787E-3
2.980217640E-1,6.414085161E-3,-2.718350291E-2,-2.290744567E-3
3.002682850E-1,6.414085161E-3,-2.596177347E-2,-3.512475174E-3
3.025020490E-1,1.130100712E-2,-2.489275858E-2,-2.290744567E-3
3.047329450E-1,7.788531948E-3,-2.244929783E-2,-3.512475174E-3
3.069764750E-1,1.023199316E-2,-2.244929783E-2,-3.512475174E-3
3.092041980E-1,1.023199316E-2,-2.244929783E-2,-2.290744567E-3
3.114545640E-1,1.145372353E-2,-1.878410578E-2,-4.581489135E-3
3.136881460E-1,1.023199316E-2,-2.000583708E-2,-5.955935922E-3
3.159276470E-1,1.038470957E-2,-1.634064503E-2,-4.581489135E-3
3.181617780E-1,9.162978269E-3,-1.389718428E-2,-4.581489135E-3
3.203983500E-1,7.941247895E-3,-1.267545391E-2,-5.803219974E-3
3.226354720E-1,8.093964309E-3,-7.788531948E-3,-5.803219974E-3
3.248732040E-1,5.650503561E-3,-5.345070735E-3,-7.024950348E-3
3.271094710E-1,3.207042580E-3,-6.566801574E-3,-8.399397135E-3
3.293448840E-1,7.635815418E-4,-5.345070735E-3,-8.399397135E-3
3.315773050E-1,-2.901609987E-3,-3.970623948E-3,-8.399397135E-3
3.338009390E-1,-5.345070735E-3,-2.748893574E-3,-7.177666761E-3
3.360553940E-1,-5.345070735E-3,-3.054326226E-4,-5.955935922E-3
3.382919050E-1,-7.788531948E-3,2.138028387E-3,-7.177666761E-3
3.405332990E-1,-9.010262787E-3,2.138028387E-3,-8.399397135E-3
3.427665750E-1,-1.145372353E-2,1.069014193E-3,-7.177666761E-3
3.450033310E-1,-1.404990070E-2,-1.374446787E-3,-5.955935922E-3
3.472387440E-1,-1.145372353E-2,-1.527163113E-4,-7.177666761E-3
3.494754380E-1,-1.145372353E-2,-1.374446787E-3,-8.399397135E-3
3.517087140E-1,-1.023199316E-2,-1.374446787E-3,-5.955935922E-3
3.539376570E-1,-1.160643995E-2,-3.817907767E-3,-7.177666761E-3
3.561853990E-1,-1.282817032E-2,-6.261368748E-3,-5.955935922E-3
3.584226420E-1,-1.038470957E-2,-6.261368748E-3,-5.955935922E-3
3.606631820E-1,-1.175915636E-2,-9.926560335E-3,-4.734205548E-3
3.628968860E-1,-9.315694682E-3,-1.359175146E-2,-5.955935922E-3
3.651321760E-1,-9.315694682E-3,-1.359175146E-2,-7.177666761E-3
3.673684430E-1,-6.872233935E-3,-1.481348183E-2,-4.734205548E-3
3.696050770E-1,-5.650503561E-3,-1.603521220E-2,-2.290744567E-3
3.718424420E-1,-7.024950348E-3,-1.725694351E-2,-1.069014193E-3
3.740790760E-1,-4.581489135E-3,-1.847867295E-2,-2.290744567E-3
3.763161970E-1,-2.138028387E-3,-1.863138936E-2,-1.069014193E-3
3.785538680E-1,-3.359758761E-3,-2.092213556E-2,-1.069014193E-3
3.807901960E-1,-3.359758761E-3,-1.847867295E-2,-1.069014193E-3
3.830257920E-1,-3.359758761E-3,-1.970040426E-2,-1.069014193E-3
3.852623030E-1,-9.162978968E-4,-2.107485011E-2,-1.069014193E-3
3.874989370E-1,-3.359758761E-3,-1.847867295E-2,2.596177394E-3
3.897359970E-1,1.679879380E-3,-1.252273750E-2,2.596177394E-3
3.919725080E-1,-7.635815418E-4,-1.130100712E-2,1.374446787E-3
3.942093860E-1,1.679879380E-3,-1.618792862E-2,1.374446787E-3
3.964471780E-1,6.108652451E-4,-1.007927675E-2,1.527163113E-4
3.986838120E-1,6.108652451E-4,-6.414085161E-3,2.596177394E-3
4.009196520E-1,6.108652451E-4,-2.901609987E-3,3.970623948E-3
4.031559800E-1,-6.108652451E-4,-1.679879380E-3,5.192354787E-3
4.053927960E-1,-4.123340361E-3,2.138028387E-3,6.261368748E-3
4.076297960E-1,-4.123340361E-3,5.803219974E-3,1.374446787E-3
4.098663680E-1,-3.970623948E-3,1.053742506E-2,3.970623948E-3
4.121031230E-1,-1.527163084E-3,1.175915636E-2,2.748893574E-3
4.143407330E-1,-3.970623948E-3,1.053742506E-2,2.748893574E-3
4.165744980E-1,-3.817907767E-3,1.786780916E-2,2.748893574E-3
4.188008770E-1,-5.039638374E-3,1.908953860E-2,2.748893574E-3
4.210492300E-1,-6.261368748E-3,2.275473066E-2,3.970623948E-3
4.232859850E-1,-3.817907767E-3,2.153299935E-2,2.748893574E-3
4.255260970E-1,-5.039638374E-3,2.031126991E-2,2.748893574E-3
4.277597400E-1,-7.330383174E-3,2.397646010E-2,2.748893574E-3
4.299968000E-1,-4.886921961E-3,2.641992271E-2,3.054326226E-4
4.322345320E-1,-7.330383174E-3,2.519819140E-2,3.054326226E-4
4.344708600E-1,-7.330383174E-3,2.397646010E-2,3.054326226E-4
4.367064560E-1,-6.261368748E-3,2.031126991E-2,-9.162978968E-4
4.389429670E-1,-3.817907767E-3,2.031126991E-2,3.054326226E-4
4.411796010E-1,-1.374446787E-3,1.786780916E-2,3.054326226E-4
4.434167220E-1,-1.374446787E-3,1.420261711E-2,3.054326226E-4
4.456535380E-1,-1.527163113E-4,1.298088674E-2,1.527163084E-3
4.478905990E-1,2.138028387E-3,8.093964309E-3,-9.162978968E-4
4.501281480E-1,4.581489135E-3,6.719517522E-3,-9.162978968E-4
4.523645980E-1,4.581489135E-3,3.207042580E-3,-9.162978968E-4
4.545999500E-1,-4.581489484E-4,7.635815418E-4,-9.162978968E-4
4.568335920E-1,3.054326167E-3,-5.345070735E-3,3.054326226E-4
4.590613150E-1,5.497787148E-3,-6.566801574E-3,3.054326226E-4
4.613099720E-1,4.276056774E-3,-1.023199316E-2,3.054326226E-4
4.635467880E-1,4.123340361E-3,-1.389718428E-2,1.527163113E-4
4.657867780E-1,6.566801574E-3,-1.511891466E-2,1.527163084E-3
4.680215190E-1,7.788531948E-3,-2.000583708E-2,1.527163113E-4
4.702582140E-1,3.970623948E-3,-2.107485011E-2,1.527163113E-4
4.724935040E-1,1.527163084E-3,-2.474004216E-2,-1.069014193E-3
4.747299550E-1,2.748893574E-3,-2.351831272E-2,1.527163113E-4
4.769668930E-1,1.374446787E-3,-2.840523422E-2,-1.069014193E-3
4.792038310E-1,-2.290744567E-3,-3.191770986E-2,1.374446787E-3
4.814407090E-1,-1.221730490E-3,-3.436116874E-2,1.374446787E-3
4.836776470E-1,-1.069014193E-3,-3.313944116E-2,-1.069014193E-3
4.859152570E-1,-1.221730490E-3,-3.436116874E-2,-1.069014193E-3
4.881517680E-1,-6.108652335E-3,-3.420845419E-2,0.000000000E0
4.903873030E-1,-6.261368748E-3,-4.031710699E-2,-1.221730490E-3
4.926236310E-1,-8.552113548E-3,-3.787364438E-2,-2.443460980E-3
4.948602650E-1,-9.926560335E-3,-4.153883830E-2,-2.443460980E-3
4.970975080E-1,-9.926560335E-3,-4.153883830E-2,-2.443460980E-3
4.993338360E-1,-1.114829071E-2,-4.138612002E-2,-2.443460980E-3
5.015678450E-1,-9.926560335E-3,-4.382958263E-2,-3.665191587E-3
5.037970320E-1,-1.237002108E-2,-4.138612002E-2,-2.443460980E-3
5.060453840E-1,-7.483099122E-3,-4.520402849E-2,-4.886921961E-3
5.082809800E-1,-9.926560335E-3,-4.382958263E-2,-4.886921961E-3
5.105172470E-1,-9.926560335E-3,-4.505131021E-2,-2.443460980E-3
5.127423450E-1,-9.926560335E-3,-4.276056588E-2,-4.886921961E-3
5.149911850E-1,-7.483099122E-3,-4.520402849E-2,-6.108652335E-3
5.172279400E-1,-7.483099122E-3,-4.398229718E-2,-8.552113548E-3
5.194674420E-1,-6.261368748E-3,-4.153883830E-2,-7.330383174E-3
5.216993750E-1,-7.330383174E-3,-3.787364438E-2,-7.330383174E-3
5.239270980E-1,-1.069014193E-3,-3.313944116E-2,-7.177666761E-3
5.261747180E-1,1.374446787E-3,-3.680463135E-2,-8.399397135E-3
5.284117170E-1,1.527163113E-4,-3.313944116E-2,-8.399397135E-3
5.306502420E-1,1.527163084E-3,-2.962696366E-2,-9.621127509E-3
5.328844340E-1,5.192354787E-3,-2.596177347E-2,-9.621127509E-3
5.351210680E-1,6.566801574E-3,-2.122756653E-2,-1.084285788E-2
5.373583720E-1,6.566801574E-3,-1.878410578E-2,-1.084285788E-2
5.395959210E-1,7.941247895E-3,-1.389718428E-2,-1.206458826E-2
5.418324330E-1,9.315694682E-3,-1.023199316E-2,-1.191187184E-2
5.440680280E-1,1.420261711E-2,-6.719517522E-3,-1.313360315E-2
5.463045400E-1,1.557706390E-2,4.581489484E-4,-1.191187184E-2
5.485408680E-1,1.572977938E-2,6.566801574E-3,-1.313360315E-2
5.507779890E-1,1.710422710E-2,9.010262787E-3,-1.298088674E-2
5.530148060E-1,1.725694351E-2,1.740965992E-2,-1.298088674E-2
5.552519270E-1,1.725694351E-2,2.107485011E-2,-1.175915636E-2
5.574894760E-1,1.863138936E-2,2.840523422E-2,-1.298088674E-2
5.597259870E-1,2.000583708E-2,3.558290005E-2,-1.420261711E-2
5.619615220E-1,2.138028294E-2,4.413501546E-2,-1.282817032E-2
5.641979110E-1,2.031126991E-2,4.657847434E-2,-1.160643995E-2
5.664346670E-1,2.153299935E-2,5.131268129E-2,-1.282817032E-2
5.686715440E-1,1.924225502E-2,5.619960278E-2,-1.282817032E-2
5.709084210E-1,2.183843218E-2,6.475171447E-2,-1.649336144E-2
5.731454210E-1,2.199114859E-2,6.719517708E-2,-1.527163107E-2
5.753830300E-1,1.710422710E-2,7.086037099E-2,-1.160643995E-2
5.776194810E-1,1.832595654E-2,7.208210230E-2,-1.282817032E-2
5.798548320E-1,1.710422710E-2,7.452555746E-2,-1.404990070E-2
5.820914050E-1,1.725694351E-2,7.941248268E-2,-1.404990070E-2
5.843280380E-1,1.603521220E-2,8.063421398E-2,-1.160643995E-2
5.865654040E-1,1.863138936E-2,8.536841720E-2,-1.267545391E-2
5.888019150E-1,1.863138936E-2,8.659014851E-2,-1.145372353E-2
5.910388530E-1,1.603521220E-2,8.429940045E-2,-1.267545391E-2
5.932767680E-1,1.359175146E-2,8.552113175E-2,-1.038470957E-2
5.955130970E-1,1.374446787E-2,8.674286306E-2,-1.282817032E-2
5.977486920E-1,1.359175146E-2,8.552113175E-2,-1.038470957E-2
5.999848990E-1,1.359175146E-2,8.307767659E-2,-9.162978269E-3
6.022215930E-1,1.343903504E-2,7.819075137E-2,-9.162978269E-3
6.044588970E-1,9.773843922E-3,7.467827946E-2,-9.162978269E-3
6.066929060E-1,1.206458826E-2,7.101308554E-2,-1.160643995E-2
6.089220930E-1,1.206458826E-2,6.734789163E-2,-7.941247895E-3
6.111700790E-1,9.468411095E-3,6.001751125E-2,-7.941247895E-3
6.134067120E-1,9.315694682E-3,5.283984542E-2,-8.093964309E-3
6.156437120E-1,1.038470957E-2,4.795292020E-2,-9.315694682E-3
6.178732040E-1,7.788531948E-3,4.306599870E-2,-8.093964309E-3
6.201153920E-1,6.414085161E-3,3.588833287E-2,-4.428773187E-3
6.223501940E-1,7.483099122E-3,2.611448988E-2,-5.650503561E-3
6.245816390E-1,4.886921961E-3,2.138028294E-2,-5.803219974E-3
6.268261460E-1,1.069014193E-3,1.175915636E-2,-3.359758761E-3
6.290638780E-1,9.162978968E-4,3.207042580E-3,-4.581489135E-3
6.313024030E-1,-4.581489484E-4,-3.970623948E-3,-4.734205548E-3
6.335358020E-1,-1.832595794E-3,-1.007927675E-2,-2.290744567E-3
6.357677960E-1,-3.359758761E-3,-2.092213556E-2,1.527163113E-4
6.379879500E-1,-2.290744567E-3,-2.825251780E-2,-2.290744567E-3
6.402314190E-1,-4.734205548E-3,-3.069597855E-2,-1.221730490E-3
6.424681130E-1,-6.108652335E-3,-3.665191308E-2,1.221730490E-3
6.447121940E-1,-7.483099122E-3,-4.153883830E-2,1.221730490E-3
6.469601180E-1,-1.007927675E-2,-4.871650413E-2,1.221730490E-3
6.491920520E-1,-1.145372353E-2,-5.360342562E-2,1.221730490E-3
6.514140370E-1,-1.023199316E-2,-5.604688451E-2,2.443460980E-3
6.536659290E-1,-1.160643995E-2,-5.971207842E-2,3.512475174E-3
6.559025010E-1,-1.282817032E-2,-6.200282276E-2,5.955935922E-3
6.581442000E-1,-1.404990070E-2,-5.833763257E-2,5.955935922E-3
6.603763780E-1,-1.527163107E-2,-6.322455406E-2,4.734205548E-3
6.626102640E-1,-1.420261711E-2,-6.444628537E-2,5.955935922E-3
6.648390850E-1,-1.664607786E-2,-6.566801667E-2,4.734205548E-3
6.670874980E-1,-1.664607786E-2,-6.444628537E-2,3.512475174E-3
6.693229110E-1,-1.771509275E-2,-5.955936015E-2,4.734205548E-3
6.715594220E-1,-1.771509275E-2,-6.078109145E-2,4.734205548E-3
6.737840320E-1,-2.015855350E-2,-5.940664560E-2,5.955935922E-3
6.760331160E-1,-1.771509275E-2,-5.711590126E-2,5.955935922E-3
6.782712140E-1,-1.756237634E-2,-5.467243865E-2,7.177666761E-3
6.805159040E-1,-1.756237634E-2,-4.856378585E-2,4.734205548E-3
6.827446030E-1,-1.863138936E-2,-4.734205827E-2,4.734205548E-3
6.849810530E-1,-1.863138936E-2,-4.489859566E-2,5.955935922E-3
6.872147570E-1,-1.847867295E-2,-4.016438872E-2,4.886921961E-3
6.894532210E-1,-1.725694351E-2,-3.649919853E-2,6.108652335E-3
6.916868630E-1,-1.588249579E-2,-3.161227703E-2,4.886921961E-3
6.939159900E-1,-1.328631863E-2,-2.687807009E-2,3.665191587E-3
6.961631820E-1,-1.084285788E-2,-2.565634064E-2,7.330383174E-3
6.984003030E-1,-1.328631863E-2,-2.321287990E-2,4.886921961E-3
7.006405380E-1,-1.084285788E-2,-2.199114859E-2,3.665191587E-3
7.028744860E-1,-1.191187184E-2,-1.832595654E-2,4.886921961E-3
7.051102650E-1,-9.315694682E-3,-1.237002108E-2,5.039638374E-3
7.073465930E-1,-6.872233935E-3,-1.114829071E-2,3.817907767E-3
7.095832260E-1,-6.872233935E-3,-1.114829071E-2,3.817907767E-3
7.118204090E-1,-3.207042580E-3,-1.130100712E-2,2.596177394E-3
7.140567980E-1,-4.276056774E-3,-7.635815535E-3,3.817907767E-3
7.162952620E-1,-4.276056774E-3,-5.192354787E-3,6.261368748E-3
7.185370220E-1,7.635815418E-4,-1.679879380E-3,3.970623948E-3
7.207682240E-1,6.108652451E-4,-4.123340361E-3,5.192354787E-3
7.230035750E-1,1.985311974E-3,-4.581489484E-4,5.192354787E-3
7.252387440E-1,7.635815418E-4,1.985311974E-3,5.192354787E-3
7.274766590E-1,3.207042580E-3,3.207042580E-3,3.970623948E-3
7.297138410E-1,1.985311974E-3,7.635815418E-4,5.192354787E-3
7.319505970E-1,5.803219974E-3,3.054326167E-3,2.748893574E-3
7.341874740E-1,4.428773187E-3,3.207042580E-3,3.970623948E-3
7.364252060E-1,3.359758761E-3,8.093964309E-3,2.748893574E-3
7.386615340E-1,2.138028387E-3,8.093964309E-3,3.970623948E-3
7.408973740E-1,3.359758761E-3,8.093964309E-3,3.970623948E-3
7.431337020E-1,3.359758761E-3,8.093964309E-3,2.748893574E-3
7.453705800E-1,2.138028387E-3,8.093964309E-3,1.527163084E-3
7.476075180E-1,2.138028387E-3,1.053742506E-2,3.970623948E-3
7.498439680E-1,2.290744567E-3,1.282817032E-2,2.748893574E-3
7.520812120E-1,2.290744567E-3,1.282817032E-2,3.970623948E-3
7.543187610E-1,1.069014193E-3,1.649336144E-2,2.748893574E-3
7.565546620E-1,2.290744567E-3,1.771509275E-2,2.748893574E-3
7.587870220E-1,2.443460980E-3,2.138028294E-2,3.970623948E-3
7.610235950E-1,3.665191587E-3,2.138028294E-2,3.970623948E-3
7.632640120E-1,-0.000000000E0,2.382374369E-2,5.192354787E-3
7.655016830E-1,1.374446787E-3,2.748893574E-2,1.527163084E-3
7.677389260E-1,1.527163113E-4,3.115412779E-2,3.970623948E-3
7.699747050E-1,1.374446787E-3,2.871066704E-2,5.192354787E-3
7.722120710E-1,1.374446787E-3,3.237585723E-2,2.901609987E-3
7.744485210E-1,2.748893574E-3,3.711006418E-2,4.123340361E-3
7.766841780E-1,2.748893574E-3,3.711006418E-2,4.123340361E-3
7.789208730E-1,3.970623948E-3,4.199698567E-2,6.566801574E-3
7.811576890E-1,4.123340361E-3,4.688390717E-2,4.123340361E-3
7.833948100E-1,2.901609987E-3,4.688390717E-2,4.123340361E-3
7.856315660E-1,4.123340361E-3,4.444044828E-2,5.345070735E-3
7.878683210E-1,5.345070735E-3,4.688390717E-2,5.345070735E-3
7.901058700E-1,6.719517522E-3,5.039638281E-2,4.123340361E-3
7.923423810E-1,7.788531948E-3,4.795292020E-2,4.123340361E-3
7.945779770E-1,7.941247895E-3,4.917465150E-2,5.345070735E-3
7.968143050E-1,7.941247895E-3,5.039638281E-2,5.345070735E-3
7.990508170E-1,9.162978269E-3,5.406157300E-2,5.497787148E-3
8.012877550E-1,1.038470957E-2,5.283984542E-2,4.276056774E-3
8.035248760E-1,9.010262787E-3,4.673119262E-2,5.345070735E-3
8.057620590E-1,1.023199316E-2,4.673119262E-2,6.566801574E-3
8.080000350E-1,9.010262787E-3,4.306599870E-2,6.566801574E-3
8.102359970E-1,1.130100712E-2,3.940080851E-2,7.788531948E-3
8.124715320E-1,6.414085161E-3,3.711006418E-2,7.788531948E-3
8.147077380E-1,6.414085161E-3,3.588833287E-2,7.788531948E-3
8.169444320E-1,1.130100712E-2,3.329215571E-2,7.788531948E-3
8.191815540E-1,9.926560335E-3,2.977968007E-2,7.788531948E-3
8.214184310E-1,8.552113548E-3,2.367102914E-2,7.788531948E-3
8.236555520E-1,9.773843922E-3,2.000583708E-2,7.788531948E-3
8.258912090E-1,8.399397135E-3,1.282817032E-2,6.414085161E-3
8.281211900E-1,5.803219974E-3,9.162978269E-3,6.414085161E-3
8.303649030E-1,5.803219974E-3,7.941247895E-3,8.857546374E-3
8.326015980E-1,1.985311974E-3,7.635815418E-4,6.414085161E-3
8.348401230E-1,1.832595794E-3,-7.788531948E-3,6.261368748E-3
8.370754130E-1,-7.635815418E-4,-1.374446787E-2,6.261368748E-3
8.393119250E-1,-9.162978968E-4,-1.740965992E-2,7.483099122E-3
8.415479470E-1,-3.512475174E-3,-2.458732575E-2,7.483099122E-3
8.437821390E-1,-4.734205548E-3,-2.825251780E-2,6.261368748E-3
8.460231670E-1,-4.886921961E-3,-3.069597855E-2,5.039638374E-3
8.482589460E-1,-4.886921961E-3,-3.665191308E-2,4.886921961E-3
8.504963730E-1,-8.704829961E-3,-3.909537569E-2,6.108652335E-3
8.527318470E-1,-8.857546374E-3,-4.642575979E-2,7.330383174E-3
8.549688460E-1,-1.023199316E-2,-4.993823543E-2,8.552113548E-3
8.572054790E-1,-1.145372353E-2,-5.360342562E-2,7.330383174E-3
8.594425400E-1,-1.282817032E-2,-5.604688451E-2,9.621127509E-3
8.616770980E-1,-1.038470957E-2,-5.726861581E-2,9.773843922E-3
8.639046370E-1,-1.160643995E-2,-5.971207842E-2,8.399397135E-3
8.661519520E-1,-1.160643995E-2,-5.971207842E-2,9.621127509E-3
8.683885850E-1,-9.162978269E-3,-5.971207842E-2,7.330383174E-3
8.706283920E-1,-1.160643995E-2,-6.093380973E-2,9.621127509E-3
8.728625230E-1,-1.160643995E-2,-6.322455406E-2,7.177666761E-3
8.750990950E-1,-1.160643995E-2,-6.322455406E-2,7.177666761E-3
8.773361550E-1,-1.282817032E-2,-6.078109145E-2,7.177666761E-3
8.795739480E-1,-1.038470957E-2,-5.971207842E-2,1.099557430E-2
8.818104600E-1,-1.160643995E-2,-5.971207842E-2,9.773843922E-3
8.840458110E-1,-1.145372353E-2,-5.360342562E-2,8.552113548E-3
8.862823230E-1,-6.414085161E-3,-5.009094998E-2,7.330383174E-3
8.885188950E-1,-7.635815535E-3,-4.993823543E-2,8.552113548E-3
8.907559560E-1,-7.635815535E-3,-4.642575979E-2,8.552113548E-3
8.929923450E-1,-7.483099122E-3,-4.276056588E-2,8.552113548E-3
8.952297100E-1,-3.817907767E-3,-4.031710699E-2,7.330383174E-3
8.974674420E-1,-2.443460980E-3,-3.558290005E-2,9.926560335E-3
8.997037700E-1,-3.665191587E-3,-3.191770986E-2,9.926560335E-3
9.019391220E-1,-4.734205548E-3,-2.703078650E-2,1.114829071E-2
9.041758780E-1,-1.069014193E-3,-2.458732575E-2,1.237002108E-2
9.064114120E-1,1.527163084E-3,-1.863138936E-2,1.359175146E-2
9.086452380E-1,3.054326226E-4,-1.496619824E-2,1.481348183E-2
9.108862040E-1,5.345070735E-3,-1.267545391E-2,1.618792862E-2
9.131234480E-1,4.123340361E-3,-7.788531948E-3,1.496619824E-2
9.153618520E-1,4.276056774E-3,-2.901609987E-3,1.496619824E-2
9.175973250E-1,5.650503561E-3,5.497787148E-3,1.130100712E-2
9.198329210E-1,1.069014147E-2,7.941247895E-3,1.252273750E-2
9.220697370E-1,1.206458826E-2,1.267545391E-2,1.023199316E-2
9.243060650E-1,1.099557430E-2,2.000583708E-2,9.010262787E-3
9.265431260E-1,1.359175146E-2,2.596177347E-2,9.010262787E-3
9.287796980E-1,1.740965992E-2,3.207042441E-2,7.788531948E-3
9.310170640E-1,1.878410578E-2,4.046982154E-2,9.162978269E-3
9.332546130E-1,1.634064503E-2,4.535674304E-2,7.941247895E-3
9.354911240E-1,1.771509275E-2,5.268712714E-2,6.719517522E-3
9.377264140E-1,2.168571576E-2,5.986479297E-2,4.276056774E-3
9.399629870E-1,2.046398632E-2,6.352998316E-2,3.054326167E-3
9.421995590E-1,2.306016348E-2,6.948592514E-2,1.985311974E-3
9.444367420E-1,2.199114859E-2,7.437284291E-2,1.985311974E-3
9.466739850E-1,2.199114859E-2,7.925976813E-2,1.985311974E-3
9.489093360E-1,2.336559631E-2,8.292495459E-2,-4.581489484E-4
9.511362040E-1,2.214386500E-2,8.536841720E-2,-4.581489484E-4
9.533846790E-1,2.367102914E-2,9.376781434E-2,-4.581489484E-4
9.556166730E-1,2.474004216E-2,9.254608303E-2,-4.581489484E-4
9.578470810E-1,2.489275858E-2,9.621127695E-2,-4.581489484E-4
9.600931140E-1,2.489275858E-2,9.621127695E-2,-2.901609987E-3
9.623301740E-1,2.367102914E-2,9.498954564E-2,-2.901609987E-3
9.645699210E-1,2.244929783E-2,9.743300825E-2,-2.901609987E-3
9.668039290E-1,2.107485011E-2,9.269879758E-2,-2.901609987E-3
9.690417220E-1,2.229658142E-2,9.132435173E-2,-1.679879380E-3
9.712782330E-1,1.863138936E-2,9.147707373E-2,-4.123340361E-3
9.735136460E-1,1.740965992E-2,8.781187981E-2,-5.345070735E-3
9.757504620E-1,1.099557430E-2,8.063421398E-2,-4.276056774E-3
9.779872180E-1,1.099557430E-2,7.590000331E-2,-6.719517522E-3
9.802240950E-1,8.246680722E-3,6.490442902E-2,-6.719517522E-3
9.824575540E-1,8.093964309E-3,5.772676691E-2,-9.315694682E-3
9.846853990E-1,4.276056774E-3,5.054909736E-2,-1.175915636E-2
9.869352160E-1,4.123340361E-3,4.077525437E-2,-1.053742506E-2
9.891717880E-1,1.374446787E-3,2.871066704E-2,-1.069014147E-2
9.914073840E-1,-0.000000000E0,1.786780916E-2,-7.024950348E-3
9.936320540E-1,-2.748893574E-3,6.872233935E-3,-3.359758761E-3
9.958816880E-1,-3.054326167E-3,-7.635815535E-3,1.527163113E-4
9.981173450E-1,-1.069014147E-2,-1.832595654E-2,5.039638374E-3
1.000357213E0,-1.221730467E-2,-3.054326214E-2,8.552113548E-3
1.002587925E0,-1.496619824E-2,-4.627304152E-2,9.773843922E-3
1.004816868E0,-1.756237634E-2,-5.345070735E-2,9.621127509E-3
1.007065282E0,-2.046398632E-2,-6.918048859E-2,9.621127509E-3
1.009297764E0,-1.939497143E-2,-8.139779419E-2,7.024950348E-3
1.011530797E0,-1.832595654E-2,-8.979719132E-2,7.024950348E-3
1.013782140E0,-2.214386500E-2,-9.346238524E-2,7.024950348E-3
1.016011204E0,-2.092213556E-2,-9.712757170E-2,5.803219974E-3
1.018250646E0,-2.351831272E-2,-1.018617824E-1,5.803219974E-3
1.020482762E0,-2.367102914E-2,-1.079704314E-1,1.985311974E-3
1.022722325E0,-2.351831272E-2,-1.067487001E-1,1.985311974E-3
1.024958897E0,-2.489275858E-2,-1.091921628E-1,3.207042580E-3
1.027194493E0,-2.596177347E-2,-1.030835137E-1,3.207042580E-3
1.029431065E0,-2.474004216E-2,-1.030835137E-1,4.428773187E-3
1.031664586E0,-2.580905706E-2,-9.453139454E-2,5.803219974E-3
1.033892491E0,-2.336559631E-2,-9.101892263E-2,7.024950348E-3
1.036141270E0,-1.939497143E-2,-8.368854225E-2,8.246680722E-3
1.038378392E0,-2.046398632E-2,-7.528914511E-2,9.621127509E-3
1.040619176E0,-1.542434748E-2,-6.811147183E-2,9.621127509E-3
1.042852452E0,-1.649336144E-2,-6.200282276E-2,8.399397135E-3
1.045088048E0,-1.145372353E-2,-4.871650413E-2,1.099557430E-2
1.047324559E0,-1.237002108E-2,-3.543018550E-2,1.099557430E-2
1.049561192E0,-1.206458826E-2,-2.321287990E-2,8.552113548E-3
1.051798253E0,-4.428773187E-3,-1.374446787E-2,8.704829961E-3
1.054034764E0,-3.054326167E-3,-1.527163084E-3,7.483099122E-3
1.056271641E0,-4.581489484E-4,5.650503561E-3,8.857546374E-3
1.058509434E0,1.069014193E-3,1.649336144E-2,7.635815535E-3
1.060746007E0,3.817907767E-3,2.871066704E-2,5.345070735E-3
1.062981602E0,5.192354787E-3,3.466660157E-2,4.123340361E-3
1.065217931E0,7.941247895E-3,4.795292020E-2,1.679879380E-3
1.067454747E0,1.053742506E-2,5.635231733E-2,-6.108652451E-4
1.069691808E0,8.246680722E-3,6.490442902E-2,6.108652451E-4
1.071927831E0,1.206458826E-2,7.223481685E-2,-1.832595794E-3
1.074160069E0,1.221730467E-2,7.941248268E-2,-4.276056774E-3
1.076391270E0,1.359175146E-2,8.552113175E-2,-4.123340361E-3
1.078639500E0,1.359175146E-2,8.796459436E-2,-2.901609987E-3
1.080875462E0,1.359175146E-2,8.552113175E-2,-2.901609987E-3
1.083114476E0,1.252273750E-2,9.162978828E-2,-2.901609987E-3
1.085348607E0,1.252273750E-2,9.040805697E-2,-2.901609987E-3
1.087585789E0,1.237002108E-2,8.918632567E-2,-1.679879380E-3
1.089822545E0,1.007927675E-2,9.162978828E-2,-2.901609987E-3
1.092059239E0,8.704829961E-3,8.918632567E-2,-6.108652451E-4
1.094296788E0,7.330383174E-3,8.323039114E-2,-6.108652451E-4
1.096533238E0,9.773843922E-3,7.834346592E-2,6.108652451E-4
1.098768651E0,7.177666761E-3,7.223481685E-2,-6.108652451E-4
1.101005223E0,2.138028387E-3,6.750060618E-2,-7.635815418E-4
1.103241795E0,-4.581489484E-4,5.910121277E-2,4.581489484E-4
1.105478917E0,6.108652451E-4,5.054909736E-2,4.581489484E-4
1.107715489E0,-4.581489135E-3,4.337143153E-2,1.527163084E-3
1.109952611E0,-5.955935922E-3,3.375030309E-2,3.054326226E-4
1.112190343E0,-2.443460980E-3,2.626720630E-2,3.054326226E-4
1.114423802E0,-3.817907767E-3,1.664607786E-2,3.054326226E-4
1.116650792E0,-9.010262787E-3,7.024950348E-3,1.374446787E-3
1.118898778E0,-1.038470957E-2,-2.596177394E-3,1.527163113E-4
1.121135411E0,-1.053742506E-2,-8.704829961E-3,1.374446787E-3
1.123372350E0,-9.621127509E-3,-2.199114859E-2,1.221730490E-3
1.125597142E0,-9.773843922E-3,-3.054326214E-2,1.221730490E-3
1.127846409E0,-1.114829071E-2,-3.909537569E-2,1.221730490E-3
1.130083958E0,-1.130100712E-2,-4.871650413E-2,1.221730490E-3
1.132323522E0,-1.145372353E-2,-5.360342562E-2,2.443460980E-3
1.134556065E0,-1.160643995E-2,-6.200282276E-2,3.512475174E-3
1.136789708E0,-1.298088674E-2,-7.055493444E-2,3.512475174E-3
1.139014500E0,-1.191187184E-2,-7.544185966E-2,-1.527163113E-4
1.141252355E0,-9.468411095E-3,-8.032877743E-2,1.069014193E-3
1.143493077E0,-1.084285788E-2,-8.277224004E-2,1.069014193E-3
1.145727818E0,-1.206458826E-2,-8.628471941E-2,1.069014193E-3
1.147962559E0,-1.572977938E-2,-8.506298810E-2,-3.054326226E-4
1.150200047E0,-1.328631863E-2,-8.628471941E-2,-1.527163113E-4
1.152438633E0,-1.328631863E-2,-8.750644326E-2,-1.374446787E-3
1.154675450E0,-1.450804994E-2,-8.261952549E-2,-1.527163113E-4
1.156911046E0,-1.328631863E-2,-8.384125680E-2,-1.374446787E-3
1.159148106E0,-1.435533352E-2,-8.139779419E-2,-2.596177394E-3
1.161384679E0,-1.313360315E-2,-8.017606288E-2,-1.527163113E-4
1.163622044E0,-1.313360315E-2,-7.788532227E-2,-1.527163113E-4
1.165860570E0,-1.298088674E-2,-7.422012836E-2,-2.596177394E-3
1.168099095E0,-1.175915636E-2,-6.933320314E-2,-2.596177394E-3
1.170346349E0,-1.038470957E-2,-6.337726861E-2,-1.374446787E-3
1.172582371E0,-1.267545391E-2,-5.726861581E-2,-1.374446787E-3
1.174819188E0,-1.496619824E-2,-4.993823543E-2,-2.596177394E-3
1.177053258E0,-9.926560335E-3,-4.382958263E-2,-6.108652335E-3
1.179289769E0,-1.237002108E-2,-3.772092983E-2,-2.443460980E-3
1.181528722E0,-1.221730467E-2,-3.298672289E-2,-2.443460980E-3
1.183770421E0,-1.206458826E-2,-2.565634064E-2,-6.108652335E-3
1.186001134E0,-1.069014147E-2,-1.832595654E-2,-3.665191587E-3
1.188236363E0,-6.872233935E-3,-1.481348183E-2,-3.512475174E-3
1.190471593E0,-4.428773187E-3,-1.374446787E-2,-4.734205548E-3
1.192709874E0,-3.054326167E-3,-5.192354787E-3,-7.177666761E-3
1.194946934E0,-2.748893574E-3,3.359758761E-3,-5.955935922E-3
1.197183263E0,-5.192354787E-3,5.803219974E-3,-4.734205548E-3
1.199420323E0,-1.527163084E-3,8.093964309E-3,-5.803219974E-3
1.201655309E0,1.069014193E-3,1.053742506E-2,-7.024950348E-3
1.203883519E0,2.290744567E-3,1.527163107E-2,-3.359758761E-3
1.206130345E0,4.886921961E-3,2.015855350E-2,-4.581489135E-3
1.208366856E0,4.886921961E-3,1.893682219E-2,-5.803219974E-3
1.210606236E0,9.926560335E-3,2.489275858E-2,-5.650503561E-3
1.212840489E0,9.926560335E-3,2.733621933E-2,-4.428773187E-3
1.215077061E0,8.704829961E-3,2.855795063E-2,-3.207042580E-3
1.217314183E0,1.130100712E-2,2.977968007E-2,-4.428773187E-3
1.219551915E0,1.252273750E-2,3.329215571E-2,-4.428773187E-3
1.221785374E0,1.496619824E-2,3.329215571E-2,-1.985311974E-3
1.224009373E0,1.634064503E-2,3.695734590E-2,4.581489484E-4
1.226248387E0,1.511891466E-2,3.817907721E-2,-7.635815418E-4
1.228497044E0,1.756237634E-2,3.802636266E-2,6.108652451E-4
1.230737157E0,2.000583708E-2,4.169155285E-2,6.108652451E-4
1.232973607E0,1.878410578E-2,4.169155285E-2,1.832595794E-3
1.235207677E0,1.771509275E-2,4.291328415E-2,-6.108652451E-4
1.237445225E0,2.015855350E-2,4.291328415E-2,1.832595794E-3
1.239682103E0,1.771509275E-2,4.535674304E-2,4.276056774E-3
1.241917577E0,1.649336144E-2,4.780020565E-2,4.276056774E-3
1.244153844E0,2.138028294E-2,4.657847434E-2,3.054326167E-3
1.246391026E0,1.893682219E-2,4.780020565E-2,4.276056774E-3
1.248627782E0,1.893682219E-2,4.902193695E-2,1.832595794E-3
1.250864232E0,1.771509275E-2,4.657847434E-2,3.054326167E-3
1.253101170E0,1.771509275E-2,4.657847434E-2,3.054326167E-3
1.255339024E0,1.649336144E-2,4.657847434E-2,3.054326167E-3
1.257575597E0,1.527163107E-2,4.535674304E-2,4.276056774E-3
1.259810948E0,1.649336144E-2,4.535674304E-2,3.054326167E-3
1.262047460E0,1.389718428E-2,4.428773001E-2,1.832595794E-3
1.264284032E0,8.857546374E-3,3.711006418E-2,4.123340361E-3
1.266521153E0,8.857546374E-3,3.588833287E-2,4.123340361E-3
1.268757786E0,1.007927675E-2,3.344487399E-2,4.123340361E-3
1.270995091E0,6.261368748E-3,3.100141138E-2,2.901609987E-3
1.273232640E0,7.483099122E-3,3.100141138E-2,4.123340361E-3
1.275469212E0,7.330383174E-3,2.244929783E-2,4.123340361E-3
1.277704686E0,3.665191587E-3,2.015855350E-2,3.970623948E-3
1.279941014E0,4.886921961E-3,2.138028294E-2,2.748893574E-3
1.282177587E0,3.512475174E-3,1.771509275E-2,2.748893574E-3
1.284414708E0,3.359758761E-3,1.038470957E-2,3.970623948E-3
1.286651585E0,3.359758761E-3,6.872233935E-3,2.748893574E-3
1.288888707E0,2.138028387E-3,4.428773187E-3,1.527163084E-3
1.291126378E0,7.635815418E-4,7.635815418E-4,2.748893574E-3
1.293362462E0,1.985311974E-3,-2.901609987E-3,2.748893574E-3
1.295598241E0,1.832595794E-3,-7.788531948E-3,-1.069014193E-3
1.297834508E0,6.108652451E-4,-7.635815535E-3,1.527163113E-4
1.300071263E0,6.719517522E-3,-1.267545391E-2,3.054326226E-4
1.302308446E0,1.679879380E-3,-1.252273750E-2,2.596177394E-3
1.304544835E0,1.679879380E-3,-1.252273750E-2,1.527163113E-4
1.306781956E0,-9.162978968E-4,-1.985312067E-2,1.527163113E-4
1.309016697E0,-2.138028387E-3,-1.863138936E-2,1.527163113E-4
1.311241307E0,-9.162978968E-4,-1.863138936E-2,1.374446787E-3
1.313479710E0,3.054326226E-4,-2.107485011E-2,1.527163113E-4
1.315728429E0,3.054326226E-4,-2.229658142E-2,1.527163113E-4
1.317967991E0,-9.162978968E-4,-1.985312067E-2,1.374446787E-3
1.320205052E0,-9.162978968E-4,-2.229658142E-2,1.527163113E-4
1.322435460E0,-4.581489135E-3,-2.214386500E-2,1.374446787E-3
1.324663975E0,-3.359758761E-3,-2.092213556E-2,1.374446787E-3
1.326913243E0,-5.803219974E-3,-2.214386500E-2,1.527163113E-4
1.329149876E0,-5.803219974E-3,-2.092213556E-2,-1.069014193E-3
1.331388341E0,-7.024950348E-3,-1.847867295E-2,1.374446787E-3
1.333621983E0,-7.024950348E-3,-1.847867295E-2,2.596177394E-3
1.335858495E0,-4.428773187E-3,-1.481348183E-2,1.374446787E-3
1.338095372E0,-5.650503561E-3,-1.237002108E-2,1.374446787E-3
1.340332188E0,-6.872233935E-3,-8.704829961E-3,3.817907767E-3
1.342566319E0,-4.276056774E-3,-6.414085161E-3,3.817907767E-3
1.344795140E0,-4.276056774E-3,-8.857546374E-3,1.374446787E-3
1.347043370E0,-4.276056774E-3,-2.748893574E-3,2.596177394E-3
1.349278905E0,-4.276056774E-3,-1.527163084E-3,5.039638374E-3
1.351518162E0,-1.679879380E-3,4.428773187E-3,3.970623948E-3
1.353751866E0,-1.527163084E-3,6.872233935E-3,1.527163084E-3
1.355989171E0,-1.527163084E-3,9.315694682E-3,2.748893574E-3
1.358225804E0,-3.054326226E-4,8.093964309E-3,3.970623948E-3
1.360462986E0,9.162978968E-4,1.053742506E-2,2.748893574E-3
1.362700841E0,1.069014193E-3,1.771509275E-2,1.527163084E-3
1.364936925E0,1.069014193E-3,1.542434748E-2,2.748893574E-3
1.367172520E0,-1.374446787E-3,1.908953860E-2,3.054326226E-4
1.369408971E0,-1.221730490E-3,2.260201424E-2,3.970623948E-3
1.371642674E0,1.221730490E-3,2.382374369E-2,3.054326226E-4
1.373870763E0,-0.000000000E0,2.382374369E-2,1.527163084E-3
1.376119298E0,-2.443460980E-3,2.519819140E-2,1.527163084E-3
1.378356358E0,1.221730490E-3,2.626720630E-2,2.748893574E-3
1.380596959E0,2.596177394E-3,2.993239649E-2,1.679879380E-3
1.382830785E0,1.374446787E-3,2.748893574E-2,1.527163084E-3
1.385066319E0,-1.069014193E-3,2.871066704E-2,-2.138028387E-3
1.387300939E0,1.527163113E-4,3.115412779E-2,-9.162978968E-4
1.389532262E0,-3.512475174E-3,3.237585723E-2,-9.162978968E-4
1.391773106E0,-2.290744567E-3,3.115412779E-2,-9.162978968E-4
1.394001378E0,-2.290744567E-3,2.871066704E-2,3.054326226E-4
1.396251683E0,-1.069014193E-3,2.748893574E-2,-9.162978968E-4
1.398487828E0,-1.069014193E-3,2.871066704E-2,-3.359758761E-3
1.400727147E0,-1.069014193E-3,2.871066704E-2,-3.359758761E-3
1.402959630E0,-2.443460980E-3,2.626720630E-2,-3.359758761E-3
1.405196141E0,-3.665191587E-3,2.397646010E-2,-3.359758761E-3
1.407432774E0,-2.443460980E-3,2.153299935E-2,-5.803219974E-3
1.409670079E0,-4.886921961E-3,2.031126991E-2,-3.359758761E-3
1.411906407E0,-7.483099122E-3,1.908953860E-2,-4.581489135E-3
1.414143529E0,-7.483099122E-3,1.908953860E-2,-4.581489135E-3
1.416381261E0,-6.261368748E-3,1.542434748E-2,-5.803219974E-3
1.418617894E0,-5.192354787E-3,1.069014147E-2,-5.955935922E-3
1.420853490E0,-7.635815535E-3,7.024950348E-3,-7.177666761E-3
1.423090001E0,-8.857546374E-3,7.024950348E-3,-8.399397135E-3
1.425326512E0,-7.788531948E-3,3.359758761E-3,-4.734205548E-3
1.427563390E0,-9.010262787E-3,9.162978968E-4,-4.734205548E-3
1.429796849E0,-1.145372353E-2,-1.527163113E-4,-4.734205548E-3
1.432023900E0,-9.162978269E-3,-3.817907767E-3,-5.955935922E-3
1.434275120E0,-9.162978269E-3,-7.483099122E-3,-5.955935922E-3
1.436511449E0,-9.162978269E-3,-8.704829961E-3,-4.734205548E-3
1.438750584E0,-1.053742506E-2,-1.237002108E-2,-4.734205548E-3
1.440983434E0,-6.872233935E-3,-1.359175146E-2,-4.734205548E-3
1.443219884E0,-8.246680722E-3,-1.847867295E-2,-7.177666761E-3
1.445457066E0,-1.069014147E-2,-1.832595654E-2,-7.330383174E-3
1.447693517E0,-8.246680722E-3,-2.092213556E-2,-4.734205548E-3
1.449930882E0,-8.246680722E-3,-2.336559631E-2,-4.886921961E-3
1.452168370E0,-1.069014147E-2,-2.199114859E-2,-6.108652335E-3
1.454405003E0,-7.177666761E-3,-2.580905706E-2,-6.108652335E-3
1.456640477E0,-7.177666761E-3,-2.703078650E-2,-6.108652335E-3
1.458876866E0,-5.955935922E-3,-2.703078650E-2,-5.955935922E-3
1.461113683E0,-5.955935922E-3,-2.580905706E-2,-4.734205548E-3
1.463350743E0,-8.399397135E-3,-2.565634064E-2,-6.108652335E-3
1.465587437E0,-5.955935922E-3,-2.947424725E-2,-6.108652335E-3
1.467824681E0,-7.177666761E-3,-2.580905706E-2,-6.108652335E-3
1.470062169E0,-3.359758761E-3,-2.580905706E-2,-5.955935922E-3
1.472298497E0,-2.138028387E-3,-2.458732575E-2,-4.734205548E-3
1.474530370E0,-3.359758761E-3,-2.458732575E-2,-4.734205548E-3
1.476756017E0,-1.985311974E-3,-1.863138936E-2,-4.734205548E-3
1.479007481E0,-3.207042580E-3,-1.725694351E-2,-4.734205548E-3
1.481244298E0,-3.207042580E-3,-1.496619824E-2,-3.512475174E-3
1.483484532E0,-4.428773187E-3,-1.252273750E-2,-4.734205548E-3
1.485717869E0,-3.054326167E-3,-1.007927675E-2,-5.955935922E-3
1.487955540E0,-4.428773187E-3,-1.252273750E-2,-5.955935922E-3
1.490192296E0,-1.832595794E-3,-7.635815535E-3,-4.734205548E-3
1.492427647E0,7.635815418E-4,-4.123340361E-3,-5.955935922E-3
1.494664220E0,-4.581489484E-4,-4.581489484E-4,-5.955935922E-3
1.496900670E0,-3.054326226E-4,3.207042580E-3,-5.803219974E-3
1.499137608E0,-1.679879380E-3,3.207042580E-3,-4.581489135E-3
1.501374425E0,-2.748893574E-3,6.872233935E-3,-5.803219974E-3
1.503611546E0,-1.527163084E-3,8.093964309E-3,-3.359758761E-3
1.505849400E0,-1.374446787E-3,1.298088674E-2,-4.581489135E-3
1.508085850E0,-2.596177394E-3,1.542434748E-2,-4.581489135E-3
1.510321202E0,-1.527163113E-4,1.298088674E-2,-4.581489135E-3
1.512554844E0,1.221730490E-3,1.893682219E-2,-2.138028387E-3
1.514782750E0,2.290744567E-3,1.649336144E-2,-2.138028387E-3
1.517031163E0,2.290744567E-3,1.649336144E-2,-2.138028387E-3
1.519268040E0,1.221730490E-3,2.015855350E-2,-3.359758761E-3
1.521508153E0,2.443460980E-3,2.260201424E-2,-2.138028387E-3
1.523742650E0,2.443460980E-3,1.893682219E-2,-2.138028387E-3
1.525979161E0,3.665191587E-3,1.771509275E-2,-2.138028387E-3
1.528214757E0,2.443460980E-3,1.893682219E-2,-3.359758761E-3
1.530451573E0,3.665191587E-3,1.771509275E-2,-2.138028387E-3
1.532687962E0,4.734205548E-3,1.649336144E-2,-9.162978968E-4
1.534925206E0,4.734205548E-3,1.527163107E-2,-9.162978968E-4
1.537161473E0,5.955935922E-3,1.404990070E-2,-2.138028387E-3
1.539398655E0,8.399397135E-3,9.162978269E-3,-9.162978968E-4
1.541633396E0,9.621127509E-3,7.941247895E-3,-2.138028387E-3
1.543861058E0,5.803219974E-3,6.719517522E-3,-2.138028387E-3
1.546108617E0,5.803219974E-3,6.719517522E-3,-9.162978968E-4
1.548345067E0,5.650503561E-3,7.635815418E-4,3.054326226E-4
1.550584386E0,5.650503561E-3,-4.123340361E-3,3.054326226E-4
1.552818273E0,6.872233935E-3,-5.345070735E-3,3.054326226E-4
1.555054295E0,6.719517522E-3,-6.566801574E-3,3.054326226E-4
1.557292271E0,5.497787148E-3,-9.010262787E-3,-9.162978968E-4
1.559530308E0,6.566801574E-3,-1.389718428E-2,-9.162978968E-4
1.561767186E0,5.345070735E-3,-1.634064503E-2,-1.069014193E-3
1.564002904E0,5.345070735E-3,-1.634064503E-2,1.527163113E-4
1.566238561E0,5.345070735E-3,-1.878410578E-2,1.374446787E-3
1.568474950E0,5.192354787E-3,-1.985312067E-2,2.596177394E-3
1.570712071E0,2.901609987E-3,-1.863138936E-2,1.374446787E-3
1.572948643E0,2.748893574E-3,-1.985312067E-2,2.596177394E-3
1.575186070E0,2.748893574E-3,-2.229658142E-2,-1.069014193E-3
1.577423680E0,1.527163084E-3,-2.351831272E-2,1.374446787E-3
1.579659825E0,1.527163113E-4,-2.947424725E-2,2.596177394E-3
1.581895299E0,2.748893574E-3,-2.596177347E-2,1.374446787E-3
1.584131688E0,1.527163084E-3,-2.596177347E-2,-1.069014193E-3
1.586368871E0,1.527163084E-3,-2.351831272E-2,1.527163113E-4
1.588605931E0,2.748893574E-3,-2.474004216E-2,1.527163113E-4
1.590842564E0,2.748893574E-3,-2.107485011E-2,1.527163113E-4
1.593079564E0,1.527163084E-3,-1.985312067E-2,-1.069014193E-3
1.595317296E0,4.581489484E-4,-1.618792862E-2,-1.069014193E-3
1.597553624E0,1.679879380E-3,-1.374446787E-2,1.374446787E-3
1.599789159E0,-1.985311974E-3,-1.007927675E-2,1.527163113E-4
1.602025487E0,-1.832595794E-3,-8.857546374E-3,1.374446787E-3
1.604262364E0,-6.108652451E-4,-5.192354787E-3,-1.069014193E-3
1.606499425E0,-6.108652451E-4,-3.970623948E-3,1.374446787E-3
1.608736058E0,-6.108652451E-4,-5.192354787E-3,1.374446787E-3
1.610973118E0,-3.054326167E-3,-1.527163084E-3,2.596177394E-3
1.613210911E0,-4.123340361E-3,9.162978968E-4,1.527163113E-4
1.615447423E0,-1.679879380E-3,1.985311974E-3,-2.138028387E-3
1.617682774E0,-1.527163084E-3,6.872233935E-3,-2.138028387E-3
1.619919286E0,-3.054326226E-4,1.053742506E-2,-9.162978968E-4
1.622155858E0,-1.527163084E-3,8.093964309E-3,-2.138028387E-3
1.624392979E0,-3.054326226E-4,1.175915636E-2,3.054326226E-4
1.626629613E0,1.069014193E-3,1.542434748E-2,3.054326226E-4
1.628866917E0,2.290744567E-3,1.527163107E-2,-2.138028387E-3
1.631104466E0,2.290744567E-3,1.649336144E-2,3.054326226E-4
1.633340977E0,3.512475174E-3,1.527163107E-2,1.527163084E-3
1.635573338E0,1.069014193E-3,1.649336144E-2,2.748893574E-3
1.637798253E0,2.290744567E-3,1.404990070E-2,1.527163084E-3
1.640036961E0,3.512475174E-3,1.160643995E-2,1.527163084E-3
1.642280980E0,7.177666761E-3,1.527163107E-2,2.748893574E-3
1.644516515E0,7.177666761E-3,1.527163107E-2,3.054326226E-4
1.646748448E0,9.621127509E-3,1.511891466E-2,4.581489484E-4
1.648987340E0,8.399397135E-3,1.527163107E-2,1.679879380E-3
1.651236424E0,9.621127509E-3,1.389718428E-2,1.679879380E-3
1.653469884E0,1.084285788E-2,1.634064503E-2,4.123340361E-3
1.655697667E0,8.399397135E-3,1.282817032E-2,1.527163084E-3
1.657943212E0,8.399397135E-3,1.282817032E-2,1.527163084E-3
1.660180333E0,8.399397135E-3,1.282817032E-2,2.748893574E-3
1.662416783E0,7.177666761E-3,1.282817032E-2,2.748893574E-3
1.664642491E0,9.621127509E-3,1.038470957E-2,3.970623948E-3
1.666891575E0,8.246680722E-3,1.038470957E-2,5.192354787E-3
1.669128392E0,9.621127509E-3,1.282817032E-2,2.901609987E-3
1.671366491E0,9.621127509E-3,1.038470957E-2,3.970623948E-3
1.673600011E0,8.246680722E-3,9.162978269E-3,6.414085161E-3
1.675836705E0,8.246680722E-3,1.038470957E-2,5.192354787E-3
1.678073582E0,5.955935922E-3,1.160643995E-2,3.970623948E-3
1.680311315E0,4.581489135E-3,7.941247895E-3,3.970623948E-3
1.682548680E0,3.512475174E-3,1.282817032E-2,5.192354787E-3
1.684773167E0,1.069014193E-3,1.420261711E-2,5.192354787E-3
1.687021642E0,-3.054326226E-4,6.872233935E-3,6.414085161E-3
1.689255955E0,-3.054326226E-4,8.093964309E-3,6.414085161E-3
1.691496801E0,-3.054326226E-4,9.315694682E-3,7.635815535E-3
1.693730382E0,-1.527163084E-3,6.872233935E-3,5.192354787E-3
1.695967503E0,-2.748893574E-3,8.093964309E-3,5.192354787E-3
1.698204015E0,-1.527163084E-3,8.093964309E-3,6.414085161E-3
1.700441075E0,-5.345070735E-3,8.246680722E-3,6.414085161E-3
1.702678624E0,-6.566801574E-3,7.024950348E-3,5.192354787E-3
1.704915196E0,-9.010262787E-3,3.359758761E-3,6.261368748E-3
1.707150792E0,-5.497787148E-3,-3.054326226E-4,5.039638374E-3
1.709387364E0,-6.566801574E-3,2.138028387E-3,3.817907767E-3
1.711620885E0,-6.566801574E-3,2.138028387E-3,5.039638374E-3
1.713848790E0,-9.010262787E-3,4.581489135E-3,3.817907767E-3
1.716097569E0,-7.941247895E-3,9.162978968E-4,5.039638374E-3
1.718334691E0,-6.719517522E-3,-1.527163084E-3,3.817907767E-3
1.720572545E0,-5.497787148E-3,-5.192354787E-3,3.817907767E-3
1.722797825E0,-5.497787148E-3,-3.970623948E-3,3.817907767E-3
1.725047581E0,-4.276056774E-3,-6.414085161E-3,3.817907767E-3
1.727281102E0,-6.719517522E-3,-5.192354787E-3,3.817907767E-3
1.729520421E0,-3.054326167E-3,-6.414085161E-3,1.374446787E-3
1.731750829E0,-1.832595794E-3,-6.414085161E-3,1.374446787E-3
1.733979344E0,-3.054326167E-3,-7.635815535E-3,2.596177394E-3
1.736228245E0,-3.054326167E-3,-7.635815535E-3,1.374446787E-3
1.738466038E0,4.581489484E-4,-1.130100712E-2,1.374446787E-3
1.740705541E0,-3.054326167E-3,-7.635815535E-3,1.374446787E-3
1.742938145E0,-6.108652451E-4,-8.857546374E-3,1.374446787E-3
1.745174413E0,-1.985311974E-3,-1.007927675E-2,2.596177394E-3
1.747411046E0,-3.054326167E-3,-6.414085161E-3,3.817907767E-3
1.749648289E0,-1.832595794E-3,-8.857546374E-3,1.374446787E-3
1.751884679E0,-1.832595794E-3,-7.635815535E-3,1.527163113E-4
1.754121800E0,-4.276056774E-3,-5.192354787E-3,1.527163113E-4
1.756359532E0,-3.054326167E-3,-5.192354787E-3,1.374446787E-3
1.758596104E0,-1.832595794E-3,-3.970623948E-3,1.527163113E-4
1.760831456E0,-4.123340361E-3,2.138028387E-3,1.527163113E-4
1.763067845E0,-2.901609987E-3,4.428773187E-3,3.054326226E-4
1.765304051E0,-2.748893574E-3,8.093964309E-3,3.054326226E-4
1.767541661E0,-2.748893574E-3,6.872233935E-3,-9.162978968E-4
1.769778294E0,-3.970623948E-3,1.053742506E-2,-9.162978968E-4
1.772015782E0,-3.970623948E-3,1.298088674E-2,3.054326226E-4
1.774253392E0,-5.192354787E-3,1.298088674E-2,-9.162978968E-4
1.776489720E0,-3.817907767E-3,1.420261711E-2,-9.162978968E-4
1.778725255E0,-2.596177394E-3,1.542434748E-2,-9.162978968E-4
1.780961705E0,-3.817907767E-3,1.664607786E-2,-9.162978968E-4
1.783198094E0,-1.527163113E-4,1.664607786E-2,-3.359758761E-3
1.785435155E0,-3.970623948E-3,1.298088674E-2,-9.162978968E-4
1.787671788E0,-5.039638374E-3,1.542434748E-2,-2.138028387E-3
1.789906163E0,-1.374446787E-3,1.786780916E-2,1.527163084E-3
1.792134739E0,-2.596177394E-3,1.664607786E-2,1.527163084E-3
1.794383275E0,-2.596177394E-3,1.542434748E-2,-9.162978968E-4
1.796618748E0,-1.527163113E-4,1.420261711E-2,3.054326226E-4
1.798858068E0,-1.374446787E-3,1.908953860E-2,3.054326226E-4
1.801091710E0,-1.374446787E-3,1.420261711E-2,1.527163084E-3
1.803329015E0,-2.748893574E-3,1.175915636E-2,2.748893574E-3
1.805565648E0,-3.054326226E-4,1.175915636E-2,3.054326226E-4
1.807799717E0,9.162978968E-4,1.175915636E-2,2.748893574E-3
1.810028233E0,9.162978968E-4,6.872233935E-3,2.748893574E-3
1.812276768E0,-4.581489484E-4,4.428773187E-3,3.970623948E-3
1.814512364E0,-1.679879380E-3,3.207042580E-3,3.970623948E-3
1.816751867E0,-1.679879380E-3,1.985311974E-3,1.527163084E-3
1.818985265E0,-1.679879380E-3,-3.054326226E-4,1.374446787E-3
1.821222630E0,-3.054326167E-3,-2.748893574E-3,2.596177394E-3
1.823459386E0,-3.054326167E-3,-3.970623948E-3,5.039638374E-3
1.825696324E0,-5.497787148E-3,-6.414085161E-3,5.039638374E-3
1.827933995E0,-1.832595794E-3,-5.192354787E-3,5.039638374E-3
1.830170262E0,-1.985311974E-3,-1.007927675E-2,7.483099122E-3
1.832405858E0,-5.650503561E-3,-1.359175146E-2,3.817907767E-3
1.834642125E0,-4.581489135E-3,-1.603521220E-2,5.039638374E-3
1.836878819E0,-4.581489135E-3,-1.603521220E-2,7.483099122E-3
1.839116124E0,-5.803219974E-3,-1.725694351E-2,7.483099122E-3
1.841352757E0,-8.399397135E-3,-2.214386500E-2,6.261368748E-3
1.843589879E0,-7.177666761E-3,-2.458732575E-2,6.261368748E-3
1.845827550E0,-4.734205548E-3,-2.580905706E-2,5.039638374E-3
1.848063878E0,-8.399397135E-3,-2.809980139E-2,6.108652335E-3
1.850299535E0,-1.084285788E-2,-2.565634064E-2,6.108652335E-3
1.852536229E0,-7.177666761E-3,-2.703078650E-2,7.483099122E-3
1.854772618E0,-7.330383174E-3,-3.054326214E-2,6.108652335E-3
1.857009679E0,-7.330383174E-3,-3.054326214E-2,7.330383174E-3
1.859246251E0,-5.955935922E-3,-2.825251780E-2,3.817907767E-3
1.861483677E0,-8.552113548E-3,-3.176499158E-2,3.665191587E-3
1.863721409E0,-7.177666761E-3,-2.932153270E-2,3.665191587E-3
1.865957677E0,-3.512475174E-3,-2.947424725E-2,5.039638374E-3
1.868193028E0,-3.512475174E-3,-2.825251780E-2,3.817907767E-3
1.870429784E0,-3.512475174E-3,-2.947424725E-2,3.817907767E-3
1.872666417E0,-4.734205548E-3,-3.069597855E-2,1.527163113E-4
1.874903477E0,-4.734205548E-3,-2.703078650E-2,2.596177394E-3
1.877139806E0,-3.512475174E-3,-2.703078650E-2,2.596177394E-3
1.879377110E0,-3.512475174E-3,-2.947424725E-2,2.596177394E-3
1.881611607E0,-2.290744567E-3,-2.703078650E-2,1.374446787E-3
1.883839085E0,-9.162978968E-4,-2.351831272E-2,1.527163113E-4
1.886085179E0,-2.138028387E-3,-1.985312067E-2,1.527163113E-4
1.888316747E0,-7.635815418E-4,-1.740965992E-2,-1.069014193E-3
1.890562841E0,4.581489484E-4,-1.496619824E-2,1.374446787E-3
1.892797276E0,2.901609987E-3,-1.267545391E-2,1.374446787E-3
1.895035252E0,1.832595794E-3,-7.788531948E-3,3.054326226E-4
1.897270726E0,6.108652451E-4,-8.857546374E-3,2.596177394E-3
1.899508214E0,1.832595794E-3,-7.788531948E-3,1.527163084E-3
1.901742039E0,4.276056774E-3,-5.345070735E-3,3.054326226E-4
1.903968419E0,3.207042580E-3,-1.679879380E-3,1.527163084E-3
1.906216954E0,7.635815418E-4,-1.679879380E-3,2.748893574E-3
1.908453465E0,1.985311974E-3,-2.901609987E-3,1.527163084E-3
1.910693517E0,5.650503561E-3,1.832595794E-3,3.054326226E-4
1.912926915E0,7.635815418E-4,7.635815418E-4,1.527163084E-3
1.915164219E0,3.207042580E-3,7.635815418E-4,1.527163084E-3
1.917401768E0,3.207042580E-3,3.207042580E-3,1.527163084E-3
1.919638402E0,1.985311974E-3,1.985311974E-3,1.527163084E-3
1.921873875E0,-4.581489484E-4,1.985311974E-3,3.054326226E-4
1.924110326E0,7.635815418E-4,-4.581489484E-4,1.527163084E-3
1.926347386E0,1.985311974E-3,1.985311974E-3,3.054326226E-4
1.928584386E0,4.428773187E-3,7.635815418E-4,2.748893574E-3
1.930820775E0,4.428773187E-3,-4.581489484E-4,1.527163084E-3
1.933057774E0,1.985311974E-3,-4.581489484E-4,2.748893574E-3
1.935295567E0,5.650503561E-3,-4.581489484E-4,1.527163084E-3
1.937532140E0,5.650503561E-3,-2.901609987E-3,2.748893574E-3
1.939767491E0,4.428773187E-3,-4.581489484E-4,1.527163084E-3
1.942004003E0,5.650503561E-3,-4.581489484E-4,2.748893574E-3
1.944240575E0,5.650503561E-3,7.635815418E-4,2.748893574E-3
1.946477696E0,5.650503561E-3,7.635815418E-4,2.748893574E-3
1.948714329E0,5.650503561E-3,-1.679879380E-3,3.970623948E-3
1.950951634E0,9.315694682E-3,-4.276056774E-3,3.970623948E-3
1.953189183E0,9.315694682E-3,6.108652451E-4,1.527163084E-3
1.955425755E0,6.872233935E-3,1.832595794E-3,2.748893574E-3
1.957661229E0,8.246680722E-3,3.054326167E-3,3.054326226E-4
1.959897557E0,1.069014147E-2,4.276056774E-3,1.527163084E-3
1.962134129E0,9.468411095E-3,4.276056774E-3,1.527163084E-3
1.964371251E0,8.399397135E-3,1.038470957E-2,1.527163084E-3
1.966608128E0,7.177666761E-3,1.282817032E-2,3.970623948E-3
1.968845189E0,7.177666761E-3,1.160643995E-2,1.527163084E-3
1.971082799E0,7.177666761E-3,1.527163107E-2,3.054326226E-4
1.973316136E0,8.552113548E-3,1.756237634E-2,4.581489484E-4
1.975541295E0,8.552113548E-3,1.756237634E-2,4.581489484E-4
1.977790929E0,8.552113548E-3,2.000583708E-2,4.581489484E-4
1.980027928E0,9.773843922E-3,2.367102914E-2,2.901609987E-3
1.982268407E0,9.926560335E-3,2.489275858E-2,4.581489484E-4
1.984501744E0,9.926560335E-3,2.367102914E-2,-7.635815418E-4
1.986738682E0,9.926560335E-3,2.489275858E-2,-7.635815418E-4
1.988976231E0,8.552113548E-3,2.367102914E-2,4.581489484E-4
1.991212804E0,3.817907767E-3,2.626720630E-2,-9.162978968E-4
1.993448399E0,5.039638374E-3,2.855795063E-2,-7.635815418E-4
1.995681981E0,7.483099122E-3,2.611448988E-2,-7.635815418E-4
1.997909581E0,6.261368748E-3,2.733621933E-2,-7.635815418E-4
2.000158604E0,3.817907767E-3,2.626720630E-2,-2.138028387E-3
2.002394017E0,3.817907767E-3,2.504547499E-2,-2.138028387E-3
2.004630650E0,3.665191587E-3,2.260201424E-2,-9.162978968E-4
2.006870091E0,4.886921961E-3,2.138028294E-2,-2.138028387E-3
2.009106541E0,4.886921961E-3,2.260201424E-2,-7.635815418E-4
2.011343053E0,4.886921961E-3,1.771509275E-2,-3.359758761E-3
2.013578465E0,4.734205548E-3,1.282817032E-2,-9.162978968E-4
2.015809117E0,3.512475174E-3,1.404990070E-2,-9.162978968E-4
2.018040257E0,3.512475174E-3,1.282817032E-2,-2.138028387E-3
2.020288609E0,4.581489135E-3,7.941247895E-3,-9.162978968E-4
2.022523839E0,2.138028387E-3,6.872233935E-3,-3.359758761E-3
2.024754613E0,9.162978968E-4,5.650503561E-3,-3.359758761E-3
2.026999913E0,2.138028387E-3,5.650503561E-3,3.054326226E-4
2.029235448E0,3.207042580E-3,7.635815418E-4,-2.138028387E-3
2.031475010E0,1.985311974E-3,-1.679879380E-3,3.054326226E-4
2.033708653E0,1.985311974E-3,-4.123340361E-3,-2.138028387E-3
2.035945775E0,1.832595794E-3,-5.345070735E-3,-9.162978968E-4
2.038182591E0,3.054326167E-3,-6.566801574E-3,-2.138028387E-3
2.040419713E0,6.108652451E-4,-1.007927675E-2,-2.290744567E-3
2.042657445E0,-1.832595794E-3,-1.007927675E-2,-1.069014193E-3
2.044893651E0,-7.635815418E-4,-1.252273750E-2,-1.069014193E-3
2.047128880E0,-1.985311974E-3,-1.130100712E-2,-1.069014193E-3
2.049366063E0,-1.985311974E-3,-1.252273750E-2,1.527163113E-4
2.051606663E0,-7.635815418E-4,-1.252273750E-2,-1.069014193E-3
2.053837742E0,-5.650503561E-3,-1.007927675E-2,-1.069014193E-3
2.056063939E0,-5.650503561E-3,-1.114829071E-2,-1.069014193E-3
2.058311681E0,-1.985311974E-3,-1.252273750E-2,1.527163113E-4
2.060550389E0,-7.635815418E-4,-1.252273750E-2,1.374446787E-3
2.062790319E0,-6.872233935E-3,-9.926560335E-3,1.374446787E-3
2.065022923E0,-5.650503561E-3,-8.857546374E-3,1.374446787E-3
2.067259129E0,-4.276056774E-3,-5.192354787E-3,1.374446787E-3
2.069495763E0,-6.719517522E-3,-6.414085161E-3,1.374446787E-3
2.071730076E0,-6.719517522E-3,-5.192354787E-3,1.374446787E-3
2.073957738E0,-6.719517522E-3,-2.748893574E-3,3.817907767E-3
2.076206761E0,-7.941247895E-3,-3.054326226E-4,2.596177394E-3
2.078444249E0,-4.123340361E-3,9.162978968E-4,1.374446787E-3
2.080683812E0,-6.566801574E-3,2.138028387E-3,2.596177394E-3
2.082916417E0,-5.345070735E-3,4.581489135E-3,2.596177394E-3
2.085152989E0,-6.566801574E-3,5.803219974E-3,1.527163113E-4
2.087389562E0,-6.414085161E-3,8.246680722E-3,2.596177394E-3
2.089626622E0,-3.970623948E-3,8.093964309E-3,3.970623948E-3
2.091863194E0,-2.748893574E-3,1.053742506E-2,2.748893574E-3
2.094100255E0,-5.192354787E-3,1.175915636E-2,3.970623948E-3
2.096337803E0,-7.635815535E-3,1.191187184E-2,3.970623948E-3
2.098574376E0,-3.970623948E-3,1.175915636E-2,2.748893574E-3
2.100809972E0,-2.596177394E-3,1.542434748E-2,3.970623948E-3
2.103046544E0,-5.039638374E-3,1.664607786E-2,2.748893574E-3
2.105283116E0,-5.039638374E-3,1.786780916E-2,5.192354787E-3
2.107520177E0,-1.374446787E-3,2.031126991E-2,3.970623948E-3
2.109756810E0,1.069014193E-3,1.649336144E-2,5.192354787E-3
2.111994114E0,-1.527163113E-4,1.893682219E-2,3.970623948E-3
2.114231663E0,-1.374446787E-3,1.908953860E-2,3.970623948E-3
2.116468175E0,-1.527163113E-4,2.015855350E-2,5.192354787E-3
2.118703465E0,1.069014193E-3,1.893682219E-2,3.970623948E-3
2.120939977E0,1.069014193E-3,1.893682219E-2,2.748893574E-3
2.123176366E0,1.069014193E-3,1.649336144E-2,1.527163084E-3
2.125413731E0,4.886921961E-3,2.015855350E-2,1.527163084E-3
2.127650365E0,3.512475174E-3,1.893682219E-2,2.748893574E-3
2.129887669E0,1.069014193E-3,1.420261711E-2,1.527163084E-3
2.132124974E0,1.069014193E-3,1.542434748E-2,3.054326226E-4
2.134358860E0,-3.054326226E-4,1.175915636E-2,3.970623948E-3
2.136582615E0,9.162978968E-4,1.175915636E-2,3.970623948E-3
2.138821996E0,9.162978968E-4,1.175915636E-2,2.748893574E-3
2.141067418E0,-1.527163084E-3,8.093964309E-3,1.527163084E-3
2.143295323E0,-1.527163084E-3,8.093964309E-3,3.970623948E-3
2.145532323E0,-1.527163084E-3,6.872233935E-3,2.748893574E-3
2.147769017E0,-2.901609987E-3,3.359758761E-3,1.527163084E-3
2.150022008E0,-4.581489484E-4,3.207042580E-3,2.748893574E-3
2.152258214E0,-3.054326167E-3,-2.748893574E-3,2.596177394E-3
2.154493871E0,-4.276056774E-3,-5.192354787E-3,1.527163113E-4
2.156727086E0,-3.054326167E-3,-3.970623948E-3,1.527163113E-4
2.158963719E0,-5.497787148E-3,-5.192354787E-3,2.596177394E-3
2.161200780E0,-5.497787148E-3,-7.635815535E-3,2.596177394E-3
2.163434483E0,-6.872233935E-3,-1.237002108E-2,3.817907767E-3
2.165662816E0,-8.093964309E-3,-1.359175146E-2,3.817907767E-3
2.167912327E0,-7.024950348E-3,-1.603521220E-2,2.596177394E-3
2.170148900E0,-8.093964309E-3,-1.237002108E-2,2.596177394E-3
2.172387425E0,-5.803219974E-3,-1.970040426E-2,1.374446787E-3
2.174621007E0,-7.177666761E-3,-2.336559631E-2,1.374446787E-3
2.176857518E0,-7.024950348E-3,-2.214386500E-2,2.596177394E-3
2.179094334E0,-7.177666761E-3,-2.336559631E-2,2.596177394E-3
2.181330968E0,-8.246680722E-3,-2.092213556E-2,2.596177394E-3
2.183568333E0,-8.399397135E-3,-2.565634064E-2,2.596177394E-3
2.185806187E0,-8.399397135E-3,-2.336559631E-2,1.527163113E-4
2.188042638E0,-8.399397135E-3,-2.336559631E-2,3.817907767E-3
2.190277745E0,-5.955935922E-3,-2.458732575E-2,3.817907767E-3
2.192514501E0,-4.734205548E-3,-2.458732575E-2,3.817907767E-3
2.194751012E0,-4.581489135E-3,-2.214386500E-2,2.596177394E-3
2.196988011E0,-4.734205548E-3,-2.336559631E-2,2.596177394E-3
2.199224767E0,-2.138028387E-3,-2.214386500E-2,3.817907767E-3
2.201461827E0,-3.359758761E-3,-1.970040426E-2,2.596177394E-3
2.203699437E0,-7.024950348E-3,-1.970040426E-2,2.596177394E-3
2.205936009E0,-4.428773187E-3,-1.374446787E-2,2.596177394E-3
2.208171788E0,-5.650503561E-3,-1.359175146E-2,5.039638374E-3
2.210408116E0,-7.635815418E-4,-1.252273750E-2,1.374446787E-3
2.212644689E0,-3.054326167E-3,-8.857546374E-3,1.374446787E-3
2.214881688E0,-4.276056774E-3,-6.414085161E-3,1.374446787E-3
2.217118321E0,-1.679879380E-3,-1.527163084E-3,2.748893574E-3
2.219355443E0,-2.901609987E-3,-3.054326226E-4,2.596177394E-3
2.221590306E0,-4.581489484E-4,-4.581489484E-4,2.748893574E-3
2.223818089E0,-1.679879380E-3,5.650503561E-3,2.748893574E-3
2.226065343E0,-2.748893574E-3,6.872233935E-3,2.748893574E-3
2.228301610E0,-3.054326226E-4,9.315694682E-3,5.192354787E-3
2.230541112E0,2.290744567E-3,1.282817032E-2,2.748893574E-3
2.232775304E0,3.512475174E-3,1.282817032E-2,2.748893574E-3
2.235012120E0,3.512475174E-3,1.527163107E-2,2.748893574E-3
2.237247044E0,3.512475174E-3,1.404990070E-2,1.527163084E-3
2.239478917E0,2.290744567E-3,1.649336144E-2,2.748893574E-3
2.241720067E0,3.512475174E-3,1.771509275E-2,3.970623948E-3
2.243946934E0,2.443460980E-3,2.138028294E-2,1.527163084E-3
2.246197118E0,2.443460980E-3,2.138028294E-2,3.054326226E-4
2.248431798E0,6.108652335E-3,2.260201424E-2,2.901609987E-3
2.250671788E0,6.108652335E-3,2.367102914E-2,4.123340361E-3
2.252905492E0,6.108652335E-3,2.260201424E-2,1.679879380E-3
2.255142796E0,4.886921961E-3,2.260201424E-2,1.679879380E-3
2.257380284E0,6.108652335E-3,2.260201424E-2,-7.635815418E-4
2.259616612E0,6.108652335E-3,2.015855350E-2,1.679879380E-3
2.261852147E0,7.330383174E-3,2.000583708E-2,1.679879380E-3
2.264088780E0,9.773843922E-3,2.000583708E-2,4.581489484E-4
2.266325658E0,8.399397135E-3,1.649336144E-2,1.679879380E-3
2.268562657E0,9.773843922E-3,1.878410578E-2,1.679879380E-3
2.270799046E0,4.734205548E-3,1.649336144E-2,1.527163084E-3
2.273036290E0,7.177666761E-3,1.527163107E-2,1.679879380E-3
2.275273839E0,8.399397135E-3,1.160643995E-2,1.527163084E-3
2.277507176E0,8.399397135E-3,1.160643995E-2,1.527163084E-3
2.279732762E0,5.803219974E-3,1.038470957E-2,2.748893574E-3
2.281982335E0,7.024950348E-3,7.941247895E-3,1.527163084E-3
2.284219090E0,7.024950348E-3,4.276056774E-3,2.748893574E-3
2.286459264E0,4.428773187E-3,-4.581489484E-4,1.527163084E-3
2.288692906E0,8.093964309E-3,6.108652451E-4,1.527163084E-3
2.290930150E0,6.872233935E-3,6.108652451E-4,2.748893574E-3
2.293167759E0,4.428773187E-3,-4.581489484E-4,2.748893574E-3
2.295404210E0,3.207042580E-3,-4.581489484E-4,1.527163084E-3
2.297639561E0,1.985311974E-3,-1.679879380E-3,1.527163084E-3
2.299876317E0,4.276056774E-3,-5.345070735E-3,1.527163084E-3
2.302112584E0,1.832595794E-3,-6.566801574E-3,3.970623948E-3
2.304349522E0,-1.832595794E-3,-7.635815535E-3,1.374446787E-3
2.306586278E0,4.581489484E-4,-1.007927675E-2,2.596177394E-3
2.308823399E0,-1.985311974E-3,-1.374446787E-2,1.374446787E-3
2.311061070E0,-7.635815418E-4,-1.496619824E-2,1.374446787E-3
2.313297826E0,-1.985311974E-3,-1.496619824E-2,-1.069014193E-3
2.315533360E0,4.581489484E-4,-1.374446787E-2,1.527163113E-4
2.317769689E0,-4.428773187E-3,-1.359175146E-2,1.374446787E-3
2.320006200E0,-6.872233935E-3,-1.237002108E-2,2.596177394E-3
2.322242344E0,-4.428773187E-3,-1.252273750E-2,1.374446787E-3
2.324473179E0,-3.207042580E-3,-1.496619824E-2,1.374446787E-3
2.326704808E0,-3.359758761E-3,-1.725694351E-2,1.374446787E-3
2.328954808E0,-3.207042580E-3,-1.374446787E-2,3.817907767E-3
2.331192235E0,-5.650503561E-3,-1.481348183E-2,1.374446787E-3
2.333429723E0,-3.207042580E-3,-1.374446787E-2,1.374446787E-3
2.335660252E0,-1.985311974E-3,-1.374446787E-2,2.596177394E-3
2.337888097E0,-4.428773187E-3,-1.007927675E-2,1.374446787E-3
2.340137181E0,-1.985311974E-3,-1.007927675E-2,3.817907767E-3
2.342370640E0,4.581489484E-4,-1.130100712E-2,1.374446787E-3
2.344601293E0,4.581489484E-4,-1.130100712E-2,2.596177394E-3
2.346848363E0,4.581489484E-4,-1.130100712E-2,1.527163113E-4
2.349085118E0,6.108652451E-4,-8.857546374E-3,-2.290744567E-3
2.351323583E0,6.108652451E-4,-7.635815535E-3,1.527163113E-4
2.353557042E0,6.108652451E-4,-6.414085161E-3,3.970623948E-3
2.355790501E0,4.276056774E-3,-9.010262787E-3,3.054326226E-4
2.358018468E0,1.832595794E-3,-6.566801574E-3,1.527163084E-3
2.360264256E0,5.650503561E-3,-4.123340361E-3,-2.138028387E-3
2.362489414E0,5.650503561E-3,-2.901609987E-3,-9.162978968E-4
2.364733250E0,4.428773187E-3,-4.581489484E-4,-9.162978968E-4
2.366978673E0,4.428773187E-3,-4.581489484E-4,-9.162978968E-4
2.369217015E0,1.985311974E-3,3.207042580E-3,-9.162978968E-4
2.371453466E0,4.581489135E-3,3.207042580E-3,3.054326226E-4
2.373686864E0,4.581489135E-3,6.719517522E-3,3.054326226E-4
2.375924168E0,7.024950348E-3,7.941247895E-3,3.054326226E-4
2.378160558E0,5.803219974E-3,7.941247895E-3,-9.162978968E-4
2.380397923E0,9.621127509E-3,1.038470957E-2,3.054326226E-4
2.382635472E0,9.621127509E-3,1.282817032E-2,4.581489484E-4
2.384872288E0,4.734205548E-3,1.282817032E-2,1.527163084E-3
2.387107579E0,4.734205548E-3,1.527163107E-2,1.527163084E-3
2.389344151E0,5.955935922E-3,1.771509275E-2,1.527163084E-3
2.391576451E0,4.886921961E-3,1.893682219E-2,1.527163084E-3
2.393800938E0,6.108652335E-3,1.893682219E-2,1.527163084E-3
2.396054356E0,7.330383174E-3,1.893682219E-2,4.581489484E-4
2.398291478E0,8.552113548E-3,2.000583708E-2,4.581489484E-4
2.400533483E0,6.108652335E-3,2.367102914E-2,2.901609987E-3
2.402765782E0,7.330383174E-3,2.122756653E-2,4.123340361E-3
2.404998509E0,3.665191587E-3,2.138028294E-2,2.748893574E-3
2.407227147E0,4.886921961E-3,2.504547499E-2,2.901609987E-3
2.409474278E0,1.221730490E-3,2.260201424E-2,2.748893574E-3
2.411708836E0,3.665191587E-3,2.015855350E-2,2.748893574E-3
2.413939549E0,2.443460980E-3,2.260201424E-2,1.527163084E-3
2.416185032E0,-1.527163113E-4,1.893682219E-2,1.527163084E-3
2.418422825E0,1.069014193E-3,1.649336144E-2,2.748893574E-3
2.420662327E0,1.069014193E-3,1.649336144E-2,2.748893574E-3
2.422894688E0,1.069014193E-3,1.771509275E-2,1.527163084E-3
2.425131200E0,4.734205548E-3,1.527163107E-2,3.970623948E-3
2.427367772E0,2.138028387E-3,1.175915636E-2,1.527163084E-3
2.429605199E0,2.138028387E-3,1.053742506E-2,1.527163084E-3
2.431838780E0,2.138028387E-3,8.093964309E-3,2.748893574E-3
2.434066868E0,3.359758761E-3,4.428773187E-3,2.748893574E-3
2.436316319E0,1.985311974E-3,3.207042580E-3,2.748893574E-3
2.438552831E0,7.635815418E-4,3.207042580E-3,3.970623948E-3
2.440791173E0,9.162978968E-4,5.650503561E-3,1.527163084E-3
2.443024815E0,7.635815418E-4,1.985311974E-3,3.970623948E-3
2.445261754E0,-1.832595794E-3,-2.748893574E-3,1.374446787E-3
2.447499242E0,1.985311974E-3,-2.901609987E-3,3.054326226E-4
2.449735326E0,1.832595794E-3,-6.566801574E-3,1.527163084E-3
2.451972386E0,6.108652451E-4,-5.345070735E-3,3.054326226E-4
2.454209996E0,-3.054326167E-3,-8.857546374E-3,-1.069014193E-3
2.456446446E0,-3.054326167E-3,-7.635815535E-3,-1.069014193E-3
2.458682042E0,-5.497787148E-3,-8.857546374E-3,-1.069014193E-3
2.460918553E0,-3.054326167E-3,-6.414085161E-3,-1.069014193E-3
2.463155187E0,-3.207042580E-3,-8.857546374E-3,3.817907767E-3
2.465392247E0,-5.497787148E-3,-6.414085161E-3,-1.069014193E-3
2.467628819E0,-6.872233935E-3,-1.114829071E-2,-1.069014193E-3
2.469865941E0,-6.872233935E-3,-1.114829071E-2,1.527163113E-4
2.472103673E0,-8.093964309E-3,-7.483099122E-3,1.374446787E-3
2.474340001E0,-9.162978269E-3,-7.483099122E-3,-1.069014193E-3
2.476575536E0,-8.093964309E-3,-1.114829071E-2,-2.290744567E-3
2.478811864E0,-5.497787148E-3,-8.857546374E-3,-2.290744567E-3
2.481048802E0,-6.872233935E-3,-8.704829961E-3,1.527163113E-4
2.483286046E0,-4.276056774E-3,-7.635815535E-3,-1.069014193E-3
2.485522496E0,-4.428773187E-3,-1.130100712E-2,-2.290744567E-3
2.487759739E0,-6.872233935E-3,-1.114829071E-2,-2.290744567E-3
2.489996861E0,-3.207042580E-3,-1.374446787E-2,-3.512475174E-3
2.492230931E0,-4.428773187E-3,-1.007927675E-2,-2.290744567E-3
2.494463536E0,-3.207042580E-3,-1.252273750E-2,-3.512475174E-3
2.496705907E0,-3.207042580E-3,-1.252273750E-2,-4.734205548E-3
2.498942601E0,-3.207042580E-3,-1.496619824E-2,-3.512475174E-3
2.501180760E0,-6.872233935E-3,-1.603521220E-2,-3.512475174E-3
2.503415868E0,-4.428773187E-3,-1.603521220E-2,-3.512475174E-3
2.505653111E0,-5.650503561E-3,-1.359175146E-2,-3.512475174E-3
2.507891087E0,-4.428773187E-3,-1.603521220E-2,-3.512475174E-3
2.510127354E0,-3.207042580E-3,-1.618792862E-2,-3.512475174E-3
2.512362767E0,-1.985311974E-3,-1.740965992E-2,-2.290744567E-3
2.514599401E0,-4.428773187E-3,-1.603521220E-2,-1.069014193E-3
2.516835790E0,-4.428773187E-3,-1.603521220E-2,-2.290744567E-3
2.519072972E0,-5.650503561E-3,-1.603521220E-2,-3.512475174E-3
2.521309727E0,-4.581489135E-3,-1.725694351E-2,-1.069014193E-3
2.523546849E0,-7.024950348E-3,-1.847867295E-2,-2.290744567E-3
2.525784459E0,-5.650503561E-3,-1.481348183E-2,-2.290744567E-3
2.528021153E0,-5.803219974E-3,-1.725694351E-2,-1.069014193E-3
2.530256444E0,-4.581489135E-3,-1.725694351E-2,-1.069014193E-3
2.532492833E0,-2.138028387E-3,-1.863138936E-2,-1.069014193E-3
2.534729588E0,-3.207042580E-3,-1.725694351E-2,-1.069014193E-3
2.536966710E0,-4.428773187E-3,-1.481348183E-2,-1.069014193E-3
2.539203343E0,-5.650503561E-3,-1.481348183E-2,-1.069014193E-3
2.541440465E0,-8.246680722E-3,-1.603521220E-2,-1.069014193E-3
2.543678441E0,-5.650503561E-3,-1.481348183E-2,1.374446787E-3
2.545914647E0,-6.872233935E-3,-1.237002108E-2,1.374446787E-3
2.548149815E0,-6.872233935E-3,-1.359175146E-2,1.527163113E-4
2.550386510E0,-8.093964309E-3,-1.359175146E-2,1.527163113E-4
2.552623143E0,-6.872233935E-3,-1.237002108E-2,1.374446787E-3
2.554860326E0,-5.650503561E-3,-1.114829071E-2,1.374446787E-3
2.557096837E0,-5.650503561E-3,-1.237002108E-2,2.596177394E-3
2.559333897E0,-8.093964309E-3,-1.114829071E-2,2.596177394E-3
2.561568699E0,-4.276056774E-3,-8.857546374E-3,1.527163113E-4
2.563797093E0,-4.276056774E-3,-7.635815535E-3,2.596177394E-3
2.566043858E0,-4.428773187E-3,-8.857546374E-3,1.374446787E-3
2.568277257E0,-1.985311974E-3,-1.130100712E-2,1.374446787E-3
2.570507786E0,-5.650503561E-3,-8.857546374E-3,1.527163113E-4
2.572753758E0,-3.207042580E-3,-1.007927675E-2,1.374446787E-3
2.574990453E0,-3.054326167E-3,-1.007927675E-2,-2.290744567E-3
2.577230748E0,-3.054326167E-3,-8.857546374E-3,-1.069014193E-3
2.579465611E0,6.108652451E-4,-7.635815535E-3,-2.290744567E-3
2.581699314E0,6.108652451E-4,-6.414085161E-3,-9.162978968E-4
2.583926122E0,6.108652451E-4,-6.414085161E-3,-2.138028387E-3
2.586173619E0,-6.108652451E-4,-5.192354787E-3,-9.162978968E-4
2.588410253E0,1.985311974E-3,-4.123340361E-3,-2.138028387E-3
2.590650486E0,1.985311974E-3,-1.679879380E-3,3.054326226E-4
2.592884495E0,1.985311974E-3,-4.581489484E-4,1.527163084E-3
2.595121312E0,-1.679879380E-3,-3.054326226E-4,-9.162978968E-4
2.597358800E0,1.985311974E-3,-1.679879380E-3,-2.138028387E-3
2.599595311E0,4.428773187E-3,7.635815418E-4,3.054326226E-4
2.601830907E0,1.985311974E-3,3.207042580E-3,-9.162978968E-4
2.604067357E0,3.359758761E-3,4.428773187E-3,-9.162978968E-4
2.606304356E0,5.803219974E-3,6.719517522E-3,-9.162978968E-4
2.608541173E0,4.581489135E-3,5.497787148E-3,-9.162978968E-4
2.610777745E0,2.138028387E-3,6.872233935E-3,-9.162978968E-4
2.613014500E0,2.138028387E-3,6.872233935E-3,3.054326226E-4
2.615252415E0,4.581489135E-3,7.941247895E-3,-2.138028387E-3
2.617489171E0,5.803219974E-3,7.941247895E-3,-9.162978968E-4
2.619724522E0,2.138028387E-3,9.315694682E-3,-9.162978968E-4
2.621960851E0,2.138028387E-3,9.315694682E-3,-9.162978968E-4
2.624197606E0,2.290744567E-3,1.175915636E-2,3.054326226E-4
2.626434727E0,9.162978968E-4,8.093964309E-3,-9.162978968E-4
2.628671361E0,9.162978968E-4,6.872233935E-3,-2.138028387E-3
2.630908421E0,2.138028387E-3,5.650503561E-3,-2.138028387E-3
2.633143285E0,3.359758761E-3,4.428773187E-3,-3.359758761E-3
2.635368077E0,2.138028387E-3,3.207042580E-3,-5.803219974E-3
2.637605198E0,2.138028387E-3,4.428773187E-3,-3.359758761E-3
2.639846959E0,3.207042580E-3,-1.679879380E-3,3.054326226E-4
2.642079198E0,3.207042580E-3,-1.679879380E-3,3.054326226E-4
2.644316563E0,7.635815418E-4,-4.581489484E-4,-3.359758761E-3
2.646554357E0,-1.679879380E-3,-2.748893574E-3,-2.290744567E-3
2.648805272E0,6.108652451E-4,-4.123340361E-3,-9.162978968E-4
2.651042943E0,4.276056774E-3,-7.788531948E-3,-2.138028387E-3
2.653279271E0,1.832595794E-3,-7.788531948E-3,-2.290744567E-3
2.655511876E0,-6.108652451E-4,-1.007927675E-2,-2.290744567E-3
2.657748326E0,4.276056774E-3,-9.010262787E-3,-2.138028387E-3
2.659984715E0,3.054326167E-3,-1.145372353E-2,-1.069014193E-3
2.662221776E0,3.054326167E-3,-9.010262787E-3,-9.162978968E-4
2.664458409E0,4.276056774E-3,-7.788531948E-3,-9.162978968E-4
2.666695775E0,4.276056774E-3,-9.010262787E-3,-9.162978968E-4
2.668933384E0,5.497787148E-3,-7.788531948E-3,-9.162978968E-4
2.671170140E0,5.497787148E-3,-6.566801574E-3,-9.162978968E-4
2.673402440E0,6.719517522E-3,-6.566801574E-3,-2.138028387E-3
2.675628697E0,5.650503561E-3,-5.345070735E-3,-9.162978968E-4
2.677873082E0,4.428773187E-3,-4.581489484E-4,3.054326226E-4
2.680115331E0,5.650503561E-3,-4.581489484E-4,3.054326226E-4
2.682352818E0,6.872233935E-3,1.832595794E-3,3.054326226E-4
2.684582127E0,8.246680722E-3,3.054326167E-3,-2.138028387E-3
2.686827183E0,7.024950348E-3,5.497787148E-3,3.054326226E-4
2.689063695E0,7.024950348E-3,7.941247895E-3,-2.138028387E-3
2.691301121E0,5.803219974E-3,7.941247895E-3,-3.359758761E-3
2.693535558E0,8.399397135E-3,1.038470957E-2,-2.138028387E-3
2.695767796E0,7.330383174E-3,1.893682219E-2,-9.162978968E-4
2.697991124E0,4.886921961E-3,1.771509275E-2,-2.138028387E-3
2.700245824E0,6.108652335E-3,2.015855350E-2,-3.359758761E-3
2.702480076E0,3.665191587E-3,2.015855350E-2,-3.359758761E-3
2.704713231E0,4.886921961E-3,2.138028294E-2,-3.359758761E-3
2.706957249E0,4.886921961E-3,2.138028294E-2,-4.581489135E-3
2.709192784E0,3.665191587E-3,2.260201424E-2,-9.162978968E-4
2.711432286E0,1.221730490E-3,2.382374369E-2,-4.581489135E-3
2.713665624E0,-0.000000000E0,2.382374369E-2,-3.359758761E-3
2.715902684E0,2.596177394E-3,2.871066704E-2,-4.581489135E-3
2.718139256E0,6.261368748E-3,2.855795063E-2,-4.428773187E-3
2.720376439E0,6.261368748E-3,2.977968007E-2,-3.207042580E-3
2.722611241E0,6.414085161E-3,3.100141138E-2,-5.650503561E-3
2.724838780E0,2.596177394E-3,2.748893574E-2,-7.024950348E-3
2.727086095E0,2.596177394E-3,2.626720630E-2,-4.581489135E-3
2.729322606E0,5.039638374E-3,2.504547499E-2,-5.650503561E-3
2.731559239E0,4.886921961E-3,2.138028294E-2,-7.024950348E-3
2.733784581E0,3.817907767E-3,2.382374369E-2,-7.024950348E-3
2.736032811E0,3.817907767E-3,2.382374369E-2,-7.024950348E-3
2.738269749E0,2.443460980E-3,2.015855350E-2,-7.024950348E-3
2.740510777E0,3.665191587E-3,1.893682219E-2,-7.024950348E-3
2.742744603E0,-0.000000000E0,2.015855350E-2,-5.803219974E-3
2.744980015E0,1.069014193E-3,1.649336144E-2,-7.024950348E-3
2.747216405E0,4.734205548E-3,1.527163107E-2,-5.803219974E-3
2.749452672E0,3.512475174E-3,1.527163107E-2,-4.581489135E-3
2.751686863E0,1.069014193E-3,1.175915636E-2,-7.024950348E-3
2.753914708E0,1.069014193E-3,1.053742506E-2,-5.803219974E-3
2.756163853E0,9.162978968E-4,6.872233935E-3,-5.803219974E-3
2.758401646E0,-3.054326226E-4,5.650503561E-3,-4.581489135E-3
2.760641088E0,-1.679879380E-3,3.207042580E-3,-3.359758761E-3
2.762873448E0,-4.581489484E-4,7.635815418E-4,-3.359758761E-3
2.765109960E0,-4.123340361E-3,2.138028387E-3,-3.512475174E-3
2.767346532E0,-4.123340361E-3,-2.748893574E-3,-3.512475174E-3
2.769583653E0,-1.832595794E-3,-3.970623948E-3,-3.512475174E-3
2.771817234E0,6.108652451E-4,-6.414085161E-3,-1.069014193E-3
2.774045384E0,-1.832595794E-3,-8.857546374E-3,-2.290744567E-3
2.776291722E0,-1.832595794E-3,-7.635815535E-3,-2.290744567E-3
2.778515049E0,-3.207042580E-3,-1.130100712E-2,-1.069014193E-3
2.780758336E0,-3.207042580E-3,-1.252273750E-2,1.527163113E-4
2.783003819E0,-1.985311974E-3,-1.252273750E-2,1.374446787E-3
2.785243810E0,-3.207042580E-3,-1.252273750E-2,1.527163113E-4
2.787480382E0,-3.207042580E-3,-1.496619824E-2,-1.069014193E-3
2.789713719E0,4.581489484E-4,-1.374446787E-2,1.527163113E-4
2.791950841E0,-5.650503561E-3,-1.481348183E-2,-1.069014193E-3
2.794188634E0,-5.650503561E-3,-1.359175146E-2,1.374446787E-3
2.796425206E0,-2.138028387E-3,-1.740965992E-2,1.374446787E-3
2.798660558E0,-6.872233935E-3,-1.359175146E-2,1.527163113E-4
2.800897069E0,-8.093964309E-3,-1.237002108E-2,1.374446787E-3
2.803133641E0,-5.650503561E-3,-1.114829071E-2,2.596177394E-3
2.805370824E0,-5.650503561E-3,-1.481348183E-2,1.374446787E-3
2.807607640E0,-4.428773187E-3,-1.374446787E-2,1.374446787E-3
2.809844700E0,-6.872233935E-3,-1.114829071E-2,1.527163113E-4
2.812082249E0,-6.719517522E-3,-6.414085161E-3,1.527163113E-4
2.814318761E0,-5.650503561E-3,-1.007927675E-2,1.527163113E-4
2.816554295E0,-4.276056774E-3,-8.857546374E-3,-1.069014193E-3
2.818790624E0,-7.941247895E-3,-6.261368748E-3,1.527163113E-4
2.821024205E0,-5.497787148E-3,-6.414085161E-3,-1.069014193E-3
2.823249302E0,-4.276056774E-3,-3.970623948E-3,-1.069014193E-3
2.825485936E0,-4.276056774E-3,-5.192354787E-3,1.527163113E-4
2.827726109E0,-4.276056774E-3,-3.970623948E-3,1.374446787E-3
2.829979039E0,-5.497787148E-3,-2.748893574E-3,1.374446787E-3
2.832215428E0,-4.123340361E-3,-1.527163084E-3,-1.069014193E-3
2.834451207E0,-4.123340361E-3,9.162978968E-4,1.527163113E-4
2.836684422E0,-1.679879380E-3,9.162978968E-4,-9.162978968E-4
2.838921056E0,-1.679879380E-3,4.428773187E-3,3.054326226E-4
2.841157994E0,-1.679879380E-3,4.428773187E-3,1.527163084E-3
2.843394444E0,-1.679879380E-3,3.207042580E-3,3.054326226E-4
2.845631749E0,-4.123340361E-3,4.581489135E-3,3.054326226E-4
2.847869298E0,-3.054326226E-4,5.650503561E-3,-2.138028387E-3
2.850105992E0,-1.527163084E-3,9.315694682E-3,1.527163084E-3
2.852341771E0,-3.054326226E-4,5.650503561E-3,1.527163084E-3
2.854578221E0,-4.581489484E-4,4.428773187E-3,3.054326226E-4
2.856814305E0,-1.679879380E-3,4.428773187E-3,-9.162978968E-4
2.859048497E0,-1.527163084E-3,4.428773187E-3,-2.138028387E-3
2.861277073E0,-2.901609987E-3,-3.054326226E-4,1.527163113E-4
2.863526890E0,-1.679879380E-3,9.162978968E-4,1.527163084E-3
2.865763218E0,-2.901609987E-3,-3.054326226E-4,-9.162978968E-4
2.868002538E0,-3.054326167E-3,-2.748893574E-3,1.527163113E-4
2.870234654E0,-3.054326167E-3,-3.970623948E-3,-1.069014193E-3
2.872471593E0,-1.832595794E-3,-6.414085161E-3,-3.512475174E-3
2.874708409E0,-1.832595794E-3,-6.414085161E-3,-2.290744567E-3
2.876945470E0,-4.276056774E-3,-6.414085161E-3,-1.069014193E-3
2.879181859E0,-3.207042580E-3,-1.007927675E-2,-1.069014193E-3
2.881419041E0,-3.207042580E-3,-1.007927675E-2,1.374446787E-3
2.883656407E0,-3.207042580E-3,-1.496619824E-2,-2.290744567E-3
2.885893285E0,-1.985311974E-3,-1.618792862E-2,1.374446787E-3
2.888128819E0,-3.207042580E-3,-1.374446787E-2,1.527163113E-4
2.890365453E0,-1.985311974E-3,-1.496619824E-2,1.374446787E-3
2.892601903E0,-1.985311974E-3,-1.618792862E-2,-2.290744567E-3
2.894838719E0,-7.635815418E-4,-1.740965992E-2,-2.290744567E-3
2.897075291E0,-7.635815418E-4,-1.740965992E-2,-2.290744567E-3
2.899312474E0,-3.207042580E-3,-1.725694351E-2,-1.069014193E-3
2.901549107E0,-7.635815418E-4,-1.740965992E-2,1.527163113E-4
2.903781224E0,-3.207042580E-3,-1.496619824E-2,-1.069014193E-3
2.906022374E0,-7.635815418E-4,-1.496619824E-2,-1.069014193E-3
2.908258641E0,-3.207042580E-3,-1.496619824E-2,-1.069014193E-3
2.910496862E0,-1.985311974E-3,-1.130100712E-2,1.527163113E-4
2.912732335E0,-4.428773187E-3,-1.007927675E-2,1.527163113E-4
2.914969212E0,-1.832595794E-3,-7.635815535E-3,-1.069014193E-3
2.917206212E0,-3.054326167E-3,-5.192354787E-3,-2.290744567E-3
2.919443883E0,-2.901609987E-3,-2.748893574E-3,-2.290744567E-3
2.921677586E0,-1.679879380E-3,-3.054326226E-4,3.054326226E-4
2.923903966E0,7.635815418E-4,7.635815418E-4,-2.138028387E-3
2.926152501E0,-1.679879380E-3,1.985311974E-3,3.054326226E-4
2.928389012E0,-1.527163084E-3,4.428773187E-3,-2.138028387E-3
2.930629064E0,-3.054326226E-4,5.650503561E-3,-2.138028387E-3
2.932862462E0,1.985311974E-3,7.635815418E-4,-9.162978968E-4
2.935099827E0,9.162978968E-4,5.650503561E-3,-2.138028387E-3
2.937337559E0,-3.054326226E-4,6.872233935E-3,-2.138028387E-3
2.939573949E0,3.359758761E-3,8.093964309E-3,-2.138028387E-3
2.941809422E0,4.581489135E-3,7.941247895E-3,-2.138028387E-3
2.944046422E0,2.290744567E-3,1.175915636E-2,-2.138028387E-3
2.946285314E0,4.734205548E-3,1.404990070E-2,-9.162978968E-4
2.948519688E0,2.290744567E-3,1.282817032E-2,-9.162978968E-4
2.950756322E0,2.290744567E-3,1.282817032E-2,-9.162978968E-4
2.952992772E0,4.734205548E-3,1.404990070E-2,3.054326226E-4
2.955231419E0,4.734205548E-3,1.282817032E-2,1.527163084E-3
2.957467747E0,4.734205548E-3,1.282817032E-2,-9.162978968E-4
2.959703343E0,4.734205548E-3,1.160643995E-2,-9.162978968E-4
2.961939794E0,7.177666761E-3,9.162978269E-3,-9.162978968E-4
2.964176427E0,5.803219974E-3,9.162978269E-3,-9.162978968E-4
2.966413426E0,4.734205548E-3,1.404990070E-2,1.527163084E-3
2.968649815E0,4.734205548E-3,1.160643995E-2,3.054326226E-4
2.970887120E0,5.803219974E-3,7.941247895E-3,3.054326226E-4
2.973124730E0,4.581489135E-3,9.162978269E-3,3.054326226E-4
2.975361607E0,4.581489135E-3,7.941247895E-3,1.527163084E-3
2.977597020E0,5.803219974E-3,7.941247895E-3,-9.162978968E-4
2.979833165E0,4.581489135E-3,6.719517522E-3,1.527163084E-3
2.982069920E0,3.359758761E-3,8.093964309E-3,3.054326226E-4
2.984306981E0,4.581489135E-3,7.941247895E-3,3.054326226E-4
2.986543675E0,4.581489135E-3,6.719517522E-3,3.054326226E-4
2.988777807E0,3.359758761E-3,4.428773187E-3,-2.138028387E-3
2.991006749E0,1.985311974E-3,1.985311974E-3,-9.162978968E-4
2.993254796E0,7.635815418E-4,-4.581489484E-4,3.054326226E-4
2.995490392E0,1.985311974E-3,-2.901609987E-3,-9.162978968E-4
2.997729832E0,7.635815418E-4,-4.581489484E-4,-2.138028387E-3
2.999963597E0,7.635815418E-4,-2.901609987E-3,-9.162978968E-4
3.002200841E0,1.985311974E-3,-4.581489484E-4,1.527163084E-3
3.004437169E0,-1.832595794E-3,-2.748893574E-3,3.054326226E-4
3.006674290E0,-6.108652451E-4,-6.414085161E-3,-2.290744567E-3
3.008912022E0,6.108652451E-4,-4.123340361E-3,3.054326226E-4
3.011148595E0,1.832595794E-3,-9.010262787E-3,3.054326226E-4
3.013383946E0,1.832595794E-3,-1.007927675E-2,-1.069014193E-3
3.015617162E0,-6.108652451E-4,-8.857546374E-3,1.527163113E-4
3.017843846E0,6.108652451E-4,-1.007927675E-2,-1.069014193E-3
3.020094151E0,6.108652451E-4,-1.007927675E-2,-1.069014193E-3
3.022330724E0,-7.635815418E-4,-1.130100712E-2,1.374446787E-3
3.024571141E0,1.679879380E-3,-1.252273750E-2,1.527163113E-4
3.026802586E0,1.679879380E-3,-1.252273750E-2,1.527163113E-4
3.029029942E0,1.832595794E-3,-9.010262787E-3,3.054326226E-4
3.031277562E0,3.054326167E-3,-1.023199316E-2,3.054326226E-4
3.033514317E0,-6.108652451E-4,-8.857546374E-3,-1.069014193E-3
3.035753881E0,3.054326167E-3,-9.010262787E-3,3.054326226E-4
3.037987706E0,4.581489484E-4,-1.130100712E-2,1.527163113E-4
3.040224278E0,-7.635815418E-4,-1.130100712E-2,2.596177394E-3
3.042458653E0,3.054326167E-3,-1.023199316E-2,3.054326226E-4
3.044687474E0,-6.108652451E-4,-6.414085161E-3,-1.069014193E-3
3.046935765E0,1.832595794E-3,-6.566801574E-3,1.527163084E-3
3.049171300E0,5.497787148E-3,-7.788531948E-3,2.748893574E-3
3.051410801E0,4.276056774E-3,-5.345070735E-3,1.527163084E-3
3.053644444E0,7.635815418E-4,-1.679879380E-3,-9.162978968E-4
3.055881505E0,1.985311974E-3,3.207042580E-3,1.527163084E-3
3.058118077E0,1.985311974E-3,3.207042580E-3,1.527163084E-3
3.060355137E0,7.635815418E-4,1.985311974E-3,3.054326226E-4
3.062589756E0,4.581489135E-3,3.207042580E-3,3.054326226E-4
3.064817540E0,3.359758761E-3,8.093964309E-3,3.054326226E-4
3.067063206E0,9.162978968E-4,4.428773187E-3,3.054326226E-4
3.069294835E0,3.359758761E-3,6.872233935E-3,1.527163084E-3
3.071542699E0,-1.527163113E-4,1.298088674E-2,3.054326226E-4
3.073782140E0,9.162978968E-4,1.053742506E-2,-2.138028387E-3
3.076013280E0,2.290744567E-3,1.282817032E-2,-2.138028387E-3
3.078248753E0,3.512475174E-3,1.771509275E-2,-9.162978968E-4
3.080484776E0,1.069014193E-3,1.542434748E-2,-9.162978968E-4
3.082723058E0,-1.374446787E-3,1.786780916E-2,-9.162978968E-4
3.084958409E0,2.290744567E-3,1.527163107E-2,-9.162978968E-4
3.087194920E0,2.290744567E-3,1.404990070E-2,-2.138028387E-3
3.089431493E0,2.290744567E-3,1.771509275E-2,-9.162978968E-4
3.091665684E0,1.069014193E-3,1.771509275E-2,-2.138028387E-3
3.093893468E0,2.290744567E-3,1.649336144E-2,-2.138028387E-3
3.096142308E0,3.512475174E-3,1.527163107E-2,-2.138028387E-3
3.098380101E0,4.734205548E-3,1.160643995E-2,-2.138028387E-3
3.100619603E0,4.734205548E-3,1.282817032E-2,-2.138028387E-3
3.102852208E0,4.734205548E-3,1.160643995E-2,3.054326226E-4
3.105088475E0,7.024950348E-3,9.162978269E-3,3.054326226E-4
3.107325108E0,4.581489135E-3,7.941247895E-3,1.527163084E-3
3.109562352E0,4.581489135E-3,5.497787148E-3,1.527163084E-3
3.111795750E0,4.581489135E-3,5.497787148E-3,1.527163084E-3
3.114023961E0,5.803219974E-3,3.054326167E-3,3.054326226E-4
3.116273839E0,3.207042580E-3,1.985311974E-3,1.527163084E-3
3.118510167E0,3.359758761E-3,4.428773187E-3,1.527163084E-3
3.120748570E0,3.207042580E-3,7.635815418E-4,1.527163084E-3
3.122982274E0,3.207042580E-3,-4.581489484E-4,2.748893574E-3
3.125218968E0,-4.581489484E-4,-1.679879380E-3,2.748893574E-3
3.127456273E0,3.207042580E-3,-1.679879380E-3,3.970623948E-3
3.129692540E0,3.054326167E-3,-5.345070735E-3,3.970623948E-3
3.131926915E0,6.108652451E-4,-4.123340361E-3,3.970623948E-3
3.134153416E0,1.832595794E-3,-2.901609987E-3,5.192354787E-3
3.136392064E0,6.108652451E-4,-5.345070735E-3,5.192354787E-3
3.138639500E0,6.108652451E-4,-6.414085161E-3,3.970623948E-3
3.140875463E0,-6.108652451E-4,-6.414085161E-3,2.596177394E-3
3.143100987E0,-3.054326167E-3,-7.635815535E-3,2.596177394E-3
3.145337804E0,-4.276056774E-3,-5.192354787E-3,3.817907767E-3
3.147586400E0,-4.276056774E-3,-7.635815535E-3,3.817907767E-3
3.149826085E0,-6.108652451E-4,-6.414085161E-3,3.817907767E-3
3.152063939E0,-4.276056774E-3,-6.414085161E-3,2.596177394E-3
3.154296849E0,-3.207042580E-3,-8.857546374E-3,3.817907767E-3
3.156526159E0,-4.276056774E-3,-6.414085161E-3,2.596177394E-3
3.158752294E0,-3.054326167E-3,-3.970623948E-3,2.596177394E-3
3.161006017E0,-3.054326167E-3,-3.970623948E-3,2.596177394E-3
3.163243931E0,-5.497787148E-3,-2.748893574E-3,1.374446787E-3
3.165483982E0,-4.276056774E-3,-2.748893574E-3,3.817907767E-3
3.167717076E0,-4.276056774E-3,-3.970623948E-3,1.527163113E-4
3.169954747E0,-4.581489484E-4,-4.581489484E-4,2.748893574E-3
3.172188206E0,-2.901609987E-3,-3.054326226E-4,2.748893574E-3
3.174414952E0,-2.901609987E-3,3.359758761E-3,1.527163084E-3
3.176663182E0,-4.581489484E-4,3.207042580E-3,3.054326226E-4
3.178899815E0,-1.527163084E-3,5.650503561E-3,3.054326226E-4
3.181139745E0,-1.527163084E-3,6.872233935E-3,-9.162978968E-4
3.183373204E0,-2.748893574E-3,8.093964309E-3,3.054326226E-4
3.185610570E0,9.162978968E-4,9.315694682E-3,-9.162978968E-4
3.187848302E0,-3.054326226E-4,1.053742506E-2,3.054326226E-4
3.190084630E0,1.069014193E-3,1.298088674E-2,-2.138028387E-3
3.192319920E0,1.069014193E-3,1.298088674E-2,-9.162978968E-4
3.194556432E0,3.512475174E-3,1.649336144E-2,3.054326226E-4
3.196793126E0,1.221730490E-3,1.893682219E-2,-2.138028387E-3
3.199030492E0,-0.000000000E0,2.138028294E-2,-3.359758761E-3
3.201267064E0,-1.221730490E-3,2.031126991E-2,-3.359758761E-3
3.203504185E0,-1.221730490E-3,2.504547499E-2,-3.359758761E-3
3.205741917E0,-1.221730490E-3,2.153299935E-2,-9.162978968E-4
3.207978490E0,1.221730490E-3,2.138028294E-2,-3.359758761E-3
3.210214024E0,-1.221730490E-3,2.260201424E-2,-9.162978968E-4
3.212450292E0,1.221730490E-3,2.504547499E-2,-3.359758761E-3
3.214686864E0,-0.000000000E0,2.382374369E-2,-9.162978968E-4
3.216923924E0,-1.527163113E-4,1.786780916E-2,-3.359758761E-3
3.219160619E0,1.069014193E-3,1.893682219E-2,-9.162978968E-4
3.221397923E0,-1.374446787E-3,1.786780916E-2,-3.359758761E-3
3.223635472E0,-1.374446787E-3,1.664607786E-2,-2.138028387E-3
3.225871983E0,-2.596177394E-3,1.542434748E-2,-2.138028387E-3
3.228107274E0,-1.527163113E-4,1.175915636E-2,-2.138028387E-3
3.230343846E0,-1.527163084E-3,9.315694682E-3,-5.803219974E-3
3.232580846E0,-3.970623948E-3,5.803219974E-3,-4.581489135E-3
3.234819249E0,-4.123340361E-3,9.162978968E-4,-2.290744567E-3
3.237054112E0,-5.345070735E-3,-3.054326226E-4,-2.290744567E-3
3.239291234E0,-6.719517522E-3,-6.414085161E-3,-1.069014193E-3
3.241525304E0,-4.428773187E-3,-1.007927675E-2,-1.069014193E-3
3.243752415E0,-4.428773187E-3,-1.130100712E-2,-2.290744567E-3
3.246001134E0,-4.581489135E-3,-1.725694351E-2,1.527163113E-4
3.248237401E0,-7.024950348E-3,-1.725694351E-2,-1.069014193E-3
3.250477330E0,-7.177666761E-3,-2.336559631E-2,1.527163113E-4
3.252711339E0,-5.955935922E-3,-2.703078650E-2,1.374446787E-3
3.254947972E0,-7.177666761E-3,-2.703078650E-2,2.596177394E-3
3.257185093E0,-7.330383174E-3,-3.054326214E-2,2.443460980E-3
3.259422825E0,-7.330383174E-3,-3.176499158E-2,3.665191587E-3
3.261656346E0,-9.926560335E-3,-3.665191308E-2,3.665191587E-3
3.263879795E0,-8.704829961E-3,-3.909537569E-2,2.443460980E-3
3.266119481E0,-8.704829961E-3,-4.031710699E-2,3.665191587E-3
3.268367772E0,-9.926560335E-3,-4.153883830E-2,4.886921961E-3
3.270607823E0,-8.704829961E-3,-4.276056588E-2,4.886921961E-3
3.272844152E0,-1.130100712E-2,-4.382958263E-2,6.108652335E-3
3.275075718E0,-9.926560335E-3,-4.153883830E-2,8.552113548E-3
3.277304844E0,-1.252273750E-2,-4.505131021E-2,4.886921961E-3
3.279552708E0,-1.252273750E-2,-4.505131021E-2,4.886921961E-3
3.281788182E0,-8.857546374E-3,-4.520402849E-2,6.108652335E-3
3.284027440E0,-9.926560335E-3,-4.031710699E-2,7.330383174E-3
3.286261693E0,-1.007927675E-2,-4.627304152E-2,7.330383174E-3
3.288498692E0,-1.007927675E-2,-4.382958263E-2,6.108652335E-3
3.290735081E0,-1.007927675E-2,-4.276056588E-2,6.108652335E-3
3.292972081E0,-8.704829961E-3,-4.276056588E-2,6.108652335E-3
3.295209874E0,-9.926560335E-3,-4.031710699E-2,7.330383174E-3
3.297446446E0,-9.926560335E-3,-3.787364438E-2,4.886921961E-3
3.299681798E0,-8.704829961E-3,-3.665191308E-2,4.886921961E-3
3.301918309E0,-4.734205548E-3,-3.069597855E-2,2.596177394E-3
3.304154881E0,-5.955935922E-3,-2.580905706E-2,2.596177394E-3
3.306392003E0,-4.734205548E-3,-2.703078650E-2,1.374446787E-3
3.308628636E0,-3.359758761E-3,-2.336559631E-2,2.596177394E-3
3.310865941E0,-2.138028387E-3,-1.863138936E-2,1.527163113E-4
3.313103550E0,-1.985311974E-3,-1.374446787E-2,1.374446787E-3
3.315340306E0,-1.832595794E-3,-6.414085161E-3,1.527163113E-4
3.317575536E0,6.108652451E-4,-5.345070735E-3,1.527163084E-3
3.319811864E0,4.428773187E-3,-2.901609987E-3,3.054326226E-4
3.322048375E0,3.207042580E-3,3.207042580E-3,1.527163084E-3
3.324282567E0,3.359758761E-3,9.162978269E-3,3.054326226E-4
3.326510472E0,3.359758761E-3,1.038470957E-2,3.054326226E-4
3.328759556E0,7.177666761E-3,1.282817032E-2,2.748893574E-3
3.330997288E0,9.773843922E-3,2.122756653E-2,-1.985311974E-3
3.333236608E0,8.704829961E-3,2.489275858E-2,1.679879380E-3
3.335469395E0,9.926560335E-3,2.733621933E-2,1.679879380E-3
3.337705663E0,1.374446787E-2,3.084869497E-2,4.581489484E-4
3.339942296E0,1.252273750E-2,3.329215571E-2,-7.635815418E-4
3.342179295E0,1.374446787E-2,3.329215571E-2,4.581489484E-4
3.344415929E0,1.374446787E-2,3.329215571E-2,-7.635815418E-4
3.346652989E0,1.252273750E-2,3.573561832E-2,1.679879380E-3
3.348890538E0,1.252273750E-2,3.573561832E-2,-7.635815418E-4
3.351127171E0,1.252273750E-2,3.573561832E-2,-7.635815418E-4
3.353362950E0,1.374446787E-2,3.573561832E-2,4.581489484E-4
3.355599278E0,1.252273750E-2,3.451388702E-2,-7.635815418E-4
3.357835851E0,1.130100712E-2,3.100141138E-2,-7.635815418E-4
3.360072850E0,1.130100712E-2,3.329215571E-2,4.123340361E-3
3.362309483E0,9.926560335E-3,2.977968007E-2,-7.635815418E-4
3.364546605E0,1.114829071E-2,2.733621933E-2,-7.635815418E-4
3.366784398E0,9.926560335E-3,2.489275858E-2,-7.635815418E-4
3.369020909E0,1.099557430E-2,2.000583708E-2,-7.635815418E-4
3.371256322E0,8.552113548E-3,1.878410578E-2,4.581489484E-4
3.373493077E0,9.621127509E-3,1.634064503E-2,1.679879380E-3
3.375729588E0,9.621127509E-3,1.282817032E-2,1.679879380E-3
3.377966466E0,7.177666761E-3,1.038470957E-2,1.527163084E-3
3.380203038E0,8.246680722E-3,7.941247895E-3,3.054326226E-4
3.382440648E0,9.468411095E-3,5.497787148E-3,1.527163084E-3
3.384679173E0,6.872233935E-3,1.832595794E-3,1.527163084E-3
3.386914525E0,4.428773187E-3,-4.581489484E-4,-9.162978968E-4
3.389149998E0,3.207042580E-3,-4.581489484E-4,3.054326226E-4
3.391386022E0,5.650503561E-3,-1.679879380E-3,1.527163084E-3
3.393622960E0,6.872233935E-3,-2.901609987E-3,3.970623948E-3
3.395860204E0,3.054326167E-3,-7.788531948E-3,2.748893574E-3
3.398096654E0,-6.108652451E-4,-6.414085161E-3,1.374446787E-3
3.400330967E0,4.428773187E-3,-4.123340361E-3,1.527163084E-3
3.402559483E0,1.832595794E-3,-6.566801574E-3,3.970623948E-3
3.404808079E0,1.832595794E-3,-5.345070735E-3,2.748893574E-3
3.407043614E0,3.054326167E-3,-6.566801574E-3,3.054326226E-4
3.409283178E0,6.108652451E-4,-5.345070735E-3,2.748893574E-3
3.411516393E0,1.832595794E-3,-7.788531948E-3,3.054326226E-4
3.413752415E0,1.985311974E-3,-2.901609987E-3,3.054326226E-4
3.415990636E0,6.108652451E-4,-4.123340361E-3,-9.162978968E-4
3.418227452E0,1.832595794E-3,-4.123340361E-3,3.054326226E-4
3.420465428E0,1.985311974E-3,-1.679879380E-3,-2.138028387E-3
3.422701817E0,7.635815418E-4,-2.901609987E-3,3.054326226E-4
3.424937413E0,3.207042580E-3,-4.581489484E-4,3.054326226E-4
3.427173741E0,7.635815418E-4,-4.581489484E-4,-9.162978968E-4
3.429410253E0,7.635815418E-4,7.635815418E-4,-2.138028387E-3
3.431644383E0,7.635815418E-4,-4.581489484E-4,-2.138028387E-3
3.433872227E0,1.985311974E-3,-1.679879380E-3,-9.162978968E-4
3.436121068E0,7.635815418E-4,7.635815418E-4,-3.359758761E-3
3.438358861E0,-4.581489484E-4,7.635815418E-4,-9.162978968E-4
3.440598302E0,-4.581489484E-4,7.635815418E-4,3.054326226E-4
3.442830663E0,-4.581489484E-4,-4.581489484E-4,-3.359758761E-3
3.445067052E0,7.635815418E-4,7.635815418E-4,-3.359758761E-3
3.447304112E0,7.635815418E-4,-4.581489484E-4,-3.359758761E-3
3.449541173E0,1.985311974E-3,7.635815418E-4,3.054326226E-4
3.451774632E0,-1.679879380E-3,-3.054326226E-4,-2.138028387E-3
3.454002904E0,-1.679879380E-3,9.162978968E-4,-3.359758761E-3
3.456252598E0,-4.123340361E-3,9.162978968E-4,-3.512475174E-3
3.458488927E0,-4.581489484E-4,1.985311974E-3,-4.581489135E-3
3.460727208E0,-1.679879380E-3,1.985311974E-3,-3.359758761E-3
3.462960851E0,7.635815418E-4,1.985311974E-3,-3.359758761E-3
3.465197911E0,-2.901609987E-3,3.359758761E-3,-3.359758761E-3
3.467434788E0,-2.901609987E-3,3.359758761E-3,-3.359758761E-3
3.469671361E0,-5.345070735E-3,3.359758761E-3,-4.734205548E-3
3.471908360E0,-1.679879380E-3,1.985311974E-3,-4.581489135E-3
3.474146153E0,-4.581489484E-4,7.635815418E-4,-2.138028387E-3
3.476382420E0,-1.679879380E-3,3.207042580E-3,-9.162978968E-4
3.478617833E0,2.138028387E-3,4.428773187E-3,-2.138028387E-3
3.480854588E0,-3.054326226E-4,6.872233935E-3,-4.581489135E-3
3.483091222E0,-1.527163084E-3,4.428773187E-3,-4.581489135E-3
3.485328343E0,-3.970623948E-3,5.803219974E-3,-4.581489135E-3
3.487561802E0,-2.901609987E-3,4.428773187E-3,-9.162978968E-4
3.489789769E0,-2.901609987E-3,2.138028387E-3,-2.138028387E-3
3.492039769E0,-1.527163084E-3,4.428773187E-3,-2.138028387E-3
3.494276341E0,-3.054326226E-4,6.872233935E-3,-2.138028387E-3
3.496514928E0,9.162978968E-4,6.872233935E-3,-2.138028387E-3
3.498748082E0,2.138028387E-3,5.650503561E-3,-9.162978968E-4
3.500984471E0,9.162978968E-4,5.650503561E-3,-9.162978968E-4
3.503221837E0,-2.748893574E-3,8.093964309E-3,-9.162978968E-4
3.505458714E0,-3.054326226E-4,4.428773187E-3,-9.162978968E-4
3.507695897E0,9.162978968E-4,6.872233935E-3,1.527163084E-3
3.509933568E0,2.138028387E-3,9.315694682E-3,3.054326226E-4
3.512169835E0,-3.054326226E-4,8.093964309E-3,-9.162978968E-4
3.514405370E0,-3.054326226E-4,8.093964309E-3,3.054326226E-4
3.516641637E0,-3.054326226E-4,8.093964309E-3,-9.162978968E-4
3.518878331E0,-3.054326226E-4,8.093964309E-3,-9.162978968E-4
3.521115575E0,-3.054326226E-4,8.093964309E-3,3.054326226E-4
3.523351964E0,-3.054326226E-4,8.093964309E-3,1.527163084E-3
3.525589085E0,-3.054326226E-4,9.315694682E-3,3.054326226E-4
3.527826817E0,-2.748893574E-3,8.093964309E-3,1.527163084E-3
3.530063390E0,9.162978968E-4,8.093964309E-3,3.054326226E-4
3.532298741E0,-2.748893574E-3,8.093964309E-3,3.054326226E-4
3.534535253E0,-1.527163084E-3,5.650503561E-3,3.054326226E-4
3.536771825E0,-2.901609987E-3,5.650503561E-3,1.527163084E-3
3.539009007E0,-3.970623948E-3,7.024950348E-3,3.054326226E-4
3.541245824E0,-5.345070735E-3,5.803219974E-3,3.054326226E-4
3.543482945E0,-5.345070735E-3,4.581489135E-3,1.527163113E-4
3.545720738E0,-4.123340361E-3,3.359758761E-3,-9.162978968E-4
3.547957188E0,-2.901609987E-3,3.359758761E-3,3.970623948E-3
3.550192540E0,-2.901609987E-3,2.138028387E-3,3.054326226E-4
3.552429112E0,-4.276056774E-3,-2.748893574E-3,-1.069014193E-3
3.554665868E0,-5.497787148E-3,-2.748893574E-3,1.527163113E-4
3.556902684E0,-6.719517522E-3,-5.192354787E-3,-1.069014193E-3
3.559139073E0,-1.832595794E-3,-3.970623948E-3,-2.290744567E-3
3.561376317E0,-5.497787148E-3,-5.192354787E-3,1.374446787E-3
3.563613988E0,-3.054326167E-3,-7.635815535E-3,-1.069014193E-3
3.565849400E0,-4.276056774E-3,-7.635815535E-3,1.527163113E-4
3.568077610E0,-4.428773187E-3,-1.374446787E-2,1.527163113E-4
3.570311253E0,-4.276056774E-3,-7.635815535E-3,-1.069014193E-3
3.572559483E0,-4.428773187E-3,-1.007927675E-2,-1.069014193E-3
3.574797948E0,-1.985311974E-3,-1.007927675E-2,1.374446787E-3
3.577035741E0,-3.207042580E-3,-1.374446787E-2,1.374446787E-3
3.579269993E0,-3.207042580E-3,-1.252273750E-2,1.527163113E-4
3.581508030E0,-1.832595794E-3,-1.007927675E-2,-1.069014193E-3
3.583744542E0,-3.207042580E-3,-1.252273750E-2,1.374446787E-3
3.585979710E0,-7.635815418E-4,-1.496619824E-2,1.527163113E-4
3.588216405E0,-4.428773187E-3,-1.481348183E-2,-2.290744567E-3
3.590452977E0,-5.650503561E-3,-1.481348183E-2,1.527163113E-4
3.592690160E0,-1.985311974E-3,-1.618792862E-2,1.527163113E-4
3.594926671E0,-4.428773187E-3,-1.481348183E-2,-1.069014193E-3
3.597163731E0,-6.872233935E-3,-1.603521220E-2,-2.290744567E-3
3.599401341E0,-4.428773187E-3,-1.481348183E-2,1.527163113E-4
3.601635106E0,-4.428773187E-3,-1.252273750E-2,-1.069014193E-3
3.603861424E0,-4.428773187E-3,-1.130100712E-2,1.527163113E-4
3.606109715E0,-4.428773187E-3,-1.374446787E-2,1.527163113E-4
3.608343236E0,-4.581489135E-3,-1.847867295E-2,-1.069014193E-3
3.610574437E0,-3.207042580E-3,-1.496619824E-2,-1.069014193E-3
3.612820286E0,-6.872233935E-3,-9.926560335E-3,-1.069014193E-3
3.615057408E0,-4.428773187E-3,-1.481348183E-2,-2.290744567E-3
3.617298131E0,-4.428773187E-3,-1.359175146E-2,-1.069014193E-3
3.619531407E0,-5.650503561E-3,-1.481348183E-2,1.527163113E-4
3.621766942E0,-6.872233935E-3,-1.237002108E-2,-1.069014193E-3
3.624003331E0,-4.428773187E-3,-1.359175146E-2,-2.290744567E-3
3.626240453E0,-3.207042580E-3,-1.374446787E-2,-2.290744567E-3
3.628477452E0,-3.054326167E-3,-1.007927675E-2,-2.290744567E-3
3.630711033E0,-3.207042580E-3,-1.252273750E-2,-1.069014193E-3
3.632936680E0,-1.832595794E-3,-8.857546374E-3,-1.069014193E-3
3.635176915E0,-1.832595794E-3,-8.857546374E-3,1.527163113E-4
3.637425206E0,6.108652451E-4,-6.414085161E-3,-9.162978968E-4
3.639660497E0,1.832595794E-3,-7.788531948E-3,-9.162978968E-4
3.641885594E0,4.276056774E-3,-7.788531948E-3,-9.162978968E-4
3.644121983E0,1.832595794E-3,-6.566801574E-3,-9.162978968E-4
3.646371007E0,1.832595794E-3,-5.345070735E-3,3.054326226E-4
3.648610265E0,1.985311974E-3,-2.901609987E-3,1.527163084E-3
3.650847630E0,1.985311974E-3,7.635815418E-4,1.527163084E-3
3.653079808E0,1.985311974E-3,-1.679879380E-3,-9.162978968E-4
3.655310582E0,5.803219974E-3,1.985311974E-3,-2.138028387E-3
3.657559483E0,5.803219974E-3,4.276056774E-3,-3.359758761E-3
3.659790868E0,5.803219974E-3,6.719517522E-3,-9.162978968E-4
3.662029576E0,5.803219974E-3,3.054326167E-3,-9.162978968E-4
3.664263035E0,4.581489135E-3,9.162978269E-3,-2.138028387E-3
3.666501134E0,5.955935922E-3,1.160643995E-2,-9.162978968E-4
3.668738255E0,3.359758761E-3,8.093964309E-3,-9.162978968E-4
3.670975804E0,4.734205548E-3,1.282817032E-2,3.054326226E-4
3.673209385E0,4.734205548E-3,1.282817032E-2,-9.162978968E-4
3.675436192E0,1.069014193E-3,1.298088674E-2,-3.359758761E-3
3.677684483E0,3.512475174E-3,1.527163107E-2,-4.581489135E-3
3.679921056E0,1.069014193E-3,1.649336144E-2,-3.359758761E-3
3.682161046E0,3.512475174E-3,1.649336144E-2,-2.138028387E-3
3.684394688E0,4.886921961E-3,1.771509275E-2,-9.162978968E-4
3.686631810E0,6.108652335E-3,1.893682219E-2,-7.635815418E-4
3.688869603E0,3.665191587E-3,1.893682219E-2,1.527163084E-3
3.691106053E0,2.443460980E-3,2.015855350E-2,3.054326226E-4
3.693338658E0,1.221730490E-3,1.893682219E-2,-2.138028387E-3
3.695567723E0,-1.527163113E-4,1.786780916E-2,3.054326226E-4
3.697814549E0,3.665191587E-3,2.015855350E-2,3.054326226E-4
3.700051732E0,6.108652335E-3,1.893682219E-2,-3.359758761E-3
3.702290806E0,2.290744567E-3,1.282817032E-2,-9.162978968E-4
3.704525364E0,-1.374446787E-3,1.420261711E-2,-4.581489135E-3
3.706763157E0,1.069014193E-3,1.298088674E-2,-2.138028387E-3
3.708999730E0,3.512475174E-3,1.282817032E-2,-9.162978968E-4
3.711235326E0,2.138028387E-3,9.315694682E-3,-2.138028387E-3
3.713471837E0,2.138028387E-3,8.093964309E-3,-2.138028387E-3
3.715708409E0,9.162978968E-4,4.428773187E-3,-3.359758761E-3
3.717945409E0,-1.527163084E-3,5.650503561E-3,-9.162978968E-4
3.720181798E0,7.635815418E-4,1.985311974E-3,-9.162978968E-4
3.722415745E0,7.635815418E-4,-2.901609987E-3,-9.162978968E-4
3.724643223E0,3.207042580E-3,-2.901609987E-3,-9.162978968E-4
3.726893285E0,1.985311974E-3,-2.901609987E-3,-2.138028387E-3
3.729128819E0,6.108652451E-4,-6.414085161E-3,-2.138028387E-3
3.731368139E0,1.679879380E-3,-1.130100712E-2,1.527163113E-4
3.733596532E0,4.276056774E-3,-9.010262787E-3,3.054326226E-4
3.735827061E0,4.581489484E-4,-1.130100712E-2,-1.069014193E-3
3.738075597E0,4.123340361E-3,-1.267545391E-2,-9.162978968E-4
3.740313267E0,4.581489484E-4,-1.496619824E-2,-2.290744567E-3
3.742550206E0,-7.635815418E-4,-1.496619824E-2,1.527163113E-4
3.744774876E0,1.679879380E-3,-1.252273750E-2,-1.069014193E-3
3.747022618E0,1.679879380E-3,-1.374446787E-2,-2.290744567E-3
3.749258946E0,4.123340361E-3,-1.511891466E-2,-2.290744567E-3
3.751498510E0,1.679879380E-3,-1.496619824E-2,-3.512475174E-3
3.753732518E0,4.123340361E-3,-1.740965992E-2,-3.512475174E-3
3.755969151E0,4.581489484E-4,-1.374446787E-2,-2.290744567E-3
3.758206273E0,-6.108652451E-4,-1.007927675E-2,-2.290744567E-3
3.760444066E0,6.108652451E-4,-1.130100712E-2,-1.069014193E-3
3.762680638E0,4.581489484E-4,-1.252273750E-2,-2.290744567E-3
3.764916173E0,6.108652451E-4,-1.007927675E-2,-2.290744567E-3
3.767152440E0,6.108652451E-4,-1.007927675E-2,1.527163113E-4
3.769389012E0,3.054326167E-3,-9.010262787E-3,3.054326226E-4
3.771623082E0,1.832595794E-3,-6.566801574E-3,3.054326226E-4
3.773847813E0,6.108652451E-4,-5.345070735E-3,-2.290744567E-3
3.776088109E0,7.635815418E-4,-2.901609987E-3,3.054326226E-4
3.778337620E0,3.207042580E-3,-4.581489484E-4,-2.138028387E-3
3.780577123E0,7.635815418E-4,-4.581489484E-4,-2.138028387E-3
3.782812352E0,3.207042580E-3,1.985311974E-3,3.054326226E-4
3.785045812E0,9.162978968E-4,4.428773187E-3,-9.162978968E-4
3.787282872E0,-3.054326226E-4,6.872233935E-3,-9.162978968E-4
3.789519933E0,9.162978968E-4,5.650503561E-3,-2.138028387E-3
3.791753392E0,9.162978968E-4,8.093964309E-3,1.527163084E-3
3.793981663E0,2.138028387E-3,9.315694682E-3,3.054326226E-4
3.796231358E0,9.162978968E-4,1.053742506E-2,-9.162978968E-4
3.798467686E0,2.290744567E-3,1.404990070E-2,3.054326226E-4
3.800706029E0,2.290744567E-3,1.649336144E-2,-9.162978968E-4
3.802939794E0,2.290744567E-3,1.527163107E-2,-9.162978968E-4
3.805176427E0,3.512475174E-3,1.771509275E-2,-9.162978968E-4
3.807413548E0,3.665191587E-3,1.771509275E-2,-3.359758761E-3
3.809650059E0,4.886921961E-3,1.771509275E-2,-9.162978968E-4
3.811887181E0,6.108652335E-3,1.771509275E-2,-2.138028387E-3
3.814124974E0,6.108652335E-3,1.893682219E-2,-1.985311974E-3
3.816361485E0,3.512475174E-3,1.649336144E-2,-2.138028387E-3
3.818593785E0,1.069014193E-3,1.649336144E-2,-2.138028387E-3
3.820820347E0,4.886921961E-3,1.893682219E-2,-2.138028387E-3
3.823063695E0,4.886921961E-3,1.771509275E-2,-2.138028387E-3
3.825294835E0,3.512475174E-3,1.527163107E-2,-2.138028387E-3
3.827546666E0,3.512475174E-3,1.404990070E-2,-9.162978968E-4
3.829781530E0,3.512475174E-3,1.282817032E-2,-3.359758761E-3
3.832021581E0,2.138028387E-3,9.315694682E-3,3.054326226E-4
3.834255040E0,3.359758761E-3,6.872233935E-3,-9.162978968E-4
3.836490331E0,2.138028387E-3,9.315694682E-3,-9.162978968E-4
3.838726659E0,9.162978968E-4,6.872233935E-3,-9.162978968E-4
3.840963475E0,2.138028387E-3,6.872233935E-3,1.527163084E-3
3.843200597E0,-4.581489484E-4,4.428773187E-3,1.527163084E-3
3.845437291E0,-4.581489484E-4,1.985311974E-3,1.527163084E-3
3.847674534E0,7.635815418E-4,-4.581489484E-4,3.054326226E-4
3.849912144E0,-1.679879380E-3,9.162978968E-4,1.527163084E-3
3.852148900E0,7.635815418E-4,7.635815418E-4,3.970623948E-3
3.854384190E0,1.832595794E-3,-4.123340361E-3,1.527163084E-3
3.856620702E0,6.108652451E-4,-4.123340361E-3,2.748893574E-3
3.858856969E0,-1.832595794E-3,-3.970623948E-3,5.192354787E-3
3.861094090E0,6.108652451E-4,-4.123340361E-3,6.414085161E-3
3.863330724E0,-1.832595794E-3,-3.970623948E-3,2.748893574E-3
3.865568150E0,-6.108652451E-4,-3.970623948E-3,5.192354787E-3
3.867805943E0,-4.276056774E-3,-6.414085161E-3,3.817907767E-3
3.870042454E0,-3.054326167E-3,-7.635815535E-3,3.817907767E-3
3.872277745E0,-3.207042580E-3,-1.007927675E-2,5.039638374E-3
3.874514256E0,-4.428773187E-3,-1.130100712E-2,3.817907767E-3
3.876750768E0,-1.985311974E-3,-1.252273750E-2,3.817907767E-3
3.878987706E0,-7.635815418E-4,-1.252273750E-2,5.039638374E-3
3.881221837E0,-1.985311974E-3,-8.857546374E-3,5.039638374E-3
3.883450902E0,-4.428773187E-3,-1.007927675E-2,3.817907767E-3
3.885699498E0,-3.207042580E-3,-1.007927675E-2,5.039638374E-3
3.887935948E0,-1.985311974E-3,-8.857546374E-3,3.817907767E-3
3.890173985E0,-1.985311974E-3,-1.007927675E-2,5.039638374E-3
3.892407811E0,-3.207042580E-3,-1.130100712E-2,5.039638374E-3
3.894644383E0,-7.635815418E-4,-1.252273750E-2,5.039638374E-3
3.896881505E0,-3.207042580E-3,-7.635815535E-3,5.039638374E-3
3.899116673E0,-1.832595794E-3,-6.414085161E-3,3.817907767E-3
3.901345250E0,-1.832595794E-3,-7.635815535E-3,5.039638374E-3
3.903575657E0,-1.832595794E-3,-7.635815535E-3,1.374446787E-3
3.905829503E0,6.108652451E-4,-5.345070735E-3,2.748893574E-3
3.908066319E0,-1.832595794E-3,-6.414085161E-3,1.374446787E-3
3.910305943E0,-1.832595794E-3,-3.970623948E-3,2.596177394E-3
3.912537999E0,-6.108652451E-4,-3.970623948E-3,3.054326226E-4
3.914775304E0,-3.054326167E-3,-1.527163084E-3,2.596177394E-3
3.917011571E0,-2.901609987E-3,9.162978968E-4,2.748893574E-3
3.919248753E0,-4.123340361E-3,2.138028387E-3,1.527163084E-3
3.921486485E0,-6.566801574E-3,4.581489135E-3,-1.069014193E-3
3.923723119E0,-6.566801574E-3,5.803219974E-3,-1.069014193E-3
3.925958714E0,-5.192354787E-3,9.468411095E-3,-2.138028387E-3
3.928195165E0,-7.635815535E-3,9.468411095E-3,-1.069014193E-3
3.930431554E0,-6.414085161E-3,7.024950348E-3,-1.069014193E-3
3.932668858E0,-6.414085161E-3,7.024950348E-3,1.527163113E-4
3.934905370E0,-7.635815535E-3,1.191187184E-2,-2.138028387E-3
3.937142369E0,-7.635815535E-3,1.069014147E-2,-3.512475174E-3
3.939380345E0,-7.635815535E-3,1.191187184E-2,-2.138028387E-3
3.941613804E0,-1.007927675E-2,1.069014147E-2,-1.069014193E-3
3.943841466E0,-8.857546374E-3,1.191187184E-2,-1.069014193E-3
3.946094335E0,-6.414085161E-3,9.468411095E-3,-3.359758761E-3
3.948325292E0,-6.566801574E-3,5.803219974E-3,-2.290744567E-3
3.950565465E0,-7.635815535E-3,9.468411095E-3,-2.290744567E-3
3.952797581E0,-7.788531948E-3,4.581489135E-3,-2.290744567E-3
3.955036046E0,-7.788531948E-3,4.581489135E-3,-1.069014193E-3
3.957273594E0,-7.788531948E-3,2.138028387E-3,-1.069014193E-3
3.959510228E0,-5.497787148E-3,-2.748893574E-3,-1.069014193E-3
3.961743016E0,-3.054326167E-3,-2.748893574E-3,1.527163113E-4
3.963970433E0,6.108652451E-4,-5.345070735E-3,-2.138028387E-3
3.966219151E0,-1.832595794E-3,-8.857546374E-3,-2.290744567E-3
3.968455907E0,-1.832595794E-3,-7.635815535E-3,-2.290744567E-3
3.970695592E0,-1.985311974E-3,-1.130100712E-2,-3.512475174E-3
3.972929905E0,-7.635815418E-4,-1.252273750E-2,-1.069014193E-3
3.975167698E0,4.581489484E-4,-1.252273750E-2,-1.069014193E-3
3.977403966E0,4.581489484E-4,-1.496619824E-2,-1.069014193E-3
3.979639256E0,1.679879380E-3,-1.496619824E-2,-1.069014193E-3
3.981875829E0,1.679879380E-3,-1.496619824E-2,1.527163113E-4
3.984112645E0,4.581489484E-4,-1.740965992E-2,2.596177394E-3
3.986346592E0,-2.138028387E-3,-1.985312067E-2,1.374446787E-3
3.988574315E0,-2.138028387E-3,-2.336559631E-2,1.374446787E-3
3.990822911E0,-2.138028387E-3,-1.985312067E-2,1.374446787E-3
3.993061009E0,-9.162978968E-4,-1.863138936E-2,1.374446787E-3
3.995300511E0,3.054326226E-4,-1.740965992E-2,2.596177394E-3
3.997533177E0,-3.359758761E-3,-1.847867295E-2,3.817907767E-3
3.999769444E0,-5.803219974E-3,-1.603521220E-2,2.596177394E-3
4.002006200E0,-4.428773187E-3,-1.359175146E-2,1.374446787E-3
4.004243077E0,-7.024950348E-3,-1.481348183E-2,2.596177394E-3
4.006480015E0,-5.650503561E-3,-1.359175146E-2,1.374446787E-3
4.008717259E0,-8.246680722E-3,-1.481348183E-2,2.596177394E-3
4.010954869E0,-9.468411095E-3,-1.481348183E-2,3.817907767E-3
4.013191380E0,-1.053742506E-2,-1.237002108E-2,5.039638374E-3
4.015426854E0,-7.941247895E-3,-6.261368748E-3,3.817907767E-3
4.017663182E0,-9.315694682E-3,-7.483099122E-3,5.039638374E-3
4.019899754E0,-8.093964309E-3,-9.926560335E-3,2.596177394E-3
4.022136815E0,-8.093964309E-3,-7.483099122E-3,3.817907767E-3
4.024373448E0,-6.719517522E-3,-6.414085161E-3,2.596177394E-3
4.026610570E0,-6.872233935E-3,-7.483099122E-3,3.817907767E-3
4.028848363E0,-5.497787148E-3,-5.192354787E-3,1.374446787E-3
4.031084874E0,-5.497787148E-3,-3.970623948E-3,1.374446787E-3
4.033320286E0,-4.276056774E-3,-3.970623948E-3,1.374446787E-3
4.035556981E0,-5.497787148E-3,-6.414085161E-3,1.374446787E-3
4.037793248E0,-5.497787148E-3,-5.192354787E-3,2.596177394E-3
4.040030186E0,-3.054326167E-3,-3.970623948E-3,1.374446787E-3
4.042266942E0,-1.832595794E-3,-5.192354787E-3,1.374446787E-3
4.044504185E0,6.108652451E-4,-5.345070735E-3,1.527163084E-3
4.046742283E0,5.650503561E-3,-1.679879380E-3,1.527163084E-3
4.048978734E0,6.872233935E-3,-1.679879380E-3,-9.162978968E-4
4.051214024E0,9.315694682E-3,-1.832595794E-3,3.054326226E-4
4.053450292E0,9.315694682E-3,-6.108652451E-4,3.054326226E-4
4.055684117E0,1.053742506E-2,-6.108652451E-4,2.748893574E-3
4.057912267E0,9.468411095E-3,3.054326167E-3,2.748893574E-3
4.060160863E0,1.191187184E-2,4.276056774E-3,1.527163084E-3
4.062395970E0,1.191187184E-2,3.054326167E-3,1.527163084E-3
4.064627172E0,1.572977938E-2,7.788531948E-3,2.901609987E-3
4.066854283E0,1.557706390E-2,6.566801574E-3,1.679879380E-3
4.069095311E0,1.695151068E-2,9.010262787E-3,2.901609987E-3
4.071345738E0,1.328631863E-2,1.145372353E-2,2.901609987E-3
4.073584142E0,1.328631863E-2,1.023199316E-2,4.123340361E-3
4.075818150E0,1.206458826E-2,1.023199316E-2,4.123340361E-3
4.078043675E0,1.206458826E-2,1.267545391E-2,2.901609987E-3
4.080291539E0,1.328631863E-2,1.389718428E-2,4.123340361E-3
4.082526280E0,9.621127509E-3,1.389718428E-2,4.123340361E-3
4.084756505E0,9.621127509E-3,1.511891466E-2,4.123340361E-3
4.087001134E0,9.621127509E-3,1.634064503E-2,2.901609987E-3
4.089237645E0,8.399397135E-3,1.404990070E-2,1.679879380E-3
4.091477269E0,8.399397135E-3,1.160643995E-2,1.527163084E-3
4.093711583E0,3.512475174E-3,1.527163107E-2,3.970623948E-3
4.095947911E0,4.734205548E-3,1.282817032E-2,2.748893574E-3
4.098185032E0,3.359758761E-3,1.038470957E-2,3.054326226E-4
4.100422764E0,2.138028387E-3,9.315694682E-3,3.054326226E-4
4.102656407E0,4.734205548E-3,1.160643995E-2,1.527163084E-3
4.104882970E0,-3.054326226E-4,6.872233935E-3,3.054326226E-4
4.107131261E0,2.138028387E-3,5.650503561E-3,-9.162978968E-4
4.109368016E0,1.985311974E-3,1.985311974E-3,1.527163084E-3
4.111607151E0,6.108652451E-4,-2.901609987E-3,1.527163084E-3
4.113838780E0,7.635815418E-4,-1.679879380E-3,2.748893574E-3
4.116078526E0,-1.679879380E-3,-3.054326226E-4,1.527163084E-3
4.118316380E0,-4.581489484E-4,-1.679879380E-3,3.054326226E-4
4.120553624E0,-6.108652451E-4,-2.748893574E-3,2.748893574E-3
4.122788487E0,-6.108652451E-4,-5.192354787E-3,1.374446787E-3
4.125024815E0,6.108652451E-4,-8.857546374E-3,1.527163113E-4
4.127261632E0,-6.108652451E-4,-6.414085161E-3,2.596177394E-3
4.129495762E0,6.108652451E-4,-4.123340361E-3,2.748893574E-3
4.131721837E0,1.832595794E-3,-6.566801574E-3,1.527163084E-3
4.133962376E0,4.276056774E-3,-7.788531948E-3,2.748893574E-3
4.136198460E0,4.276056774E-3,-7.788531948E-3,1.527163084E-3
4.138446751E0,4.276056774E-3,-1.023199316E-2,2.748893574E-3
4.140669407E0,6.719517522E-3,-7.788531948E-3,2.748893574E-3
4.142906835E0,3.054326167E-3,-7.788531948E-3,2.748893574E-3
4.145143407E0,5.497787148E-3,-6.566801574E-3,1.527163084E-3
4.147395116E0,7.941247895E-3,-6.566801574E-3,3.970623948E-3
4.149631810E0,9.162978269E-3,-6.719517522E-3,3.970623948E-3
4.151866124E0,8.093964309E-3,-4.276056774E-3,1.527163084E-3
4.154091344E0,6.872233935E-3,-1.679879380E-3,1.527163084E-3
4.156338597E0,9.315694682E-3,-1.832595794E-3,1.527163084E-3
4.158575841E0,5.650503561E-3,-4.581489484E-4,1.527163084E-3
4.160815342E0,5.650503561E-3,1.985311974E-3,3.054326226E-4
4.163049107E0,5.803219974E-3,5.497787148E-3,2.748893574E-3
4.165285802E0,1.985311974E-3,4.428773187E-3,2.748893574E-3
4.167522557E0,3.359758761E-3,9.162978269E-3,1.527163084E-3
4.169759495E0,5.955935922E-3,1.282817032E-2,1.527163084E-3
4.171994358E0,2.138028387E-3,1.053742506E-2,2.748893574E-3
4.174222081E0,3.512475174E-3,1.282817032E-2,1.527163084E-3
4.176469395E0,5.955935922E-3,1.160643995E-2,3.054326226E-4
4.178705663E0,3.512475174E-3,1.404990070E-2,1.527163084E-3
4.180945225E0,4.886921961E-3,1.893682219E-2,1.527163084E-3
4.183179600E0,6.108652335E-3,1.893682219E-2,1.679879380E-3
4.185416295E0,3.665191587E-3,1.893682219E-2,1.527163084E-3
4.187653599E0,1.221730490E-3,2.260201424E-2,3.054326226E-4
4.189890965E0,-0.000000000E0,2.504547499E-2,-2.138028387E-3
4.192124791E0,2.443460980E-3,2.504547499E-2,-2.138028387E-3
4.194353551E0,-1.221730490E-3,2.260201424E-2,-2.138028387E-3
4.196599156E0,2.596177394E-3,2.504547499E-2,-5.803219974E-3
4.198835912E0,2.596177394E-3,2.626720630E-2,-4.581489135E-3
4.201075413E0,1.374446787E-3,2.504547499E-2,-5.803219974E-3
4.203309544E0,1.221730490E-3,2.260201424E-2,-5.803219974E-3
4.205546849E0,-0.000000000E0,2.138028294E-2,-5.803219974E-3
4.207784398E0,-0.000000000E0,2.138028294E-2,-5.803219974E-3
4.210021214E0,-0.000000000E0,2.138028294E-2,-4.581489135E-3
4.212256444E0,-1.221730490E-3,2.260201424E-2,-5.803219974E-3
4.214492833E0,-0.000000000E0,2.015855350E-2,-4.581489135E-3
4.216729588E0,-0.000000000E0,2.015855350E-2,-5.803219974E-3
4.218966710E0,-0.000000000E0,1.908953860E-2,-3.359758761E-3
4.221203404E0,1.069014193E-3,1.542434748E-2,-4.581489135E-3
4.223440648E0,2.290744567E-3,1.282817032E-2,-4.581489135E-3
4.225678258E0,-1.527163113E-4,1.298088674E-2,-3.359758761E-3
4.227914952E0,1.069014193E-3,1.420261711E-2,-3.359758761E-3
4.230149998E0,-3.970623948E-3,1.053742506E-2,-2.138028387E-3
4.232384312E0,-2.748893574E-3,6.872233935E-3,-3.359758761E-3
4.234613988E0,-2.901609987E-3,3.359758761E-3,-5.803219974E-3
4.236860020E0,-7.788531948E-3,-3.054326226E-4,-2.290744567E-3
4.239096898E0,-5.497787148E-3,-1.527163084E-3,-1.069014193E-3
4.241336460E0,-5.497787148E-3,-6.414085161E-3,-2.290744567E-3
4.243571812E0,-4.276056774E-3,-6.414085161E-3,1.527163113E-4
4.245808324E0,-4.428773187E-3,-1.007927675E-2,1.527163113E-4
4.248043858E0,-4.428773187E-3,-1.359175146E-2,1.374446787E-3
4.250280370E0,-5.650503561E-3,-1.359175146E-2,1.527163113E-4
4.252516759E0,-4.428773187E-3,-1.603521220E-2,1.527163113E-4
4.254754002E0,-9.468411095E-3,-1.847867295E-2,1.527163113E-4
4.256990392E0,-9.468411095E-3,-2.092213556E-2,1.527163113E-4
4.259227818E0,-7.024950348E-3,-2.214386500E-2,1.527163113E-4
4.261465550E0,-8.399397135E-3,-2.336559631E-2,1.527163113E-4
4.263702122E0,-1.328631863E-2,-2.443460934E-2,1.221730490E-3
4.265937413E0,-1.084285788E-2,-2.565634064E-2,0.000000000E0
4.268173924E0,-8.552113548E-3,-2.932153270E-2,2.443460980E-3
4.270410497E0,-8.552113548E-3,-3.054326214E-2,2.443460980E-3
4.272647069E0,-9.621127509E-3,-2.687807009E-2,1.221730490E-3
4.274881993E0,-5.955935922E-3,-2.825251780E-2,1.527163113E-4
4.277121251E0,-5.955935922E-3,-2.825251780E-2,1.374446787E-3
4.279358861E0,-4.734205548E-3,-2.825251780E-2,1.374446787E-3
4.281592930E0,-8.399397135E-3,-2.687807009E-2,-1.221730490E-3
4.283818028E0,-7.177666761E-3,-2.703078650E-2,1.527163113E-4
4.286067540E0,-7.177666761E-3,-2.458732575E-2,-1.069014193E-3
4.288304112E0,-9.621127509E-3,-2.321287990E-2,-1.221730490E-3
4.290544652E0,-9.468411095E-3,-1.970040426E-2,-1.069014193E-3
4.292777806E0,-8.246680722E-3,-1.847867295E-2,-2.290744567E-3
4.295015111E0,-8.093964309E-3,-1.481348183E-2,-2.290744567E-3
4.297252598E0,-7.024950348E-3,-1.603521220E-2,-1.069014193E-3
4.299489232E0,-6.872233935E-3,-1.237002108E-2,-2.290744567E-3
4.301721837E0,-4.276056774E-3,-7.635815535E-3,-2.290744567E-3
4.303949620E0,-6.719517522E-3,-7.483099122E-3,-2.290744567E-3
4.306197911E0,-6.719517522E-3,-3.970623948E-3,-3.512475174E-3
4.308434972E0,-5.345070735E-3,-1.527163084E-3,-2.290744567E-3
4.310674474E0,-1.679879380E-3,3.207042580E-3,-2.138028387E-3
4.312908665E0,-3.970623948E-3,7.024950348E-3,-3.359758761E-3
4.315146397E0,-3.970623948E-3,8.093964309E-3,-2.138028387E-3
4.317379734E0,-2.748893574E-3,8.093964309E-3,-3.359758761E-3
4.319607213E0,-2.596177394E-3,1.298088674E-2,-4.581489135E-3
4.321858312E0,-3.817907767E-3,1.298088674E-2,-2.138028387E-3
4.324091710E0,-1.374446787E-3,1.298088674E-2,-9.162978968E-4
4.326331517E0,-1.527163113E-4,1.420261711E-2,-2.138028387E-3
4.328564244E0,-1.374446787E-3,1.664607786E-2,-4.581489135E-3
4.330802159E0,-1.527163113E-4,1.664607786E-2,-3.359758761E-3
4.333040013E0,-1.374446787E-3,1.542434748E-2,3.054326226E-4
4.335276524E0,3.512475174E-3,1.282817032E-2,-9.162978968E-4
4.337511876E0,3.512475174E-3,1.404990070E-2,-3.359758761E-3
4.339748387E0,2.290744567E-3,1.404990070E-2,-2.138028387E-3
4.341984960E0,1.069014193E-3,1.649336144E-2,-2.138028387E-3
4.344222142E0,1.069014193E-3,1.175915636E-2,-3.359758761E-3
4.346458958E0,1.069014193E-3,1.175915636E-2,-9.162978968E-4
4.348696019E0,-1.527163113E-4,1.175915636E-2,-2.138028387E-3
4.350933568E0,3.359758761E-3,8.093964309E-3,-2.138028387E-3
4.353170079E0,5.803219974E-3,6.719517522E-3,-9.162978968E-4
4.355402684E0,3.359758761E-3,8.093964309E-3,-2.138028387E-3
4.357627354E0,5.803219974E-3,5.497787148E-3,-2.138028387E-3
4.359864171E0,4.428773187E-3,1.985311974E-3,-2.138028387E-3
4.362101231E0,3.359758761E-3,1.985311974E-3,-4.581489135E-3
4.364340672E0,7.635815418E-4,1.985311974E-3,-3.359758761E-3
4.366577305E0,3.207042580E-3,7.635815418E-4,-3.359758761E-3
4.368815282E0,6.108652451E-4,-4.123340361E-3,-2.138028387E-3
4.371051671E0,1.985311974E-3,-1.679879380E-3,-3.359758761E-3
4.373287633E0,3.207042580E-3,-4.581489484E-4,-9.162978968E-4
4.375524083E0,1.985311974E-3,-1.679879380E-3,-9.162978968E-4
4.377760716E0,4.428773187E-3,-1.679879380E-3,-9.162978968E-4
4.379997716E0,1.985311974E-3,1.985311974E-3,-3.359758761E-3
4.382234288E0,-4.581489484E-4,-2.748893574E-3,-9.162978968E-4
4.384473912E0,-4.581489484E-4,-1.679879380E-3,-2.138028387E-3
4.386722996E0,7.635815418E-4,7.635815418E-4,-2.138028387E-3
4.388961094E0,7.635815418E-4,1.985311974E-3,-9.162978968E-4
4.391182103E0,2.138028387E-3,4.428773187E-3,-2.138028387E-3
4.393415379E0,3.359758761E-3,8.093964309E-3,-3.359758761E-3
4.395650548E0,9.162978968E-4,6.872233935E-3,-2.138028387E-3
4.397890782E0,2.138028387E-3,8.093964309E-3,-2.138028387E-3
4.400127782E0,-3.054326226E-4,5.650503561E-3,-2.138028387E-3
4.402365147E0,9.162978968E-4,5.650503561E-3,-9.162978968E-4
4.404603734E0,9.162978968E-4,9.315694682E-3,-9.162978968E-4
4.406839146E0,-3.054326226E-4,1.053742506E-2,-9.162978968E-4
4.409075047E0,-1.527163084E-3,5.650503561E-3,-3.359758761E-3
4.411310887E0,9.162978968E-4,6.872233935E-3,-2.138028387E-3
4.413548863E0,9.162978968E-4,8.093964309E-3,-3.359758761E-3
4.415785130E0,2.138028387E-3,8.093964309E-3,-3.359758761E-3
4.418024205E0,9.162978968E-4,8.093964309E-3,-2.138028387E-3
4.420273168E0,-3.054326226E-4,5.650503561E-3,-2.138028387E-3
4.422507786E0,9.162978968E-4,8.093964309E-3,-3.359758761E-3
4.424735326E0,-3.054326226E-4,6.872233935E-3,-2.138028387E-3
4.426979893E0,2.138028387E-3,5.650503561E-3,-2.138028387E-3
4.429216710E0,4.581489135E-3,1.985311974E-3,-4.581489135E-3
4.431456334E0,4.581489135E-3,1.985311974E-3,-3.359758761E-3
4.433690404E0,4.428773187E-3,-4.581489484E-4,-3.359758761E-3
4.435926854E0,3.207042580E-3,-4.123340361E-3,-9.162978968E-4
4.438163731E0,1.832595794E-3,-4.123340361E-3,-9.162978968E-4
4.440398228E0,1.832595794E-3,-7.788531948E-3,-2.138028387E-3
4.442624669E0,4.276056774E-3,-9.010262787E-3,-9.162978968E-4
