"Time (s)","Acceleration x (m/s^2)","Acceleration y (m/s^2)","Acceleration z (m/s^2)"
1.165883600E-2,-6.431907177E0,-1.286142170E-1,1.173858929E1
1.389566300E-2,-4.920241356E0,1.448854089E0,1.007139015E1
1.613249000E-2,-2.462214470E0,3.994817495E0,7.996214867E0
1.836931700E-2,-9.954141974E-1,5.821737289E0,6.399604321E0
2.060614400E-2,-7.992027402E-1,6.547959328E0,5.942574978E0
2.284297100E-2,-1.386042476E0,6.327221394E0,6.986443996E0
2.507979800E-2,-3.092723370E0,4.555335999E0,8.781061172E0
2.731662500E-2,-4.929812908E0,1.788634896E0,1.007557774E1
2.955345200E-2,-5.806184292E0,-7.238288522E-1,1.024786091E1
3.181680600E-2,-5.440082073E0,-1.998006940E0,9.471389771E0
3.405223900E-2,-4.028914928E0,-1.439880967E0,8.353343964E0
3.629248500E-2,-2.732005358E0,1.026520967E0,7.593622684E0
3.853730800E-2,-2.338385820E0,4.057030678E0,7.587042332E0
4.076576300E-2,-2.876770973E0,6.314060688E0,8.336593628E0
4.301417600E-2,-3.302693367E0,7.414160728E0,9.670592308E0
4.524855100E-2,-3.535395384E0,6.659823418E0,1.104766178E1
4.748555000E-2,-3.996013880E0,4.099503517E0,1.186840057E1
4.970784100E-2,-4.210171223E0,1.232901812E0,1.194257736E1
5.194612200E-2,-3.411566973E0,-5.120640397E-1,1.135214901E1
5.418495200E-2,-2.760719061E0,-8.177471161E-1,1.027119160E1
5.643397500E-2,-2.618346214E0,6.592226624E-1,8.897112846E0
5.867402700E-2,-3.153740168E0,3.111865759E0,7.771887779E0
6.091059900E-2,-4.040280819E0,5.070391178E0,7.173682213E0
6.314460800E-2,-4.587639332E0,5.662016392E0,7.201199532E0
6.538063100E-2,-4.613960266E0,4.813162804E0,7.770093441E0
6.761879000E-2,-3.954139471E0,3.187239647E0,8.565707207E0
6.985670500E-2,-3.316452265E0,1.638485312E0,9.360722542E0
7.209285000E-2,-2.903092146E0,6.927221417E-1,9.862018585E0
7.432972700E-2,-2.299502611E0,1.136590719E0,1.007677460E1
7.656648300E-2,-2.328814745E0,2.471187592E0,1.014078236E1
7.880378800E-2,-3.392424345E0,3.363112211E0,9.981659889E0
8.104090900E-2,-3.922434568E0,4.018147469E0,9.708877563E0
8.327894600E-2,-3.911068678E0,4.320839405E0,9.417551994E0
8.551521300E-2,-3.667000771E0,4.288536549E0,9.415159225E0
8.775282300E-2,-3.243471146E0,3.865006685E0,9.591629982E0
8.998860200E-2,-3.574877024E0,2.760719061E0,9.523433685E0
9.222297700E-2,-3.676572084E0,1.874178290E0,9.271589279E0
9.445106500E-2,-3.002992392E0,2.050648928E0,9.224929810E0
9.670008900E-2,-3.013760090E0,2.394617319E0,9.376873970E0
9.893733200E-2,-3.722035646E0,2.702095032E0,9.269196510E0
1.011778110E-1,-3.766302824E0,3.040081263E0,8.767900467E0
1.034068760E-1,-3.089732170E0,3.061616659E0,8.082356453E0
1.056286770E-1,-2.598605394E0,2.706880569E0,7.715656757E0
1.078728790E-1,-2.868396044E0,2.050050735E0,7.943572998E0
1.101219640E-1,-3.501297712E0,1.377667665E0,8.563314438E0
1.123632970E-1,-3.974478483E0,1.194616675E0,9.317651749E0
1.145989540E-1,-3.713660717E0,2.137987137E0,1.014796066E1
1.168331450E-1,-3.456432343E0,3.756731510E0,1.091545868E1
1.190710600E-1,-4.049253941E0,4.644468784E0,1.114217854E1
1.213072050E-1,-3.925425529E0,5.093721390E0,1.084187984E1
1.235449980E-1,-2.785245657E0,5.428118229E0,1.028435135E1
1.257805330E-1,-1.932204247E0,5.173880577E0,9.796813965E0
1.280205240E-1,-1.923829436E0,3.803391695E0,9.260223389E0
1.302652740E-1,-2.446063042E0,1.886740685E0,8.763114929E0
1.324923860E-1,-3.375674486E0,3.337987661E-1,8.351549149E0
1.347267010E-1,-3.727419376E0,-1.818545163E-1,8.287541389E0
1.369527750E-1,-4.091128349E0,1.728814393E-1,8.307282448E0
1.392032010E-1,-4.906482697E0,1.027717352E0,8.112266541E0
1.414412390E-1,-4.948955536E0,2.296511650E0,7.962117195E0
1.436800090E-1,-3.916452408E0,3.632902861E0,8.255238533E0
1.459142000E-1,-2.706282377E0,4.520041943E0,8.903693199E0
1.481479650E-1,-2.369492531E0,4.740779877E0,9.707681656E0
1.503762970E-1,-2.335394859E0,4.262215137E0,1.060499001E1
1.526255650E-1,-2.160718918E0,3.901497364E0,1.147537899E1
1.548631140E-1,-2.177468538E0,3.938585997E0,1.183729362E1
1.570995640E-1,-3.125624657E0,3.611367464E0,1.121396351E1
1.593228300E-1,-3.934398651E0,2.794218540E0,9.629914284E0
1.615614780E-1,-3.804588079E0,2.188834429E0,7.834101200E0
1.638106840E-1,-3.092723370E0,1.706082582E0,6.563512325E0
1.660500650E-1,-3.049054146E0,7.758727670E-1,6.046064377E0
1.682871860E-1,-4.177269936E0,-6.101697683E-2,6.594619274E0
1.705215610E-1,-4.691128731E0,7.561319470E-1,8.257631302E0
1.727595980E-1,-4.503890514E0,3.028116941E0,1.054457092E1
1.749957430E-1,-4.582255363E0,5.097310543E0,1.210887909E1
1.772335360E-1,-3.954139471E0,6.526423931E0,1.226979637E1
1.794692540E-1,-2.251646042E0,7.079763889E0,1.122592735E1
1.817063750E-1,-7.178468108E-1,6.327221394E0,9.729815483E0
1.839431310E-1,-4.271188378E-1,4.210171223E0,8.548358917E0
1.861802520E-1,-1.945364833E0,1.394417405E0,8.133802414E0
1.884178620E-1,-3.951148272E0,-5.904290080E-1,8.543573380E0
1.906556550E-1,-5.436492920E0,-1.203589797E0,9.317651749E0
1.928919830E-1,-6.011368752E0,-3.828516304E-1,9.611370087E0
1.951294710E-1,-5.968297958E0,1.259821177E0,8.979664803E0
1.973652500E-1,-4.763511658E0,3.178864956E0,7.899903774E0
1.996023100E-1,-2.764906645E0,5.094319344E0,7.085746288E0
2.018391880E-1,-1.116251707E0,6.078966141E0,7.008577347E0
2.040764930E-1,-1.028913736E0,5.303092957E0,7.868797302E0
2.063139190E-1,-2.188236237E0,3.562314749E0,9.534799576E0
2.085518950E-1,-3.932005882E0,2.255235434E0,1.135693455E1
2.107880400E-1,-5.475974560E0,1.804188251E0,1.251625729E1
2.130234530E-1,-5.893522263E0,2.346760750E0,1.237328625E1
2.152511750E-1,-4.388436794E0,3.494119167E0,1.075454140E1
2.174983680E-1,-2.185843468E0,4.008575916E0,8.208578110E0
2.197352450E-1,-7.316055298E-1,3.667598963E0,6.019145489E0
2.219748090E-1,-4.295116663E-1,2.737389088E0,5.508875847E0
2.242100980E-1,-2.109273195E0,1.444666624E0,7.131209850E0
2.264476470E-1,-5.313262463E0,8.279166222E-1,1.013539886E1
2.286842800E-1,-7.546364307E0,1.336391449E0,1.292243862E1
2.309217070E-1,-7.596613884E0,2.681157827E0,1.386880016E1
2.331575470E-1,-5.704489231E0,4.567300320E0,1.248096275E1
2.353945470E-1,-2.665006161E0,6.189035892E0,9.778867722E0
2.376314240E-1,-2.141576260E-1,6.657430649E0,7.225726128E0
2.398687290E-1,6.532405615E-1,6.032305717E0,6.104688644E0
2.421060940E-1,-2.027917206E-1,4.182055950E0,6.757929325E0
2.443438270E-1,-2.656631231E0,1.502692580E0,8.666205406E0
2.465799100E-1,-5.474180222E0,-7.453642488E-1,1.064686394E1
2.488177040E-1,-7.036095142E0,-1.515853167E0,1.169731331E1
2.510535440E-1,-7.043871880E0,-5.718846321E-1,1.135214901E1
2.532909090E-1,-5.126024246E0,2.188236237E0,1.016351414E1
2.555276650E-1,-2.672184706E0,5.232504845E0,8.917451859E0
2.577647250E-1,-1.179063320E0,6.601199627E0,7.974679470E0
2.600020300E-1,-1.238883972E0,5.641677380E0,7.761718273E0
2.622398230E-1,-2.070389748E0,3.415754318E0,8.897112846E0
2.644762120E-1,-3.575475216E0,1.996810555E0,1.120319557E1
2.667140050E-1,-5.776273727E0,1.732403636E0,1.342493153E1
2.689497840E-1,-6.584449768E0,2.855833769E0,1.403988647E1
2.711869050E-1,-5.009972572E0,4.758726120E0,1.228235817E1
2.734239050E-1,-2.072184324E0,5.950351715E0,8.873783112E0
2.756609650E-1,2.267199457E-1,5.693123341E0,5.452644825E0
2.778983310E-1,4.247260094E-1,3.823730469E0,3.698107481E0
2.801360630E-1,-1.746162295E0,1.326820135E0,4.674378872E0
2.823723910E-1,-4.473381996E0,-3.116651475E-1,7.908876896E0
2.846099400E-1,-6.827919483E0,-1.187438250E0,1.137906837E1
2.868457190E-1,-7.995616913E0,-1.258624673E0,1.292303658E1
2.890827790E-1,-6.855436802E0,5.886343718E-1,1.203410339E1
2.913196570E-1,-4.037290096E0,3.817748547E0,9.941579819E0
2.935570220E-1,-1.741376638E0,6.446862221E0,7.960322857E0
2.957945710E-1,-7.674978375E-1,7.751548767E0,7.142575741E0
2.980315100E-1,-8.027920127E-1,7.691728592E0,7.809575081E0
3.002638710E-1,-1.700698733E0,5.764907837E0,9.411569595E0
3.024945830E-1,-3.557528973E0,2.606382132E0,1.068754196E1
3.047298740E-1,-4.982454777E0,-1.220339537E-1,1.082213879E1
3.069799960E-1,-5.237290382E0,-1.290927768E0,9.996614456E0
3.092140660E-1,-4.339982033E0,-5.617151260E-1,8.697312355E0
3.114394080E-1,-2.907877684E0,1.755733609E0,7.576274872E0
3.136904450E-1,-1.933400750E0,4.145565033E0,6.847062111E0
3.159279940E-1,-1.728216171E0,5.291727066E0,6.579664230E0
3.181656650E-1,-2.207977057E0,4.756931305E0,6.895516872E0
3.203904570E-1,-4.116851330E0,2.461616278E0,7.835896015E0
3.226380770E-1,-6.029314995E0,2.973082066E-1,9.424132347E0
3.248753210E-1,-6.885945320E0,-2.440679073E-1,1.133420277E1
3.271148230E-1,-6.512066841E0,1.054636598E0,1.250848007E1
3.293462680E-1,-4.977669239E0,3.247658491E0,1.209930801E1
3.315747220E-1,-2.587239504E0,5.324030399E0,1.046740246E1
3.338241120E-1,-1.262213886E-1,6.926024914E0,8.732605934E0
3.360606230E-1,6.927221417E-1,7.424330235E0,7.909475327E0
3.383004310E-1,-9.278169870E-1,6.002395630E0,8.431110382E0
3.405313270E-1,-3.344567776E0,3.324826956E0,9.863214493E0
3.427710730E-1,-5.374877930E0,6.484549642E-1,1.092682457E1
3.450081330E-1,-6.500102520E0,-1.036690354E0,1.078564835E1
3.472458650E-1,-6.172883987E0,-9.637092948E-1,9.586843491E0
3.494825590E-1,-4.619942188E0,9.044869542E-1,8.009973526E0
3.517202910E-1,-3.180659533E0,3.446262836E0,6.965506554E0
3.539566800E-1,-2.363510609E0,5.525027275E0,6.816553593E0
3.561944740E-1,-2.195414782E0,6.245865345E0,7.441678524E0
3.584302520E-1,-2.862414122E0,5.193023205E0,8.696115494E0
3.606673740E-1,-4.070191383E0,3.329612732E0,1.020479012E1
3.629043740E-1,-5.050052166E0,1.850848317E0,1.146640587E1
3.651414340E-1,-5.572884083E0,1.115055323E0,1.197787189E1
3.673787390E-1,-4.836492538E0,1.765903115E0,1.153520012E1
3.696162880E-1,-3.203989506E0,3.311068296E0,1.024128056E1
3.718528600E-1,-1.855035782E0,4.623531342E0,8.663214684E0
3.740904090E-1,-1.698305845E0,4.818546772E0,7.367500782E0
3.763262490E-1,-2.571686029E0,3.781856298E0,6.875177860E0
3.785633700E-1,-3.760919094E0,2.386242390E0,7.533802032E0
3.808005530E-1,-5.268397331E0,1.296909928E0,8.980861664E0
3.830371860E-1,-6.362515450E0,4.899304509E-1,1.016949654E1
3.852747960E-1,-6.035895348E0,6.466603279E-1,1.032443142E1
3.875124670E-1,-4.044468403E0,2.380858421E0,9.433703423E0
3.897490390E-1,-1.944766641E0,4.450051785E0,8.172087669E0
3.919869540E-1,-1.008574724E0,5.401797295E0,7.244270325E0
3.942224890E-1,-1.079761267E0,5.091926575E0,7.225128174E0
3.964595490E-1,-2.071586132E0,3.690928936E0,8.324629784E0
3.986962440E-1,-3.823132277E0,1.777269006E0,1.002831936E1
4.009334260E-1,-5.671587944E0,3.577269912E-1,1.161595726E1
4.031682290E-1,-6.248856544E0,3.002992272E-1,1.241635704E1
4.053947910E-1,-5.043471813E0,2.009970903E0,1.209571838E1
4.076309970E-1,-2.915654421E0,4.638486862E0,1.078983593E1
4.098679960E-1,-1.122832060E0,6.390032768E0,8.958129883E0
4.121095730E-1,-6.646065116E-1,6.272186279E0,7.193423271E0
4.143585970E-1,-1.383649707E0,4.780859470E0,6.297909260E0
4.165955360E-1,-3.409772158E0,2.781058073E0,6.840481758E0
4.188325960E-1,-5.705685616E0,8.572286963E-1,8.329415321E0
4.210669710E-1,-7.287939548E0,-5.312066078E-1,9.609575272E0
4.233047030E-1,-6.858428001E0,-5.288137794E-1,9.789635658E0
4.255409090E-1,-4.433900356E0,9.601200819E-1,8.846264839E0
4.277789460E-1,-1.881356835E0,2.977867842E0,7.788637638E0
4.300147860E-1,-4.875376225E-1,4.780261517E0,7.502695560E0
4.322520910E-1,-6.658028960E-1,5.826523304E0,8.352746010E0
4.344885410E-1,-2.349153519E0,5.590830326E0,9.944570541E0
4.367256630E-1,-4.443471432E0,4.423730850E0,1.153938675E1
4.389632110E-1,-5.764309883E0,2.570489645E0,1.218844032E1
4.412010650E-1,-5.806184292E0,8.967102766E-1,1.137547874E1
4.434373930E-1,-4.513461590E0,8.237292171E-1,9.532406807E0
4.456748810E-1,-2.610569477E0,2.120040894E0,7.559525013E0
4.479106600E-1,-1.266401410E0,3.324826956E0,6.396613121E0
4.501477820E-1,-1.031306505E0,4.047459602E0,6.488138676E0
4.523848420E-1,-2.065006018E0,4.095914364E0,7.589435101E0
4.546219030E-1,-4.147359848E0,3.072384357E0,9.169296265E0
4.568592680E-1,-5.714658737E0,1.878963947E0,1.068814087E1
4.590969390E-1,-5.689534187E0,1.472184181E0,1.161416245E1
4.613330840E-1,-4.862215519E0,1.952543259E0,1.152981567E1
4.635708770E-1,-3.441477060E0,3.260818958E0,1.049192905E1
4.658067170E-1,-1.610369682E0,4.521836758E0,9.052047729E0
4.680412150E-1,-6.269195080E-1,4.967499733E0,7.868198872E0
4.702660680E-1,-1.030110121E0,4.683950424E0,7.440482140E0
4.725047150E-1,-2.800798893E0,3.770490170E0,7.965108395E0
4.747552030E-1,-4.741377831E0,2.303091764E0,9.003593445E0
4.769958650E-1,-6.013761520E0,8.506484628E-1,9.699904442E0
4.792326810E-1,-5.965306759E0,1.142572835E-1,9.491728783E0
4.814671790E-1,-4.405186653E0,8.027920127E-1,8.565707207E0
4.837029580E-1,-2.730808735E0,2.479562521E0,7.695915699E0
4.859400790E-1,-1.920240164E0,4.089931965E0,7.485945702E0
4.881743930E-1,-1.820937991E0,5.036891460E0,8.148159027E0
4.904033970E-1,-2.480758905E0,5.169693470E0,9.439086914E0
4.926515050E-1,-3.634099483E0,4.640281200E0,1.073121166E1
4.948892370E-1,-4.782055855E0,3.392424345E0,1.128514957E1
4.971282510E-1,-4.801796913E0,2.065604210E0,1.075813103E1
4.993631750E-1,-3.764508247E0,1.836491346E0,9.390034676E0
5.015991980E-1,-2.575873613E0,2.361716032E0,7.883752346E0
5.038361970E-1,-2.383251429E0,2.521436930E0,6.816553593E0
5.060728310E-1,-2.810968399E0,2.710469961E0,6.736393929E0
5.083100740E-1,-3.525824070E0,3.213560820E0,7.753942013E0
5.105475010E-1,-4.405784607E0,3.397209883E0,9.157332420E0
5.127855380E-1,-4.848456860E0,3.102892876E0,1.000738239E1
5.150216220E-1,-4.441677094E0,2.619542599E0,9.801599503E0
5.172594150E-1,-3.748954773E0,1.935195327E0,8.793622971E0
5.194950720E-1,-3.479762316E0,1.499701619E0,7.919644833E0
5.217290800E-1,-3.415156126E0,2.053041935E0,8.029116631E0
5.239546660E-1,-3.772883177E0,3.100499868E0,9.153742790E0
5.261956330E-1,-4.411168575E0,4.131806374E0,1.051944637E1
5.284437410E-1,-3.898506403E0,5.243870735E0,1.132343483E1
5.306842200E-1,-2.602792740E0,5.909075737E0,1.109133148E1
5.329204870E-1,-2.086541414E0,5.156532764E0,9.847661972E0
5.351553500E-1,-2.105684042E0,3.384647608E0,8.458029747E0
5.373911900E-1,-2.320439816E0,1.750947952E0,7.796414375E0
5.396282500E-1,-3.049054146E0,8.566305041E-1,8.015357971E0
5.418653110E-1,-4.227519512E0,7.956135273E-1,8.486145973E0
5.441023710E-1,-5.197809219E0,1.307677627E0,8.538188934E0
5.463369300E-1,-5.393422127E0,2.054836512E0,7.977072716E0
5.485662390E-1,-4.564907551E0,2.992224693E0,7.296912670E0
5.508138580E-1,-3.431905985E0,3.914657831E0,6.876374245E0
5.530515900E-1,-2.988635540E0,4.222135544E0,7.122834682E0
5.552899940E-1,-2.857030153E0,4.353142738E0,8.321041107E0
5.575244910E-1,-2.690130949E0,4.538586140E0,9.962516785E0
5.597612460E-1,-2.686541557E0,4.017549038E0,1.092682457E1
5.619984290E-1,-3.125624657E0,2.629113913E0,1.063430214E1
5.642359160E-1,-3.182454109E0,1.735992789E0,9.557532310E0
5.664735260E-1,-3.177070379E0,1.545165181E0,8.518448830E0
5.687100980E-1,-3.361915827E0,1.996212244E0,7.834101200E0
5.709475860E-1,-3.710669756E0,2.840280533E0,7.438089371E0
5.731834260E-1,-4.162314892E0,3.264408350E0,7.137789726E0
5.754204260E-1,-4.009174347E0,3.181257725E0,7.053442955E0
5.776573030E-1,-3.235096216E0,3.173480988E0,7.265805721E0
5.798946690E-1,-3.033500910E0,2.785245657E0,7.754539967E0
5.821322180E-1,-3.544368505E0,1.905285001E0,8.304290771E0
5.843697050E-1,-3.594019651E0,1.491326690E0,9.010173798E0
5.866058500E-1,-3.011367321E0,2.115255117E0,9.758528709E0
5.888438270E-1,-3.025724173E0,3.257229805E0,1.001396275E1
5.910767370E-1,-3.241676569E0,4.305285931E0,9.595218658E0
5.933050690E-1,-3.073580742E0,4.866403103E0,8.699705124E0
5.955535440E-1,-2.480160713E0,4.575077057E0,7.699504852E0
5.977908480E-1,-2.212762833E0,3.503092289E0,7.040880680E0
6.000310830E-1,-2.764906645E0,2.076970100E0,7.019345284E0
6.022657020E-1,-3.559921980E0,1.143171072E0,7.733603001E0
6.045020300E-1,-4.225126743E0,1.091127157E0,8.747561455E0
6.067398230E-1,-4.262813568E0,1.753939033E0,9.270991325E0
6.089756630E-1,-3.705285788E0,2.651247501E0,8.831310272E0
6.112127840E-1,-3.073580742E0,3.359523058E0,7.805387497E0
6.134497840E-1,-2.676372051E0,3.859622955E0,6.949953556E0
6.156867830E-1,-2.401795626E0,4.162913322E0,6.680162430E0
6.179239050E-1,-2.696711063E0,3.821337700E0,7.012166977E0
6.201616980E-1,-3.319443226E0,2.842673302E0,7.689933777E0
6.223982700E-1,-3.632902861E0,1.824527264E0,8.499305725E0
6.246358800E-1,-3.592823267E0,1.290329576E0,9.129815102E0
6.268716590E-1,-3.343371391E0,1.447657704E0,9.332008362E0
6.291086580E-1,-3.131606579E0,2.015354872E0,9.018548965E0
6.313455970E-1,-2.766103029E0,2.739781857E0,8.381459236E0
6.335800320E-1,-2.259422779E0,3.700500250E0,7.889136314E0
6.358079990E-1,-2.097907305E0,4.531407833E0,7.731808186E0
6.380550080E-1,-2.843271494E0,4.403391838E0,7.839485168E0
6.402822420E-1,-3.786043644E0,3.527020693E0,7.970492363E0
6.425348670E-1,-4.132404804E0,2.517847538E0,8.121838570E0
6.447676550E-1,-3.996612072E0,1.730608940E0,8.257631302E0
6.470079500E-1,-3.763311863E0,1.320838094E0,8.279764175E0
6.492389070E-1,-3.174677372E0,1.670190215E0,8.389236450E0
6.514673620E-1,-2.723630428E0,2.475374937E0,8.602197647E0
6.537162020E-1,-2.500499725E0,3.460619688E0,8.864809990E0
6.559513090E-1,-2.481357098E0,4.248456478E0,9.020941734E0
6.581787260E-1,-2.733201742E0,4.438087940E0,9.151947975E0
6.604162140E-1,-3.338585854E0,4.087539196E0,9.346963882E0
6.626640780E-1,-3.617349625E0,3.525824070E0,9.655039787E0
6.649038850E-1,-3.790829182E0,2.467000246E0,9.631709099E0
6.671410070E-1,-3.830909014E0,1.413560033E0,9.122636795E0
6.693720860E-1,-3.044866800E0,1.375872970E0,8.438887596E0
6.715998080E-1,-2.434098721E0,2.220539331E0,7.870592117E0
6.738465120E-1,-2.663809776E0,3.077169895E0,7.585845947E0
6.760865020E-1,-3.093321562E0,3.513859987E0,7.528418064E0
6.783269200E-1,-3.223730326E0,3.501297712E0,7.646862984E0
6.805605630E-1,-3.248256683E0,2.945564747E0,7.895118237E0
6.827971960E-1,-3.213560820E0,2.221137524E0,8.249854088E0
6.850340120E-1,-3.291925669E0,1.660618901E0,8.688937187E0
6.872712560E-1,-3.199203968E0,1.690529227E0,9.118449211E0
6.895089260E-1,-2.685943365E0,2.608774900E0,9.507881165E0
6.917464750E-1,-2.274976015E0,3.940979004E0,9.643074989E0
6.939828030E-1,-2.148156643E0,4.935196877E0,9.375677109E0
6.962201690E-1,-2.335993052E0,5.194818020E0,8.739186287E0
6.984558260E-1,-2.533999205E0,4.642076015E0,7.956135273E0
7.006931310E-1,-2.663211584E0,3.255435228E0,7.232904434E0
7.029300080E-1,-3.081955671E0,1.580459356E0,6.811768055E0
7.051674350E-1,-3.571287870E0,2.488535494E-1,6.885945320E0
7.074049230E-1,-4.001996040E0,-1.112662554E-1,7.426125050E0
7.096424110E-1,-4.223331928E0,6.197410822E-1,8.262416840E0
7.118748320E-1,-3.823132277E0,2.245664120E0,9.064610481E0
7.141015170E-1,-3.049054146E0,4.024727821E0,9.578469276E0
7.163518830E-1,-2.062014818E0,5.501099110E0,9.790233612E0
7.185894320E-1,-1.396810174E0,6.069993019E0,9.752547264E0
7.208296660E-1,-1.213759303E0,5.341378212E0,9.497711182E0
7.230633700E-1,-1.703091502E0,3.466003656E0,9.148359299E0
7.253006140E-1,-2.610569477E0,1.506281853E0,8.876175880E0
7.275384680E-1,-3.581457376E0,3.056831062E-1,8.903095245E0
7.297747960E-1,-4.186243057E0,2.620140910E-1,9.002396584E0
7.320125280E-1,-3.991228104E0,1.521237016E0,9.001798630E0
7.342481240E-1,-3.397808075E0,3.321835995E0,8.732605934E0
7.364854280E-1,-2.533999205E0,4.855635166E0,8.304290771E0
7.387222450E-1,-1.771885157E0,5.758327484E0,8.094919205E0
7.409596100E-1,-1.319043517E0,5.693123341E0,8.261219978E0
7.431968540E-1,-1.401595831E0,4.596612453E0,8.853444099E0
7.454344640E-1,-2.223530531E0,2.778665304E0,9.507282257E0
7.476709750E-1,-3.147160053E0,1.064207911E0,9.878170013E0
7.499084630E-1,-3.725624800E0,4.325026870E-1,9.788438797E0
7.521441200E-1,-3.670589924E0,1.262213945E0,9.205786705E0
7.543767850E-1,-3.351148129E0,2.634497643E0,8.280961037E0
7.565998690E-1,-2.600399971E0,3.717848301E0,7.418348312E0
7.588553620E-1,-1.730010748E0,4.399802685E0,7.015157700E0
7.610929110E-1,-1.377667665E0,4.378865242E0,7.266404152E0
7.633352210E-1,-1.867598057E0,3.501895905E0,8.231309891E0
7.655667880E-1,-2.630310297E0,2.526222467E0,9.637691498E0
7.678045200E-1,-3.306880951E0,1.760519266E0,1.077248764E1
7.700403600E-1,-3.744767427E0,1.403390527E0,1.093579769E1
7.722777250E-1,-3.218346357E0,1.887338877E0,1.006720352E1
7.745144810E-1,-2.291127682E0,2.889333248E0,8.595617294E0
7.767516020E-1,-1.782054663E0,3.883551121E0,7.206583500E0
7.789891510E-1,-1.839482427E0,4.523631096E0,6.527620316E0
7.812268830E-1,-2.344966173E0,4.242474556E0,6.909873486E0
7.834591830E-1,-3.030509949E0,3.270390272E0,8.264211655E0
7.856823270E-1,-3.297907829E0,2.620140791E0,1.001755238E1
7.879243930E-1,-3.110071182E0,2.745165825E0,1.133480072E1
7.901739050E-1,-2.595614433E0,3.352942705E0,1.156271744E1
7.924142610E-1,-1.895115495E0,3.915854216E0,1.065763187E1
7.946505900E-1,-1.185643673E0,4.141975880E0,9.218947411E0
7.968850860E-1,-1.032503009E0,3.820141315E0,8.033304214E0
7.991228790E-1,-1.930409670E0,3.198605776E0,7.783253670E0
8.013590240E-1,-3.224328518E0,2.559721947E0,8.440083504E0
8.035967560E-1,-4.180261135E0,1.786242127E0,9.204590797E0
8.058325350E-1,-4.316053867E0,1.485942841E0,9.428318977E0
8.080681920E-1,-3.622733593E0,2.180459738E0,9.061619759E0
8.103006140E-1,-2.576471806E0,3.367299557E0,8.606385231E0
8.125438390E-1,-1.579262972E0,4.409373760E0,8.561519623E0
8.147813870E-1,-8.554341197E-1,4.913661480E0,8.824729919E0
8.170204010E-1,-8.883354068E-1,4.429712772E0,9.106484413E0
8.192552640E-1,-1.865205288E0,3.002992392E0,9.438488960E0
8.214899440E-1,-2.999403238E0,1.703091502E0,9.921838760E0
8.237166290E-1,-3.904488325E0,9.822536707E-1,1.042971611E1
8.259658970E-1,-4.506283283E0,9.044869542E-1,1.062891865E1
8.281997220E-1,-3.971487284E0,1.969292998E0,1.033639526E1
8.304310460E-1,-2.581257343E0,3.869792461E0,9.521040916E0
8.326770780E-1,-1.339382529E0,5.452644825E0,8.633303642E0
8.349148710E-1,-9.278169870E-1,6.128018856E0,8.102097511E0
8.371541900E-1,-1.212562919E0,5.791827202E0,8.314460754E0
8.393890540E-1,-2.160120726E0,4.319643021E0,9.166903496E0
8.416248330E-1,-3.099303484E0,2.492722988E0,1.011505985E1
8.438618930E-1,-3.555734396E0,1.325623751E0,1.053679466E1
8.460987100E-1,-3.480360508E0,1.029511929E0,1.018564796E1
8.483359530E-1,-2.976073265E0,1.327418327E0,9.326624870E0
8.505731350E-1,-2.090728760E0,2.441875458E0,8.493324280E0
8.528111730E-1,-1.404586911E0,4.044468403E0,8.263014793E0
8.550474400E-1,-1.486541033E0,5.286941528E0,8.770891190E0
8.572850500E-1,-1.849651933E0,5.766702652E0,9.515059471E0
8.595207680E-1,-2.230708838E0,4.776672363E0,9.789635658E0
8.617556920E-1,-2.650649309E0,2.637488842E0,9.351150513E0
8.639831700E-1,-2.556132793E0,9.266205430E-1,8.801400185E0
8.662201080E-1,-2.950948477E0,1.196411322E-3,8.618349075E0
8.684696200E-1,-3.562314749E0,-3.349951655E-2,8.860622406E0
8.707093050E-1,-3.245863914E0,1.532602906E0,9.304491043E0
8.729464270E-1,-2.349751949E0,3.957728624E0,9.446864128E0
8.751809850E-1,-1.950150490E0,5.550152302E0,9.104690552E0
8.774170690E-1,-1.624128342E0,5.978467464E0,8.634500504E0
8.796541900E-1,-1.216152072E0,5.450251579E0,8.744570732E0
8.818911900E-1,-1.520638824E0,4.044468403E0,9.597611427E0
8.841280670E-1,-2.516052961E0,2.437688112E0,1.072104168E1
8.863658600E-1,-3.177668571E0,1.454237938E0,1.145563793E1
8.886032870E-1,-3.094517946E0,1.596012712E0,1.148495007E1
8.908394930E-1,-2.271985054E0,3.126821041E0,1.084128094E1
8.930772250E-1,-1.208375454E0,4.880760193E0,9.780064583E0
8.953132480E-1,-1.071386337E0,5.467599869E0,8.702695847E0
8.975501860E-1,-1.503889084E0,5.108078003E0,8.160721779E0
8.997871250E-1,-1.778465390E0,4.121038914E0,8.417351723E0
9.020240020E-1,-2.538186550E0,2.444866419E0,9.290133476E0
9.042589270E-1,-3.360719442E0,1.051645517E0,1.021496010E1
9.064875640E-1,-3.282354355E0,7.328019142E-1,1.065523911E1
9.087354890E-1,-2.499901533E0,1.367498159E0,1.040818024E1
9.109732210E-1,-1.527219057E0,2.609971285E0,9.580862045E0
9.132121740E-1,-1.042074203E0,3.841078520E0,8.691329956E0
9.154461820E-1,-1.402792215E0,4.442275047E0,8.085946083E0
9.176831820E-1,-2.129612207E0,4.596014023E0,8.222336769E0
9.199202430E-1,-2.661417007E0,4.423132420E0,9.104690552E0
9.221578520E-1,-3.233301640E0,3.503690481E0,1.010728264E1
9.243953400E-1,-3.340380430E0,2.307279348E0,1.056610680E1
9.266317290E-1,-2.501097918E0,1.932204247E0,1.036929703E1
9.288694000E-1,-1.482951880E0,2.446063042E0,9.767501831E0
9.311051180E-1,-9.966106415E-1,3.349353552E0,9.260223389E0
9.333426060E-1,-1.189831018E0,4.170690060E0,9.204590797E0
9.355791170E-1,-1.661815286E0,4.549354076E0,9.547362328E0
9.378163000E-1,-2.349751949E0,4.256233215E0,9.980463028E0
9.400537260E-1,-2.781656265E0,3.658625841E0,1.023470020E1
9.422913970E-1,-2.878565550E0,2.891128063E0,1.012582684E1
9.445280300E-1,-2.554936409E0,2.170888424E0,9.695717812E0
9.467657020E-1,-1.870589137E0,2.205584288E0,9.272786140E0
9.489970250E-1,-1.315454245E0,3.011367321E0,9.038289070E0
9.512204750E-1,-1.222134113E0,3.846462488E0,9.066405296E0
9.534722450E-1,-1.303490162E0,4.239483356E0,9.165108681E0
9.557127840E-1,-1.534397483E0,3.832105398E0,9.077771187E0
9.579543620E-1,-1.873580098E0,2.729014158E0,8.824131966E0
9.601884320E-1,-2.384447813E0,1.852044702E0,8.787042618E0
9.624196940E-1,-2.727817774E0,1.530210137E0,9.237491608E0
9.646438140E-1,-2.630908489E0,1.697109461E0,9.948758125E0
9.668972940E-1,-2.295315027E0,2.368296146E0,1.059900761E1
9.691344760E-1,-1.855633974E0,3.426522017E0,1.081137085E1
9.713756870E-1,-1.455434322E0,4.535595417E0,1.067498016E1
9.736090240E-1,-1.295115232E0,5.156532764E0,1.037468052E1
9.758461460E-1,-1.334596872E0,5.240281582E0,1.004506969E1
9.780796060E-1,-1.524227977E0,4.823930264E0,9.667601585E0
9.803018340E-1,-1.854437590E0,3.993621111E0,9.312865257E0
9.825572060E-1,-2.120040894E0,3.137588739E0,9.183054924E0
9.847905430E-1,-2.358126640E0,2.514856577E0,9.086744308E0
9.870354160E-1,-2.553740025E0,2.183450699E0,8.990432739E0
9.892645420E-1,-2.462214470E0,2.206780672E0,8.928817749E0
9.914932410E-1,-2.020140409E0,2.625524759E0,8.922835350E0
9.937420200E-1,-1.689931035E0,3.002394199E0,9.053842545E0
9.959798740E-1,-1.414756417E0,3.284149170E0,9.303893089E0
9.982165070E-1,-1.177268744E0,3.359523058E0,9.716055870E0
1.000441971E0,-1.269990563E0,3.148356438E0,1.020179939E1
1.002689469E0,-1.580459356E0,2.726023197E0,1.052423191E1
1.004926590E0,-1.929811478E0,2.420340061E0,1.046441174E1
1.007166825E0,-2.234298229E0,2.307877541E0,9.979865074E0
1.009397781E0,-2.283350945E0,2.541177750E0,9.345169067E0
1.011626419E0,-1.983649969E0,3.056232691E0,8.769695282E0
1.013875992E0,-1.734198213E0,3.508476257E0,8.365905762E0
1.016112198E0,-1.654038668E0,3.699303865E0,8.261817932E0
1.018352860E0,-1.503889084E0,3.699902058E0,8.672785759E0
1.020582535E0,-1.424327731E0,3.637688637E0,9.399007797E0
1.022808121E0,-1.703091502E0,3.242274761E0,9.969097137E0
1.025047684E0,-1.876571178E0,2.909672260E0,1.007797050E1
1.027296342E0,-1.764706731E0,2.827718258E0,9.773484230E0
1.029531632E0,-1.844866276E0,2.908475876E0,9.157332420E0
1.031763321E0,-1.783849239E0,3.254238844E0,8.690134048E0
1.034008133E0,-1.683350682E0,3.516252756E0,8.566903114E0
1.036246658E0,-1.863410592E0,3.360719442E0,8.675178528E0
1.038484940E0,-2.195414782E0,2.766701221E0,8.940183640E0
1.040719071E0,-2.520240545E0,2.014756680E0,9.257830620E0
1.042955582E0,-2.676970243E0,1.684547186E0,9.743574142E0
1.045192704E0,-2.349153519E0,2.159522533E0,1.036092186E1
1.047430496E0,-1.935195327E0,3.141776085E0,1.067258739E1
1.049665115E0,-1.619342685E0,4.267001152E0,1.034955597E1
1.051892593E0,-1.138385415E0,5.249254704E0,9.494122505E0
1.054142411E0,-9.996016622E-1,5.404788017E0,8.565108299E0
1.056377945E0,-1.271785259E0,4.441078663E0,7.934599876E0
1.058617814E0,-2.039283037E0,2.778067112E0,8.045268059E0
1.060851761E0,-2.866003275E0,1.399801254E0,8.845666885E0
1.063088883E0,-3.447459221E0,8.255237937E-1,9.842875481E0
1.065326309E0,-3.372683525E0,1.102493048E0,1.058644581E1
1.067564041E0,-2.440080881E0,2.393420935E0,1.075035381E1
1.069800430E0,-1.313659668E0,4.186243057E0,1.029990482E1
1.072034501E0,-5.276173949E-1,5.827719688E0,9.646664619E0
1.074259110E0,-3.553341627E-1,6.573083878E0,9.232108116E0
1.076511124E0,-8.099704385E-1,5.580660820E0,9.162715912E0
1.078748124E0,-1.597209096E0,3.324228764E0,9.440283775E0
1.080988907E0,-2.538186550E0,1.447059512E0,9.954740524E0
1.083222550E0,-3.471387386E0,4.265206456E-1,1.034357452E1
1.085460282E0,-3.908077478E0,3.750749528E-1,1.036869907E1
1.087696671E0,-3.235694408E0,1.572682738E0,9.881759644E0
1.089934464E0,-1.670190215E0,3.686143398E0,9.019744873E0
1.092170182E0,-5.850451589E-1,5.371886730E0,8.168498039E0
1.094407059E0,-3.619144261E-1,5.785246849E0,8.012366295E0
1.096644059E0,-5.198407173E-1,4.884947300E0,8.756534576E0
1.098881119E0,-1.171884894E0,3.195614576E0,9.945169449E0
1.101118546E0,-2.379662037E0,1.612762451E0,1.075214863E1
1.103356278E0,-3.559921980E0,5.018945336E-1,1.080538845E1
1.105592667E0,-3.638286829E0,3.912265003E-1,1.019940662E1
1.107830460E0,-2.557927370E0,1.656431437E0,9.196215630E0
1.110066300E0,-1.093519926E0,3.757329702E0,8.367102623E0
1.112303543E0,-4.025924206E-1,5.571089268E0,7.878966808E0
1.114541520E0,-4.360919297E-1,6.274579048E0,7.968099594E0
1.116782975E0,-5.234299302E-1,5.545366287E0,8.607581139E0
1.119014481E0,-1.022333503E0,3.635894060E0,9.421140671E0
1.121252579E0,-2.032702923E0,1.682752490E0,1.000199890E1
1.123487442E0,-2.975475073E0,4.773681164E-1,1.009531879E1
1.125726456E0,-2.886342287E0,4.253242314E-1,9.667003632E0
1.127962174E0,-1.803590059E0,1.613958836E0,8.793025017E0
1.130199295E0,-7.818548083E-1,3.214159012E0,7.908278942E0
1.132436356E0,-6.466603279E-1,4.319643021E0,7.373483181E0
1.134673416E0,-9.499505758E-1,4.256831646E0,7.442276478E0
1.136910782E0,-1.412961721E0,3.361915827E0,8.073383331E0
1.139148514E0,-2.082353830E0,2.296511650E0,8.970691681E0
1.141384842E0,-2.882753134E0,1.301097274E0,9.627521515E0
1.143622391E0,-3.139981508E0,9.062815905E-1,9.883553505E0
1.145858231E0,-2.312663078E0,1.660020709E0,9.689735413E0
1.148092912E0,-1.111466169E0,3.251846075E0,9.111269951E0
1.150321915E0,-3.840480447E-1,4.534996986E0,8.495717049E0
1.152569718E0,-1.776670814E-1,5.139782906E0,8.344370842E0
1.154804093E0,-6.939185858E-1,4.829912663E0,8.816953659E0
1.157032670E0,-1.443470240E0,3.917648792E0,9.917651176E0
1.159268997E0,-2.057229280E0,2.921038151E0,1.115832996E1
1.161519120E0,-2.629113913E0,2.095514536E0,1.166022491E1
1.163757340E0,-2.454437733E0,1.980060697E0,1.118524933E1
1.165994523E0,-1.313061476E0,2.691327333E0,9.949954987E0
1.168227921E0,-4.396811724E-1,3.311666489E0,8.502297401E0
1.170464432E0,-6.000002623E-1,3.686741590E0,7.603792191E0
1.172702713E0,-1.268794179E0,3.854238987E0,7.659425259E0
1.174928605E0,-2.211566210E0,3.372085333E0,8.476573944E0
1.177164932E0,-2.985046148E0,2.781058073E0,9.490532875E0
1.179403092E0,-3.025724173E0,2.592623234E0,1.001515961E1
1.181638993E0,-2.487339020E0,2.542374134E0,9.719645500E0
1.183875870E0,-1.660020709E0,2.624926329E0,8.864211082E0
1.186112870E0,-8.261220455E-1,3.251846075E0,8.145766258E0
1.188349869E0,-5.569294691E-1,3.875176191E0,7.980661869E0
1.190587296E0,-1.331605792E0,3.856631994E0,8.369495392E0
1.192825028E0,-2.269592285E0,3.436093330E0,9.238688469E0
1.195061356E0,-2.639283419E0,2.810968399E0,1.008036327E1
1.197299882E0,-2.789433002E0,2.147558212E0,1.028495026E1
1.199540665E0,-2.776272535E0,1.890928149E0,9.927821159E0
1.201780106E0,-2.269592285E0,2.167897224E0,9.369695663E0
1.204008866E0,-1.749153376E0,2.864806890E0,9.087342262E0
1.206245072E0,-1.379462242E0,4.034298897E0,9.274580956E0
1.208481766E0,-1.197607756E0,4.971088886E0,9.789635658E0
1.210721207E0,-1.365703583E0,5.148756027E0,1.020239735E1
1.212957108E0,-1.512263894E0,4.710271358E0,1.032622623E1
1.215194962E0,-1.601396561E0,3.736990690E0,1.012642574E1
1.217434403E0,-1.667797327E0,2.554338217E0,9.698708534E0
1.219683060E0,-1.802991867E0,1.912463546E0,9.312267303E0
1.221919816E0,-1.959721804E0,1.801795483E0,8.915059090E0
1.224156693E0,-1.949552298E0,1.966302037E0,8.495717049E0
1.226391190E0,-1.966900229E0,2.160120726E0,8.056035995E0
1.228628983E0,-1.991426587E0,2.423929453E0,7.969893932E0
1.230865311E0,-2.065006018E0,2.830111027E0,8.349754333E0
1.233102860E0,-2.242074728E0,3.216551781E0,9.034101486E0
1.235338639E0,-2.298306227E0,3.239283562E0,9.505488396E0
1.237575699E0,-2.163111687E0,2.997608662E0,9.550353050E0
1.239812638E0,-1.645065546E0,2.924029350E0,9.330811501E0
1.242050186E0,-1.188036442E0,3.224328518E0,9.067601204E0
1.244287491E0,-1.234696507E0,3.532404423E0,8.799605370E0
1.246525040E0,-1.475773335E0,3.590430260E0,8.501698494E0
1.248761307E0,-1.293320656E0,3.516252756E0,8.322237015E0
1.250999039E0,-1.229312658E0,3.290729284E0,8.313861847E0
1.253234696E0,-1.599601984E0,2.989233732E0,8.583054543E0
1.255472000E0,-2.024327993E0,2.687737942E0,8.961120605E0
1.257708817E0,-1.975873351E0,2.593819857E0,9.357132912E0
1.259946182E0,-1.611566067E0,2.688336134E0,9.494122505E0
1.262183487E0,-1.345364571E0,2.757129908E0,9.286544800E0
1.264420975E0,-1.109073281E0,2.659622431E0,8.926424980E0
1.266656326E0,-9.308080077E-1,2.581855536E0,8.647063255E0
1.268895096E0,-1.247856975E0,2.401197433E0,8.439485550E0
1.271130936E0,-1.798206210E0,2.117648125E0,8.463413239E0
1.273368485E0,-2.227717876E0,1.984846354E0,8.598010063E0
1.275604813E0,-2.688336134E0,2.005185366E0,8.693722725E0
1.277842179E0,-2.627319336E0,2.271985054E0,8.779864311E0
1.280079727E0,-2.062014818E0,2.626721144E0,8.788837433E0
1.282315384E0,-1.622333765E0,3.189632654E0,8.768498421E0
1.284544998E0,-1.255633712E0,4.068396568E0,8.803194046E0
1.286791031E0,-1.027717352E0,4.700101852E0,8.990432739E0
1.289026871E0,-1.117448211E0,4.599603176E0,9.280562401E0
1.291266373E0,-1.198804140E0,4.135395527E0,9.604789734E0
1.293501053E0,-1.246660590E0,3.212364435E0,9.744172096E0
1.295738175E0,-1.664806366E0,2.052443504E0,9.599406242E0
1.297975662E0,-2.012363911E0,1.408176184E0,9.373284340E0
1.300213272E0,-2.124228239E0,1.450050473E0,9.081359863E0
1.302446915E0,-2.085943222E0,1.881955028E0,8.651848793E0
1.304675614E0,-1.891526341E0,2.507678032E0,8.199604988E0
1.306923172E0,-1.499701619E0,3.244069338E0,7.915457249E0
1.309155900E0,-1.387238979E0,3.744767427E0,7.892127514E0
1.311382890E0,-1.530808330E0,3.893720627E0,8.181658745E0
1.313634415E0,-1.622931957E0,3.815953970E0,8.752944946E0
1.315872025E0,-1.644467354E0,3.584448338E0,9.229715347E0
1.318110978E0,-1.612762451E0,3.162713289E0,9.354740143E0
1.320333573E0,-1.534995675E0,2.751147747E0,9.065208435E0
1.322581315E0,-1.494915962E0,2.666800737E0,8.622536659E0
1.324811234E0,-1.485344648E0,2.736192703E0,8.160123825E0
1.327059220E0,-1.614557028E0,2.600399971E0,7.892127514E0
1.329290054E0,-1.810170293E0,2.359323025E0,7.976474285E0
1.331520340E0,-1.901695848E0,2.248056889E0,8.443074226E0
1.333767716E0,-2.081157446E0,2.519642353E0,9.184849739E0
1.336005509E0,-2.225325108E0,3.140579700E0,9.802198410E0
1.338246232E0,-2.230708838E0,3.862015724E0,1.000618649E1
1.340485245E0,-1.993221283E0,4.328018188E0,9.883553505E0
1.342715348E0,-1.588834286E0,4.284946918E0,9.529416084E0
1.344952225E0,-1.329213023E0,3.790230989E0,9.151350021E0
1.347187821E0,-1.348953724E0,3.275176048E0,8.904291153E0
1.349426285E0,-1.622333765E0,2.892324448E0,8.845068932E0
1.351663773E0,-2.154138565E0,2.484946251E0,8.693124771E0
1.353901749E0,-2.370688915E0,2.303091764E0,8.486145973E0
1.356138077E0,-2.149951220E0,2.596810818E0,8.349754333E0
1.358375565E0,-1.864607096E0,3.052045345E0,8.246265411E0
1.360611100E0,-1.672582984E0,3.426522017E0,8.295317650E0
1.362848404E0,-1.532602906E0,3.629313707E0,8.481958389E0
1.365085343E0,-1.433898926E0,3.726222992E0,8.926424980E0
1.367322891E0,-1.734796405E0,3.775874138E0,9.476774216E0
1.369559952E0,-2.074577332E0,3.739981890E0,1.002233791E1
1.371797684E0,-2.073380709E0,3.591028690E0,1.020837975E1
1.374033707E0,-1.789233088E0,3.559323788E0,9.929615974E0
1.376271622E0,-1.380658627E0,3.628117323E0,9.279964447E0
1.378507584E0,-1.089930773E0,3.407379389E0,8.481958389E0
1.380744461E0,-1.049252748E0,3.247060299E0,7.891529083E0
1.382981278E0,-1.223928809E0,3.308077335E0,7.684549809E0
1.385218521E0,-1.540977836E0,3.369692564E0,7.867600918E0
1.387456009E0,-1.953141451E0,3.140579700E0,8.088338852E0
1.389693924E0,-2.115853310E0,2.845664263E0,8.163712502E0
1.391929764E0,-2.109871387E0,2.630310297E0,8.173283577E0
1.394167679E0,-2.026122570E0,2.499901533E0,8.269595146E0
1.396403824E0,-1.703689694E0,2.732603550E0,8.491529465E0
1.398640702E0,-1.396810174E0,3.219542980E0,8.751151085E0
1.400877274E0,-1.192822099E0,3.818346739E0,8.937790871E0
1.403114518E0,-1.226919770E0,4.134199142E0,8.985049248E0
1.405352188E0,-1.280160069E0,4.097110748E0,8.927022934E0
1.407590042E0,-1.434497118E0,3.678366661E0,8.955139160E0
1.409826309E0,-1.636690736E0,3.063411236E0,9.130413055E0
1.412063797E0,-1.751546144E0,2.556730986E0,9.397212982E0
1.414299576E0,-1.677368641E0,2.454437733E0,9.536594391E0
1.416536637E0,-1.592423439E0,2.606980324E0,9.389435768E0
1.418773453E0,-1.495514154E0,2.860619545E0,9.113064766E0
1.421010575E0,-1.485942841E0,3.129213810E0,8.946166039E0
1.423248184E0,-1.551147223E0,3.612564087E0,9.025727272E0
1.425485977E0,-1.888535261E0,4.262215137E0,9.217152596E0
1.427722305E0,-2.225325108E0,4.563112736E0,9.385248184E0
1.429959793E0,-2.075175524E0,4.341178417E0,9.363115311E0
1.432192703E0,-1.611566067E0,3.785445452E0,9.053244591E0
1.434421158E0,-1.322034478E0,2.985046148E0,8.561519623E0
1.436669510E0,-1.092323542E0,2.452044964E0,8.254639626E0
1.438906815E0,-1.135992527E0,2.490330219E0,8.373085022E0
1.441147049E0,-1.545165181E0,2.962912560E0,8.860024452E0
1.443381913E0,-1.849053741E0,3.424129248E0,9.352347374E0
1.445618057E0,-1.884945989E0,3.767499208E0,9.665806770E0
1.447856095E0,-1.536192179E0,3.968496323E0,9.592825890E0
1.450091874E0,-1.245464206E0,3.951746702E0,9.166305542E0
1.452328995E0,-1.253839016E0,3.729812384E0,8.613563538E0
1.454565690E0,-1.464407444E0,3.213560820E0,8.187641144E0
1.456802872E0,-1.665404558E0,2.495115757E0,8.067999840E0
1.459040604E0,-1.852044702E0,1.904686809E0,8.162516594E0
1.461277970E0,-1.994417667E0,1.767099500E0,8.380861282E0
1.463514542E0,-2.108675003E0,2.255235434E0,8.593822479E0
1.465751969E0,-1.917847395E0,2.988037348E0,8.822935104E0
1.467987870E0,-1.494915962E0,3.653840065E0,9.211769104E0
1.470224808E0,-1.226919770E0,4.220939159E0,9.738189697E0
1.472461502E0,-9.696913958E-1,4.797609329E0,1.034058285E1
1.474699112E0,-1.052243710E0,4.968696117E0,1.082572746E1
1.476936661E0,-1.508674622E0,4.588237286E0,1.088435173E1
1.479174210E0,-1.895115495E0,3.797409534E0,1.040997505E1
1.481410294E0,-2.091326952E0,2.766103029E0,9.723235130E0
1.483648209E0,-2.060818434E0,1.893320918E0,9.109476089E0
1.485883866E0,-1.844866276E0,1.695913076E0,8.749954224E0
1.488118240E0,-1.661815286E0,2.081157446E0,8.665008545E0
1.490345963E0,-1.508076429E0,2.843271494E0,8.807980537E0
1.492595047E0,-1.561316729E0,3.669393539E0,9.192625999E0
1.494832352E0,-1.740180254E0,4.195814610E0,9.733404160E0
1.497073197E0,-1.705484390E0,4.277768612E0,1.037707329E1
1.499306778E0,-1.493719578E0,3.933202267E0,1.081854916E1
1.501544327E0,-1.440479279E0,3.305684566E0,1.082991505E1
1.503780106E0,-1.479362607E0,2.700898647E0,1.035852909E1
1.506017105E0,-1.285543919E0,2.476571321E0,9.702297211E0
1.508250992E0,-1.444666624E0,2.405385017E0,9.109476089E0
1.510478288E0,-1.808375716E0,2.523231506E0,8.638688087E0
1.512724503E0,-1.839482427E0,2.836092949E0,8.299505234E0
1.514966446E0,-1.750947952E0,3.156731367E0,8.032705307E0
1.517205704E0,-1.694716692E0,3.385843992E0,7.980661869E0
1.519441361E0,-1.595414519E0,3.425923824E0,8.243273735E0
1.521676285E0,-1.221535921E0,3.139981508E0,8.848059654E0
1.523913163E0,-1.086939692E0,2.857030153E0,9.507881165E0
1.526150223E0,-1.210768223E0,2.846860647E0,1.003131104E1
1.528387223E0,-1.378864050E0,3.053241730E0,1.041117096E1
1.530624649E0,-1.455434322E0,3.144767046E0,1.058166027E1
1.532862381E0,-1.347757339E0,3.267399311E0,1.052064323E1
1.535098709E0,-1.099501967E0,3.336791277E0,1.019402313E1
1.537336319E0,-9.469595551E-1,3.040679455E0,9.680762291E0
1.539572281E0,-1.090528965E0,2.730210543E0,9.117252350E0
1.541809159E0,-1.386042476E0,2.688336134E0,8.828319550E0
1.544046219E0,-1.863410592E0,2.437089920E0,8.796015739E0
1.546283280E0,-2.179861546E0,2.216351986E0,8.998209953E0
1.548520950E0,-2.154138565E0,2.449054003E0,9.241679192E0
1.550758621E0,-1.914258122E0,2.861217737E0,9.347561836E0
1.552994766E0,-1.642074585E0,3.129812002E0,9.302098274E0
1.555232437E0,-1.188634634E0,3.601198196E0,9.229117393E0
1.557468094E0,-8.099704385E-1,3.926023722E0,9.160921097E0
1.559705643E0,-8.434699774E-1,3.672384501E0,9.303893089E0
1.561942215E0,-1.152144074E0,3.115455151E0,9.726225853E0
1.564179581E0,-1.396211982E0,2.748156786E0,1.026341438E1
1.566416824E0,-1.549352646E0,2.605185747E0,1.060558796E1
1.568654679E0,-1.590628862E0,2.682952404E0,1.050508976E1
1.570891007E0,-1.308275819E0,2.983251572E0,9.863214493E0
1.573128739E0,-9.511470199E-1,3.293720484E0,8.874381065E0
1.575364274E0,-9.080761671E-1,3.384049416E0,7.849654675E0
1.577601334E0,-1.073180914E0,3.542573929E0,7.213163853E0
1.579838150E0,-1.363908887E0,3.580859184E0,7.086942673E0
1.582075516E0,-1.733600020E0,3.346362352E0,7.336394310E0
1.584312882E0,-1.949552298E0,2.850450039E0,7.726424217E0
1.586547013E0,-1.778465390E0,2.343171597E0,8.181658745E0
1.588772354E0,-1.416550994E0,2.158325911E0,8.743373871E0
1.591024735E0,-1.393819213E0,2.389233351E0,9.329615593E0
1.593260270E0,-1.593021631E0,2.929413080E0,1.006122112E1
1.595501053E0,-1.521835208E0,3.603590965E0,1.076171970E1
1.597734391E0,-1.398006678E0,4.107280254E0,1.113380337E1
1.599971573E0,-1.140778184E0,4.280161381E0,1.106441212E1
1.602209183E0,-1.112662554E0,4.052245140E0,1.069292641E1
1.604446793E0,-1.191625714E0,3.649054527E0,1.026879883E1
1.606682755E0,-1.303490162E0,3.351148129E0,9.939187050E0
1.608920731E0,-1.502692580E0,3.049054146E0,9.704092026E0
1.611156510E0,-1.628913999E0,2.846262455E0,9.570094109E0
1.613392899E0,-1.535593987E0,2.850450039E0,9.294321060E0
1.615627274E0,-1.354337573E0,3.156731367E0,8.737391472E0
1.617867752E0,-1.380060434E0,3.337389469E0,8.088338852E0
1.620105057E0,-1.401595831E0,3.324826956E0,7.730611801E0
1.622343461E0,-1.287936807E0,3.293720484E0,7.846065521E0
1.624579239E0,-1.589432478E0,3.125026464E0,8.153543472E0
1.626816971E0,-2.012363911E0,2.867199659E0,8.407780647E0
1.629052628E0,-1.912463546E0,2.917448997E0,8.589634895E0
1.631288284E0,-1.633101463E0,3.084946632E0,8.682356834E0
1.633517899E0,-1.450050473E0,3.191427231E0,8.764909744E0
1.635754227E0,-1.156331539E0,3.382254839E0,8.934201241E0
1.638000260E0,-1.013958573E0,3.445664644E0,9.226125717E0
1.640237259E0,-1.037288666E0,3.310470104E0,9.550951958E0
1.642474625E0,-1.157527924E0,3.124428272E0,9.878767967E0
1.644701065E0,-1.200000525E0,3.008974552E0,1.013121128E1
1.646949539E0,-1.092323542E0,3.189034462E0,1.018445110E1
1.649184341E0,-1.130010486E0,3.363112211E0,9.826126099E0
1.651420487E0,-1.103689432E0,3.801596880E0,9.096315384E0
1.653656815E0,-9.469595551E-1,4.286143780E0,8.343173981E0
1.655882767E0,-1.220339537E0,4.255036831E0,7.716254711E0
1.658121659E0,-1.531406522E0,3.829712629E0,7.546962738E0
1.660359268E0,-1.572682738E0,3.235096216E0,8.005785942E0
1.662608841E0,-1.397408366E0,2.568695068E0,8.842676163E0
1.664835465E0,-1.115055323E0,2.359323025E0,9.708877563E0
1.667084855E0,-1.042074203E0,2.374876499E0,1.026760197E1
1.669319657E0,-9.242277741E-1,2.744567633E0,1.055892849E1
1.671560013E0,-6.801598072E-1,3.471985579E0,1.066002464E1
1.673777116E0,-7.621139884E-1,4.037888050E0,1.054875851E1
1.676013077E0,-1.018744230E0,4.354339123E0,1.028794098E1
1.678263504E0,-1.392024517E0,4.189234257E0,9.932008743E0
1.680496232E0,-1.704886079E0,3.492922783E0,9.482157707E0
1.682745561E0,-1.834696770E0,2.937189817E0,9.105288506E0
1.684978104E0,-1.733001828E0,2.969492912E0,9.058628082E0
1.687217850E0,-1.514656782E0,3.224328518E0,9.136395454E0
1.689451920E0,-1.086939692E0,3.548556089E0,8.949156761E0
1.691689285E0,-5.742774606E-1,3.873979807E0,8.309675217E0
1.693927079E0,-5.503492057E-2,3.997808456E0,7.741977692E0
1.696163407E0,-3.104687333E-1,3.547957659E0,7.673183918E0
1.698400955E0,-1.071386337E0,2.882154942E0,8.230113029E0
1.700636795E0,-1.880160451E0,2.350948334E0,8.924630165E0
1.702874039E0,-2.461018085E0,2.094916344E0,9.239286423E0
1.705110672E0,-2.092523336E0,2.367099762E0,9.165707588E0
1.707348038E0,-1.170090318E0,3.119642496E0,8.963513374E0
1.709585465E0,-3.176472187E-1,3.681357622E0,8.822337151E0
1.711822830E0,-4.127619043E-2,3.854238987E0,8.791230202E0
1.714059219E0,-7.058826834E-2,3.996013880E0,9.119645119E0
1.716297196E0,-5.234299302E-1,4.219742775E0,9.830313683E0
1.718533097E0,-1.511067510E0,4.226323128E0,1.051286602E1
1.720770157E0,-2.273181438E0,3.917050600E0,1.059661484E1
1.723006913E0,-1.959123492E0,3.366103172E0,9.861420631E0
1.725244217E0,-8.303094506E-1,2.867199659E0,8.623732567E0
1.727481522E0,-1.196411322E-3,2.621337175E0,7.482356548E0
1.729719071E0,-7.716853172E-2,2.380858421E0,6.952944279E0
1.731955399E0,-6.825526357E-1,2.441277266E0,7.271189690E0
1.734193253E0,-1.488335729E0,2.817548752E0,8.117053032E0
1.736429276E0,-2.350350142E0,2.998206854E0,9.000003815E0
1.738666092E0,-2.974278450E0,2.923431158E0,9.571888924E0
1.740902909E0,-2.695514679E0,3.166302681E0,9.945767403E0
1.743140152E0,-1.730010748E0,3.523431301E0,1.024008465E1
1.745377640E0,-9.583254457E-1,3.253042459E0,1.035733318E1
1.747615616E0,-3.924229145E-1,3.061616659E0,1.053918743E1
1.749851761E0,4.426721856E-2,3.651447296E0,1.086161995E1
1.752089737E0,-3.092723191E-1,4.191029072E0,1.116311550E1
1.754323990E0,-1.881955028E0,4.109673023E0,1.112483025E1
1.756557450E0,-2.878565550E0,3.815953970E0,1.066780186E1
1.758799027E0,-2.741576433E0,3.579064369E0,9.839884758E0
1.761036209E0,-2.535195589E0,3.275176048E0,8.659625053E0
1.763274979E0,-2.328216314E0,3.058027267E0,7.488936901E0
1.765511368E0,-1.543370605E0,3.198605776E0,6.665805817E0
1.767747940E0,-7.806583643E-1,3.441477060E0,6.415157318E0
1.769985428E0,-7.800601721E-1,3.372683525E0,6.758527756E0
1.772221268E0,-1.296909928E0,3.332603693E0,7.826922894E0
1.774458268E0,-1.804786444E0,3.782454491E0,9.275776863E0
1.776695084E0,-1.987837434E0,4.467400074E0,1.065105152E1
1.778932144E0,-1.592423439E0,5.097908497E0,1.151665497E1
1.781166703E0,-1.024128079E0,5.041079044E0,1.164108181E1
1.783396073E0,-5.718846321E-1,4.318446636E0,1.128395367E1
1.785643692E0,5.144568533E-2,3.803989887E0,1.088554859E1
1.787881546E0,8.374879509E-2,3.273979664E0,1.063848972E1
1.790120377E0,-6.681957245E-1,2.544766903E0,1.052363396E1
1.792354630E0,-1.590628862E0,1.555334687E0,1.024965572E1
1.794591385E0,-2.067996979E0,1.010967612E0,9.621540070E0
1.796828385E0,-2.513062000E0,1.204187989E0,8.696713448E0
1.799065750E0,-2.888735056E0,1.639083505E0,7.929215908E0
1.801303543E0,-2.432902336E0,2.316252232E0,7.875377655E0
1.803539871E0,-1.092921734E0,3.512663603E0,8.458029747E0
1.805777481E0,-3.409772366E-2,4.597808838E0,9.176474571E0
1.808009720E0,-1.076770201E-2,4.772484779E0,9.595816612E0
1.810235428E0,-3.804588020E-1,4.509274483E0,9.845269203E0
1.812487381E0,-7.136593461E-1,4.211368084E0,1.018624592E1
1.814724381E0,-1.431506157E0,3.416950703E0,1.048594666E1
1.816965592E0,-2.223530531E0,2.371885538E0,1.060439205E1
1.819198258E0,-2.122433662E0,2.285145521E0,1.038185883E1
1.821429825E0,-1.140179992E0,3.239881754E0,9.702297211E0
1.823673661E0,-4.755735099E-1,3.985246181E0,8.767900467E0
1.825909195E0,-1.674975827E-2,4.201198578E0,8.123034477E0
1.828145096E0,4.588237405E-1,4.247260094E0,8.027321815E0
1.830371415E0,3.409772366E-2,3.897907972E0,8.353343964E0
1.832620743E0,-1.334596872E0,3.035295486E0,9.019146919E0
1.834858048E0,-2.351546526E0,2.114058733E0,9.931410789E0
1.837098832E0,-2.406581402E0,1.666600943E0,1.065643597E1
1.839332108E0,-1.446461320E0,1.800599098E0,1.061755180E1
1.841569718E0,-3.367897868E-1,2.142174482E0,9.654440880E0
1.843805741E0,2.548356056E-1,2.484348059E0,8.209774017E0
1.846042801E0,3.750749528E-1,3.205784082E0,7.060621262E0
1.848276627E0,-4.911268353E-1,4.109673023E0,6.741179466E0
1.850504654E0,-2.181656122E0,4.448257446E0,7.287341595E0
1.852754044E0,-3.540779352E0,4.228715897E0,8.472386360E0
1.854992020E0,-3.778266907E0,3.710071564E0,9.691530228E0
1.857231156E0,-2.650051117E0,3.268595695E0,1.040399265E1
1.859464798E0,-1.073180914E0,3.010170937E0,1.047577763E1
1.861697037E0,4.193421602E-1,3.404388428E0,1.026461124E1
1.863938797E0,1.273579836E0,4.454239368E0,1.015633583E1
1.866175553E0,9.272187948E-1,5.405386448E0,1.030409241E1
1.868413773E0,-1.118644550E-1,5.549553871E0,1.048534870E1
1.870650040E0,-1.671984792E0,4.588237286E0,1.033400249E1
1.872888016E0,-2.679363251E0,3.285943747E0,9.902696609E0
1.875124161E0,-2.890529871E0,1.933400750E0,9.354740143E0
1.877361954E0,-2.469991207E0,5.102694035E-1,8.679366112E0
1.879597672E0,-1.627119422E0,-2.781656384E-1,7.892127514E0
1.881834793E0,-5.150550604E-1,4.253242314E-1,7.290332317E0
1.884071610E0,7.298108935E-2,2.281556368E0,7.207181931E0
1.886308975E0,-7.268198729E-1,3.794418573E0,7.478168964E0
1.888546524E0,-2.124228239E0,4.497310162E0,7.941180229E0
1.890784012E0,-2.946162939E0,4.677968502E0,8.639286041E0
1.893020096E0,-2.473580360E0,4.600799561E0,9.315856934E0
1.895257828E0,-1.915454507E0,3.935595036E0,9.608379364E0
1.897493668E0,-1.675574064E0,2.809173822E0,9.373882294E0
1.899730850E0,-9.002995491E-1,2.382055044E0,9.310472488E0
1.901964859E0,2.362912297E-1,2.486142635E0,9.926026344E0
1.904192216E0,3.625126183E-1,2.794816732E0,1.091366386E1
1.906439346E0,-5.180460811E-1,3.626920938E0,1.166740322E1
1.908680008E0,-1.241276741E0,4.718048096E0,1.184985638E1
1.910919388E0,-9.349954724E-1,5.442475319E0,1.140778160E1
1.913154923E0,-4.911268353E-1,5.346164227E0,1.019103146E1
1.915389908E0,-8.662018180E-1,4.303491592E0,8.449056625E0
1.917626786E0,-1.338784218E0,2.912065268E0,6.935596466E0
1.919863785E0,-1.694118381E0,2.055434704E0,6.104090691E0
1.922100907E0,-2.380260229E0,1.904686809E0,5.902495384E0
1.924338516E0,-3.090928555E0,1.932802439E0,6.186643124E0
1.926576065E0,-3.203989506E0,2.017747641E0,6.738786697E0
1.928812698E0,-2.318645239E0,2.575873613E0,7.246663570E0
1.931050370E0,-1.114457130E0,3.555734396E0,7.618149281E0
1.933285965E0,-3.601198196E-1,4.133601189E0,8.353941917E0
1.935523026E0,-2.392822644E-3,4.033102512E0,1.019820976E1
1.937760025E0,-1.100698411E-1,3.648456335E0,1.286321640E1
1.939997147E0,-8.273184299E-1,3.389433384E0,1.523629856E1
1.942234573E0,-1.853241086E0,3.412763357E0,1.657627869E1
1.944472428E0,-2.187638044E0,3.762713671E0,1.648236084E1
1.946706253E0,-1.383649707E0,4.324428558E0,1.459083462E1
1.948937760E0,-1.094716340E-1,4.766502857E0,1.119242764E1
1.951181656E0,8.249256015E-1,4.755734921E0,7.529016495E0
1.953419327E0,8.153542876E-1,4.299902439E0,4.859822750E0
1.955658158E0,-2.171486616E-1,3.607778311E0,3.916452408E0
1.957893204E0,-2.093121529E0,2.867199659E0,4.673182487E0
1.960130509E0,-3.884747505E0,2.254039049E0,6.584449768E0
1.962368485E0,-4.802394867E0,1.817947030E0,8.550751686E0
1.964604630E0,-4.050450325E0,2.012363911E0,9.558728218E0
1.966842423E0,-1.681556106E0,3.091526747E0,9.382855415E0
1.969078141E0,8.488538265E-1,4.338785648E0,8.565108299E0
1.971315262E0,2.145763636E0,5.098506927E0,7.693522930E0
1.973552018E0,1.884945989E0,5.004588604E0,7.180860519E0
1.975789139E0,3.146561682E-1,3.822534084E0,7.325626373E0
1.978026871E0,-1.892124534E0,2.039283037E0,8.071588516E0
1.980265030E0,-3.554538012E0,5.443671346E-1,8.926424980E0
1.982500870E0,-3.947559118E0,-2.602194548E-1,9.367900848E0
1.984738358E0,-2.917448997E0,5.443671346E-2,9.324232101E0
1.986970841E0,-9.589236975E-1,1.466202021E0,8.982057571E0
1.989197464E0,4.612165689E-1,3.072384357E0,8.582456589E0
1.991443924E0,1.015753269E0,4.623531342E0,8.589634895E0
1.993685440E0,1.191625714E0,6.319444656E0,9.403793335E0
1.995926163E0,4.301098585E-1,7.051050186E0,1.073061275E1
1.998158524E0,-9.834501147E-1,6.273981094E0,1.174935722E1
2.000384659E0,-2.090130568E0,4.630710125E0,1.174636650E1
2.002634781E0,-1.784447432E0,3.269193888E0,1.060259724E1
2.004871109E0,-7.842476368E-1,2.568695068E0,8.848658562E0
2.007110306E0,-4.857429862E-1,2.438286304E0,7.234699249E0
2.009341324E0,-6.759724021E-1,2.775076151E0,6.455237389E0
2.011569413E0,-1.039083242E0,3.281756163E0,6.646663189E0
2.013818741E0,-1.086939692E0,3.535395384E0,7.713861942E0
2.016056473E0,-9.816554785E-1,3.306880951E0,9.107681274E0
2.018295792E0,-7.782655358E-1,2.781656265E0,1.035972595E1
2.020530655E0,-9.415757060E-1,2.215753794E0,1.113200951E1
2.022766434E0,-1.460818172E0,2.279163599E0,1.148913765E1
2.025003434E0,-1.999801517E0,3.218944550E0,1.174995518E1
2.027241471E0,-2.815753937E0,4.196412563E0,1.189771271E1
2.029483231E0,-3.077768087E0,4.946562767E0,1.182772255E1
2.031714920E0,-2.077568293E0,5.216353416E0,1.127378368E1
2.033952591E0,-4.265206456E-1,4.663012981E0,9.878170013E0
2.036187637E0,1.152144074E0,3.877569199E0,8.148757935E0
2.038426529E0,2.047657967E0,3.572484255E0,7.055835724E0
2.040662186E0,1.613360643E0,3.727419376E0,7.080362320E0
2.042899430E0,-1.525424421E-1,3.687339783E0,8.008178711E0
2.045136246E0,-2.541775942E0,3.101098061E0,9.150752068E0
2.047373429E0,-3.894318819E0,2.132004976E0,9.998409271E0
2.049610977E0,-3.704687595E0,1.242473125E0,1.044048309E1
2.051848709E0,-2.163709879E0,1.208973646E0,1.057866859E1
2.054084854E0,5.982056633E-2,2.514258385E0,1.052064323E1
2.056322586E0,1.744965911E0,4.255635262E0,1.016590691E1
2.058558426E0,2.117049932E0,5.429314613E0,9.542576790E0
2.060795792E0,1.215553880E0,5.775675774E0,9.004191399E0
2.063032547E0,-4.576273263E-1,5.413163185E0,9.099306107E0
2.065269608E0,-2.485544443E0,4.345366001E0,9.731011391E0
2.067506973E0,-4.138386726E0,2.584248543E0,1.017188931E1
2.069741898E0,-4.036691666E0,1.225723386E0,9.979865074E0
2.071968887E0,-2.069193363E0,1.272383451E0,9.044271469E0
2.074218888E0,3.355933726E-1,2.245664120E0,7.858029366E0
2.076454606E0,1.687538147E0,3.347558975E0,7.281957626E0
2.078694718E0,1.624726534E0,4.489533424E0,7.646862984E0
2.080928238E0,4.731806815E-1,5.257629395E0,8.693124771E0
2.083165543E0,-1.583450437E0,4.861617565E0,9.962516785E0
2.085402908E0,-3.176471949E0,3.765106440E0,1.128036404E1
2.087640824E0,-3.395415306E0,2.754737139E0,1.222911835E1
2.089877396E0,-2.203789711E0,1.961516380E0,1.221236897E1
2.092115128E0,-2.045863420E-1,1.822134495E0,1.114875889E1
2.094350663E0,1.502692580E0,2.840280533E0,9.784252167E0
2.096587662E0,2.107478619E0,4.362115860E0,8.738588333E0
2.098824479E0,1.153340459E0,5.349753380E0,8.241478920E0
2.101061844E0,-7.339983582E-1,5.354538918E0,8.200202942E0
2.103299210E0,-2.127817631E0,4.570291042E0,8.556135178E0
2.105537003E0,-2.554338217E0,2.969492912E0,8.654839516E0
2.107773331E0,-2.310868502E0,1.204786181E0,7.968697548E0
2.110011063E0,-1.330409408E0,4.396811724E-1,6.839285374E0
2.112246659E0,-9.690931439E-2,6.436693072E-1,6.263811588E0
2.114480972E0,4.127618968E-1,1.317847013E0,6.711269379E0
2.116708756E0,-2.267199457E-1,2.455634356E0,7.809575081E0
2.118957840E0,-1.319043517E0,3.752544165E0,8.984451294E0
2.121195145E0,-1.673181176E0,4.742574692E0,1.014796066E1
2.123435868E0,-1.421336651E0,5.102694511E0,1.104168034E1
2.125669022E0,-1.038485050E0,4.818546772E0,1.125045395E1
2.127906876E0,-3.020938635E-1,4.479363918E0,1.077129078E1
2.130142960E0,6.137589812E-1,4.360321045E0,9.835697174E0
2.132380265E0,1.082752228E0,3.883551121E0,9.059226990E0
2.134613907E0,8.997012973E-1,3.209971666E0,8.519644737E0
2.136839432E0,-1.046859920E-1,2.787040234E0,8.129614830E0
2.139076675E0,-1.351346612E0,2.807977438E0,7.688737392E0
2.141314346E0,-2.146960020E0,3.138186932E0,7.189833641E0
2.143556778E0,-2.833700180E0,3.413959742E0,6.653841496E0
2.145806229E0,-3.145365477E0,3.521038532E0,6.297909260E0
2.148039139E0,-2.574079037E0,3.391826153E0,6.518048763E0
2.150268082E0,-1.332203984E0,2.980858803E0,7.417151928E0
2.152509781E0,-1.136590764E-1,2.516052961E0,8.797810555E0
2.154735551E0,5.653043389E-1,2.292324066E0,1.037767220E1
2.156978959E0,7.956135273E-1,2.864208698E0,1.201436234E1
2.159225479E0,4.121637046E-1,4.231706619E0,1.331964684E1
2.161464493E0,-6.191428304E-1,5.340780258E0,1.368036556E1
2.163702103E0,-1.636690736E0,5.365306377E0,1.276032448E1
2.165934769E0,-2.033899307E0,4.385445595E0,1.091306591E1
2.168169023E0,-1.470987678E0,3.176471949E0,8.993423462E0
2.170394303E0,-5.665007830E-1,2.083550215E0,7.682755470E0
2.172631424E0,-3.559323549E-1,1.356730461E0,7.023532867E0
2.174871658E0,-5.575276613E-1,1.547558069E0,6.787839413E0
2.177123856E0,-1.018744230E0,2.697907448E0,6.667002201E0
2.179360550E0,-1.811366796E0,3.848257065E0,6.614958286E0
2.181598527E0,-2.408974171E0,4.392025948E0,6.827919483E0
2.183831192E0,-2.426322222E0,4.169493675E0,7.429116249E0
2.186068192E0,-1.850848317E0,3.338585854E0,8.274978638E0
2.188301956E0,-9.912267923E-1,2.595016241E0,9.075378418E0
2.190530289E0,1.136590764E-1,2.531606436E0,9.753145218E0
2.192776383E0,6.861419082E-1,2.974876642E0,1.031067276E1
2.195005204E0,6.951149702E-1,3.833301783E0,1.072941685E1
2.197256485E0,9.152546525E-2,4.512265205E0,1.070369434E1
2.199491410E0,-8.015955687E-1,4.743771076E0,1.016052341E1
2.201730363E0,-1.438684583E0,4.590032101E0,9.268000603E0
2.203964188E0,-1.730010748E0,3.942773581E0,8.627920151E0
2.206201004E0,-1.614557028E0,2.870190859E0,8.425726891E0
2.208438248E0,-9.427721500E-1,1.928016901E0,8.371290207E0
2.210675614E0,-1.381855011E-1,1.792224169E0,8.173882484E0
2.212913224E0,2.482553422E-1,2.246262312E0,8.005187988E0
2.215149735E0,5.802594870E-2,2.712862730E0,8.050053596E0
2.217387284E0,-3.924229145E-1,3.224926710E0,8.426324844E0
2.219623124E0,-1.024726272E0,3.806382656E0,8.853444099E0
2.221860184E0,-1.331007600E0,3.963112593E0,9.074779510E0
2.224097245E0,-1.210170031E0,3.301496983E0,8.952746391E0
2.226334366E0,-5.485545993E-1,2.800798893E0,8.559126854E0
2.228571976E0,-1.435693540E-2,3.105285645E0,8.210970879E0
2.230809708E0,-1.890329868E-1,3.285345554E0,8.204390526E0
2.233046036E0,-6.801598072E-1,2.998805046E0,8.581858635E0
2.235282181E0,-7.004988194E-1,2.834298372E0,9.072985649E0
2.237513932E0,-4.061816335E-1,2.875574589E0,9.490532875E0
2.239756363E0,-2.757728100E-1,2.800200701E0,9.811170578E0
2.241993180E0,-4.091726840E-1,2.653042078E0,1.006301594E1
2.244231583E0,-1.884347796E-1,3.065205812E0,1.020239735E1
2.246467667E0,-1.489532143E-1,3.640081406E0,9.863214493E0
2.248705643E0,-3.409772217E-1,3.852444410E0,9.069993973E0
2.250941849E0,-1.561316848E-1,3.944568157E0,8.265407562E0
2.253179825E0,1.076770201E-2,3.467200041E0,7.547560692E0
2.255415299E0,-1.932204217E-1,2.517249346E0,6.774679184E0
2.257652420E0,-5.940182209E-1,1.631905079E0,6.166902065E0
2.259889176E0,-9.870393276E-1,1.327418327E0,6.168696880E0
2.262123489E0,-9.726824164E-1,2.187638044E0,7.183253765E0
2.264351700E0,-1.019342422E0,3.448655605E0,8.687741280E0
2.266601700E0,-7.645068169E-1,4.075575352E0,9.756733894E0
2.268838089E0,2.075773627E-1,4.198207378E0,1.002772141E1
2.271079056E0,1.225723386E0,4.278964996E0,9.860821724E0
2.273311295E0,1.248455167E0,4.149752617E0,9.808777809E0
2.275548416E0,-2.159522474E-1,3.358326674E0,9.944570541E0
2.277785355E0,-1.812563181E0,2.783450842E0,1.025982571E1
2.280023942E0,-2.299502611E0,2.976671457E0,1.039801121E1
2.282262711E0,-2.188236237E0,2.724228621E0,9.817750931E0
2.284486344E0,-1.570289850E0,1.989632010E0,8.465806961E0
2.286733780E0,-3.403790295E-1,1.890928149E0,7.222734928E0
2.288970413E0,6.065805554E-1,2.618944407E0,6.972685337E0
2.291210404E0,3.499503136E-1,3.117249727E0,7.632505894E0
2.293444718E0,-6.658028960E-1,3.366701365E0,8.719446182E0
2.295681412E0,-1.282552958E0,4.134797573E0,9.942776680E0
2.297918534E0,-1.336989641E0,4.896313190E0,1.090409279E1
2.300156082E0,-1.496710539E0,4.539184570E0,1.110389328E1
2.302393631E0,-1.265205026E0,3.615555048E0,1.043031406E1
2.304630020E0,-2.877369225E-1,3.414557934E0,9.414560318E0
2.306867813E0,4.983053207E-1,3.626920938E0,8.601000786E0
2.309103897E0,2.231307179E-1,3.317050457E0,8.289336205E0
2.311340958E0,-5.862415433E-1,2.754737139E0,8.401798248E0
2.313577713E0,-1.095912814E0,2.808575630E0,8.711668968E0
2.315814713E0,-1.416550994E0,3.271586657E0,8.932407379E0
2.318047806E0,-1.534397483E0,3.331407309E0,8.769096375E0
2.320272721E0,-1.042074203E0,3.283550978E0,8.277371407E0
2.322526016E0,-2.685943544E-1,3.230908871E0,7.855636597E0
2.324763993E0,-4.366901144E-2,2.873181820E0,7.891529083E0
2.327003860E0,-8.973085321E-3,2.573480844E0,8.407182693E0
2.329233902E0,-4.486542344E-1,2.753540754E0,9.161520004E0
2.331461441E0,-1.094716311E0,3.199802160E0,9.922437668E0
2.333710770E0,-1.514656782E0,3.355933666E0,1.056191921E1
2.335948074E0,-1.433300734E0,3.095714331E0,1.070130062E1
2.338185990E0,-1.110269666E0,2.968894720E0,1.022273636E1
2.340410477E0,-8.333004713E-1,3.083750248E0,9.361918449E0
2.342659745E0,-3.708875179E-1,3.341576815E0,8.941379547E0
2.344895524E0,7.956135273E-2,3.534198999E0,9.236295700E0
2.347135575E0,1.854437590E-2,3.891926050E0,9.707083702E0
2.349366837E0,-2.961117923E-1,4.355535507E0,9.760921478E0
2.351595291E0,-5.407779217E-1,4.447061062E0,9.381659508E0
2.353844254E0,-6.777670383E-1,3.628715515E0,8.900103569E0
2.356082352E0,-5.778666735E-1,2.485544443E0,8.659625053E0
2.358320512E0,-6.807580590E-1,1.692323804E0,8.755337715E0
2.360553543E0,-8.147560954E-1,1.601994753E0,9.131011009E0
2.362791520E0,-7.938188910E-1,2.268994093E0,9.516255379E0
2.365029190E0,-9.194421172E-1,3.212962627E0,9.561718941E0
2.367266556E0,-7.286145091E-1,4.283152580E0,9.199206352E0
2.369503067E0,-3.930211067E-1,4.908277512E0,8.514261246E0
2.371740311E0,-4.067798555E-1,4.500899315E0,7.694719315E0
2.373978104E0,-6.137589812E-1,3.544966698E0,7.260422230E0
2.376214432E0,-9.487541914E-1,2.462214470E0,7.692924976E0
2.378451920E0,-1.075573802E0,1.740180254E0,9.066405296E0
2.380687577E0,-8.171489239E-1,1.604387641E0,1.065224838E1
2.382925064E0,-1.944168359E-1,2.144567251E0,1.169671535E1
2.385161698E0,6.059823632E-1,3.260220766E0,1.183071327E1
2.387399124E0,1.007976532E0,4.467400074E0,1.111705399E1
2.389636551E0,6.131607890E-1,5.142774105E0,1.015394306E1
2.391874161E0,-1.806581169E-1,5.172684193E0,9.431310654E0
2.394110489E0,-1.010967612E0,4.465605259E0,8.904889107E0
2.396348221E0,-1.561316729E0,3.119642496E0,8.158329010E0
2.398584061E0,-1.433300734E0,1.859223247E0,7.265207767E0
2.400821121E0,-1.009771109E0,1.372882009E0,6.726224422E0
2.403056778E0,-6.424728632E-1,1.629512191E0,6.824928284E0
2.405290543E0,-5.712863803E-1,2.181057930E0,7.320242882E0
2.407532303E0,-6.993024349E-1,2.705085993E0,8.071588516E0
2.409770096E0,-3.110669553E-1,3.541377544E0,8.989236832E0
2.412007584E0,6.939185411E-2,4.233501434E0,1.001216793E1
2.414244278E0,-5.563312769E-2,4.317848682E0,1.085025406E1
2.416480057E0,-3.074777126E-1,4.334000111E0,1.118644619E1
2.418717179E0,-6.269195080E-1,4.306482315E0,1.093101215E1
2.420954117E0,-8.386843204E-1,4.183850288E0,1.026640511E1
2.423190995E0,-8.997012973E-1,3.972683907E0,9.698708534E0
2.425428604E0,-7.746763229E-1,3.527020693E0,9.414560318E0
2.427666336E0,-3.780659735E-1,2.986840963E0,9.151947975E0
2.429902725E0,5.204389244E-2,2.638685226E0,8.646464348E0
2.432140274E0,5.982056633E-2,2.644667149E0,8.288737297E0
2.434376297E0,-2.614158690E-1,3.036491871E0,8.456833839E0
2.436613358E0,-1.165902853E0,3.377469063E0,8.934201241E0
2.438850174E0,-1.742573142E0,3.342773199E0,9.110074043E0
2.441087235E0,-1.256830096E0,3.308077335E0,8.833105087E0
2.443324783E0,-3.852444589E-1,3.382853031E0,8.359326363E0
2.445558609E0,-2.087737769E-1,3.491726398E0,8.098507881E0
2.447783829E0,-1.006780148E0,3.501895905E0,8.434700012E0
2.450036454E0,-1.910070658E0,3.501297712E0,9.375677109E0
2.452272294E0,-1.439282775E0,3.947559118E0,1.059482002E1
2.454513077E0,-2.787638307E-1,4.357329845E0,1.121994495E1
2.456746170E0,7.579265833E-1,4.162913322E0,1.065763187E1
2.458983414E0,1.559522152E0,3.620938778E0,9.478569031E0
2.461220657E0,1.534995675E0,3.066402197E0,8.554341316E0
2.463458817E0,4.133601189E-1,2.788834810E0,8.100900650E0
2.465694657E0,-1.804188251E0,2.388036966E0,7.899903774E0
2.467932511E0,-3.548556089E0,1.984248161E0,7.822735310E0
2.470168229E0,-3.365504980E0,2.115255117E0,7.919644833E0
2.472405655E0,-2.145763636E0,2.302493572E0,7.901698589E0
2.474642411E0,-1.099501967E0,2.287538528E0,7.649255753E0
2.476879471E0,-2.530409992E-1,2.901297569E0,7.737192154E0
2.479116776E0,4.283152521E-1,4.257429600E0,8.904291153E0
2.481354569E0,4.953143001E-1,5.318646431E0,1.079641533E1
2.483590897E0,-2.213360965E-1,5.571089268E0,1.228176022E1
2.485825455E0,-6.137589812E-1,5.450850010E0,1.260718441E1
2.488048050E0,-8.374879509E-2,4.868197441E0,1.176909828E1
2.490284500E0,5.000999570E-1,3.671188116E0,1.024606609E1
2.492538407E0,5.665007830E-1,2.142772675E0,8.718847275E0
2.494778519E0,1.854437590E-1,1.029511929E0,7.629515171E0
2.497017350E0,-3.278166950E-1,1.073180914E0,7.234101295E0
2.499250870E0,-1.453041553E0,1.859223247E0,7.327421188E0
2.501487137E0,-2.523829699E0,2.835494757E0,7.601997375E0
2.503724381E0,-2.541775942E0,4.058825493E0,7.890332699E0
2.505960160E0,-1.302891970E0,5.100301266E0,8.204988480E0
2.508194290E0,-8.733802289E-2,5.066802025E0,8.335397720E0
2.510422501E0,2.961117923E-1,4.085146427E0,8.345566750E0
2.512671768E0,5.665007830E-1,3.491128206E0,8.778069496E0
2.514909195E0,2.871387303E-1,3.260818958E0,9.758528709E0
2.517150040E0,-6.017948985E-1,2.638087034E0,1.078146076E1
2.519382950E0,-1.018744230E0,2.221137524E0,1.124088287E1
2.521620926E0,-6.299105883E-1,2.394617319E0,1.081974602E1
2.523856400E0,1.339980662E-1,2.971287489E0,9.819545746E0
2.526090530E0,3.493520916E-1,3.360719442E0,8.705088615E0
2.528315140E0,4.295116663E-1,3.497110367E0,7.942376614E0
2.530555741E0,1.232303679E-1,3.675375462E0,7.634300709E0
2.532805069E0,-1.311266780E0,3.549154282E0,7.630711555E0
2.535045914E0,-2.261815548E0,3.340978622E0,8.099106789E0
2.537282181E0,-2.166700840E0,3.326621771E0,8.753543854E0
2.539516983E0,-1.913061738E0,3.369692564E0,8.927620888E0
2.541752701E0,-1.331605792E0,3.357728481E0,8.656036377E0
2.543989579E0,-5.030909777E-1,3.117249727E0,8.273183823E0
2.546226578E0,1.148554832E-1,3.103491068E0,8.274380684E0
2.548463700E0,5.587241054E-1,3.814159393E0,9.183054924E0
2.550701309E0,6.580262184E-1,4.287938118E0,1.078026390E1
2.552938797E0,5.485545993E-1,3.987638950E0,1.192941761E1
2.555175186E0,4.271188378E-1,3.784249067E0,1.178524971E1
2.557412918E0,2.027917206E-1,3.832105398E0,1.054337502E1
2.559648758E0,-2.135594189E-1,3.509672642E0,9.285946846E0
2.561885819E0,-1.134796143E0,2.977269650E0,8.553742409E0
2.564122574E0,-1.994417667E0,2.586043119E0,8.065009117E0
2.566359696E0,-2.187638044E0,2.194816589E0,7.567899704E0
2.568597305E0,-1.442872047E0,2.170290232E0,7.259823799E0
2.570835038E0,-6.323033571E-1,2.726023197E0,7.529016495E0
2.573071182E0,1.142572835E-1,3.437887907E0,8.301898003E0
2.575308975E0,4.947160780E-1,3.667598963E0,9.111269951E0
2.577544938E0,6.317051649E-1,3.796811342E0,9.617352486E0
2.579781876E0,4.271188378E-1,4.018745422E0,9.820143700E0
2.582018876E0,-4.570291340E-1,3.936193228E0,9.955338478E0
2.584255814E0,-1.286740422E0,3.660420418E0,1.023470020E1
2.586493057E0,-1.668395638E0,3.267399311E0,1.051286602E1
2.588731034E0,-1.409372568E0,2.801397085E0,1.022512913E1
2.590967423E0,-7.776673436E-1,2.595016241E0,9.344570160E0
2.593205216E0,-1.220339537E-1,3.125026464E0,8.529216766E0
2.595440751E0,5.282155871E-1,4.056432724E0,8.614759445E0
2.597678116E0,7.818548083E-1,4.597808838E0,9.608379364E0
2.599915055E0,6.053841114E-1,4.462016106E0,1.051765156E1
2.602151993E0,2.913261652E-1,3.843471289E0,1.086879826E1
2.604389481E0,-1.555334684E-2,3.131008387E0,1.086221886E1
2.606626969E0,-1.531406492E-1,2.927020311E0,1.087537861E1
2.608863419E0,-2.087737769E-1,3.173480988E0,1.051705360E1
2.611101151E0,-1.920240223E-1,3.251846075E0,9.172286987E0
2.613334061E0,1.154536903E-1,2.893520832E0,7.158727169E0
2.615559280E0,6.795616150E-1,2.270788670E0,5.577071190E0
2.617798661E0,4.534398913E-1,1.965703845E0,5.132006168E0
2.620048172E0,-9.433703423E-1,2.236092806E0,5.967699528E0
2.622288407E0,-2.612364054E0,2.835494757E0,7.915457249E0
2.624526139E0,-3.058027267E0,3.386442184E0,1.009950638E1
2.626759598E0,-1.549950838E0,3.984049797E0,1.137607670E1
2.628997147E0,5.826523304E-1,4.381856441E0,1.137547874E1
2.631233048E0,1.977667928E0,4.133601189E0,1.086939716E1
2.633470291E0,2.612364054E0,3.683750391E0,1.092323494E1
2.635707108E0,2.490330219E0,3.778865099E0,1.140359497E1
2.637944229E0,8.709874153E-1,3.798605919E0,1.144128132E1
2.640181778E0,-1.246062398E0,3.442075491E0,1.075035381E1
2.642416703E0,-1.869392633E0,2.787638426E0,9.558130264E0
2.644644364E0,-1.173081279E0,2.000399828E0,7.925626755E0
2.646893143E0,-4.067798555E-1,1.582253933E0,6.016154289E0
2.649129166E0,-2.518445849E-1,1.700698733E0,4.811367989E0
2.651366105E0,-4.737788737E-1,2.566900492E0,5.337191105E0
2.653588211E0,-7.651050687E-1,4.134199142E0,7.477570534E0
2.655825455E0,-1.356132269E0,5.270191669E0,9.806983948E0
2.658062332E0,-1.274776220E0,4.975874901E0,1.105723381E1
2.660304642E0,3.696911037E-1,3.840480328E0,1.130309582E1
2.662554886E0,2.528017044E0,2.895315409E0,1.109551907E1
2.664792557E0,3.232105255E0,2.435893536E0,1.090289593E1
2.667028397E0,2.194218397E0,2.551945448E0,1.088315582E1
2.669259232E0,9.409775138E-1,3.393620729E0,1.095613670E1
2.671484146E0,-3.852444589E-1,3.950550079E0,1.061396313E1
2.673723954E0,-2.022533417E0,3.582653761E0,9.779465675E0
2.675970596E0,-2.889333248E0,3.174079180E0,8.971290588E0
2.678211624E0,-2.354537487E0,3.220141172E0,8.704490662E0
2.680439164E0,-1.002592683E0,3.275774240E0,8.716454506E0
2.682686662E0,4.450650215E-1,3.627519131E0,8.619544983E0
2.684921158E0,1.581057549E0,4.223331928E0,8.419146538E0
2.687161210E0,1.957328916E0,4.451846600E0,8.503493309E0
2.689392227E0,1.392622828E0,4.070789337E0,8.980263710E0
2.691617447E0,1.034895778E-1,3.516851187E0,9.803992271E0
2.693857803E0,-1.035493970E0,3.004188776E0,1.053320503E1
2.696107498E0,-1.462612867E0,2.350350142E0,1.062592697E1
2.698346878E0,-1.102493048E0,2.042274237E0,9.990633011E0
2.700584611E0,-9.870393574E-2,2.380858421E0,9.055637360E0
2.702817154E0,5.796613097E-1,2.770888567E0,8.264809608E0
2.705054276E0,7.100701332E-1,3.344567776E0,7.892725468E0
2.707291336E0,3.014956415E-1,4.038486481E0,8.121838570E0
2.709528702E0,-3.607180119E-1,4.643272400E0,8.777471542E0
2.711766068E0,-1.010369420E0,4.448855400E0,9.415757179E0
2.714003739E0,-1.013360381E0,3.692723513E0,9.631111145E0
2.716239823E0,-4.241278172E-1,2.990430117E0,9.528220177E0
2.718477555E0,2.602194548E-1,2.833101988E0,9.324830055E0
2.720713089E0,8.356932998E-1,3.503690481E0,9.285946846E0
2.722950272E0,9.002995491E-1,4.127619267E0,9.533603668E0
2.725187333E0,9.481559992E-1,3.996013880E0,9.906285286E0
2.727424698E0,8.817551732E-1,3.078366280E0,9.988240242E0
2.729662064E0,2.901297510E-1,2.004587173E0,9.493523598E0
2.731899796E0,-5.952146053E-1,1.408176184E0,8.933005333E0
2.734133073E0,-1.212562919E0,1.743171334E0,8.817551613E0
2.736361649E0,-1.785045743E0,2.702693224E0,9.091529846E0
2.738609452E0,-1.778465390E0,4.020540237E0,9.399605751E0
2.740846756E0,-8.362914920E-1,4.910071850E0,9.440283775E0
2.743086564E0,1.405783296E-1,4.800600529E0,9.291928291E0
2.745320694E0,5.018945336E-1,4.004986763E0,9.439684868E0
2.747558243E0,4.630111754E-1,3.187838078E0,1.041356373E1
2.749795914E0,2.943171859E-1,2.920439959E0,1.188096237E1
2.752031815E0,3.349951655E-2,3.340380430E0,1.292722416E1
2.754269547E0,1.214357466E-1,4.089931965E0,1.283091354E1
2.756505387E0,1.044467092E0,4.470989227E0,1.133240795E1
2.758742752E0,1.765903115E0,4.149752617E0,9.202795982E0
2.760979325E0,1.712662816E0,3.594019651E0,7.596613884E0
2.763216629E0,8.967102766E-1,3.145365477E0,7.012764931E0
2.765453934E0,-5.335994363E-1,2.617149830E0,6.986443996E0
2.767691788E0,-1.989033818E0,2.131406784E0,7.188039303E0
2.769928116E0,-2.640479803E0,1.996212244E0,7.526025295E0
2.772165909E0,-2.045265198E0,2.295913219E0,7.907680511E0
2.774401688E0,-6.454638839E-1,2.757129908E0,8.053044319E0
2.776638748E0,1.136590719E0,3.107678413E0,8.116454124E0
2.778872574E0,2.592025042E0,3.346362352E0,8.639883995E0
2.781100846E0,2.621337175E0,3.095714331E0,9.918250084E0
2.783349991E0,1.317847013E0,2.624328136E0,1.154297638E1
2.785588028E0,-2.344966233E-1,2.660818815E0,1.286381435E1
2.787827286E0,-1.007976532E0,3.397808075E0,1.320838070E1
2.790061905E0,-1.218544960E0,3.778865099E0,1.211366463E1
2.792297623E0,-5.706881881E-1,3.783650875E0,1.011685371E1
2.794534745E0,5.024927258E-1,3.710071564E0,8.195417404E0
2.796771805E0,7.722834945E-1,3.223730326E0,7.077969551E0
2.799008866E0,2.997010350E-1,2.656631231E0,7.098906517E0
2.801246231E0,-8.494520187E-2,2.763111830E0,8.044071198E0
2.803484024E0,-3.104687333E-1,3.119044304E0,9.328418732E0
2.805720535E0,-5.844469070E-1,3.510869026E0,1.016471100E1
2.807954910E0,-6.358926296E-1,4.319643021E0,1.023948669E1
2.810179031E0,-3.415754437E-1,4.848456860E0,9.754940033E0
2.812416276E0,3.403790295E-1,4.158725739E0,8.874979019E0
2.814653153E0,1.158126116E0,2.916850805E0,8.021938324E0
2.816893143E0,1.785045743E0,2.363510609E0,7.741977692E0
2.819133439E0,1.408176184E0,2.169692039E0,8.397012711E0
2.821383134E0,2.201396823E-1,1.804786444E0,9.483354568E0
2.823619217E0,-8.033902049E-1,1.969292998E0,1.020837975E1
2.825856888E0,-1.104885817E0,2.553740025E0,9.980463028E0
2.828088822E0,-1.329811215E0,2.672184706E0,8.991030693E0
2.830321854E0,-1.256231904E0,2.440080881E0,8.343772888E0
2.832563858E0,-7.178468108E-1,2.769093990E0,8.753543854E0
2.834801041E0,-2.685943544E-1,3.297907829E0,9.815358162E0
2.837039750E0,-3.690928817E-1,3.476173162E0,1.072941685E1
2.839276261E0,4.187439568E-3,3.750151396E0,1.132881927E1
2.841512589E0,6.460621357E-1,3.882952929E0,1.155374432E1
2.843750321E0,6.041877270E-1,3.573082447E0,1.146760273E1
2.845985917E0,3.960121572E-1,3.573082447E0,1.107039356E1
2.848220230E0,1.316052526E-1,3.776472330E0,1.039980507E1
2.850448014E0,-1.363908947E-1,3.650849104E0,9.506086349E0
2.852697159E0,-3.164508045E-1,3.375674486E0,8.722436905E0
2.854934708E0,-1.100698411E-1,3.187838078E0,8.352746010E0
2.857172379E0,-4.666004330E-2,2.721237659E0,8.616554260E0
2.859393388E0,-1.280160099E-1,2.451446772E0,9.312267303E0
2.861634293E0,-3.308077157E-1,2.766701221E0,1.008275604E1
2.863881852E0,-3.122633696E-1,2.936591625E0,1.048774147E1
2.866122269E0,2.333002165E-2,2.601596355E0,1.044347477E1
2.868359025E0,6.346961856E-1,2.288136721E0,1.005882835E1
2.870593399E0,9.224331379E-1,2.358126640E0,9.555737495E0
2.872830643E0,4.827519655E-1,2.628515720E0,9.336793900E0
2.875068253E0,-3.379862010E-1,3.084348440E0,9.695717812E0
2.877304764E0,-8.309076428E-1,3.551547050E0,1.048176003E1
2.879542313E0,-7.118647099E-1,3.598805189E0,1.127916813E1
2.881778153E0,-2.811566554E-2,3.257229805E0,1.148614693E1
2.884015152E0,7.603194118E-1,3.166302681E0,1.097886848E1
2.886252030E0,1.123430252E0,3.389433384E0,1.026161957E1
2.888489334E0,8.524430394E-1,3.634697676E0,9.853643417E0
2.890726700E0,2.458625287E-1,3.834498405E0,9.942776680E0
2.892964493E0,-2.081755698E-1,3.710669756E0,1.020598698E1
2.895200760E0,-3.308077157E-1,3.209971666E0,1.027717304E1
2.897438309E0,-2.051845491E-1,2.530410051E0,1.008395290E1
2.899674210E0,3.553341627E-1,2.322832584E0,9.717850685E0
2.901911698E0,7.782655358E-1,2.523829699E0,9.349356651E0
2.904148331E0,4.582255483E-1,2.740380049E0,9.021539688E0
2.906385575E0,2.153540403E-2,2.996412039E0,8.959924698E0
2.908622635E0,-6.759724021E-2,3.141177893E0,8.973084450E0
2.910860672E0,-3.625126183E-1,2.778665304E0,8.647063255E0
2.913096756E0,-6.364908218E-1,2.106282234E0,8.149953842E0
2.915334549E0,-4.510470629E-1,1.461416483E0,8.381459236E0
2.917570023E0,1.304088384E-1,1.146760225E0,9.374481201E0
2.919807205E0,6.586244106E-1,1.515254974E0,1.052303600E1
2.922044266E0,7.561319470E-1,2.356930256E0,1.119003487E1
2.924281571E0,8.386843204E-1,3.135195971E0,1.131326580E1
2.926518815E0,1.088734269E0,3.815355778E0,1.120977592E1
2.928756913E0,9.774680734E-1,4.229912281E0,1.087896824E1
2.930992813E0,3.254238665E-1,3.841676712E0,1.019641590E1
2.933230850E0,-2.315055877E-1,2.931207657E0,9.343972206E0
2.935466263E0,-2.261217386E-1,2.255833626E0,8.582456589E0
2.937703507E0,-1.375873089E-1,1.650449395E0,7.840083599E0
2.939940445E0,-2.584248483E-1,1.253839016E0,7.224529743E0
2.942177567E0,-0.000000000E0,1.499103427E0,7.107281685E0
2.944414871E0,3.780659735E-1,1.989033818E0,7.472784996E0
2.946649307E0,1.423729509E-1,2.162513494E0,7.865806103E0
2.948876602E0,9.511470050E-2,2.448455811E0,8.308478355E0
2.951126786E0,3.284149170E-1,2.742773056E0,9.025128365E0
2.953362381E0,4.319044948E-1,2.807977438E0,9.984650612E0
2.955602555E0,-3.050848842E-2,2.776870728E0,1.089093208E1
2.957836441E0,-1.016949639E-1,3.153141975E0,1.151426220E1
2.960073563E0,3.122633696E-1,3.366103172E0,1.162313557E1
2.962310989E0,3.511467278E-1,2.799004316E0,1.114277649E1
2.964548905E0,3.625126183E-1,2.318047047E0,1.061874866E1
2.966785050E0,4.689932466E-1,2.251047850E0,1.033878803E1
2.969022843E0,-3.110669367E-2,2.425724030E0,1.034836006E1
2.971258561E0,-5.252245665E-1,2.871985435E0,1.060020447E1
2.973495682E0,-4.384847581E-1,3.022733212E0,1.085384369E1
2.975732499E0,-5.204389244E-2,2.849851847E0,1.072403336E1
2.977969803E0,7.136593461E-1,3.180061340E0,1.024427223E1
2.980207108E0,1.020538807E0,3.480360508E0,9.512067795E0
2.982442826E0,4.600201547E-1,3.142972469E0,8.892327309E0
2.984673660E0,-2.117647976E-1,2.708675146E0,8.872586250E0
2.986918778E0,-6.777670383E-1,2.130210400E0,9.174679756E0
2.989151810E0,-1.197009563E0,1.363310695E0,9.195018768E0
2.991382340E0,-1.287936807E0,8.877372146E-1,8.908478737E0
2.993628739E0,-4.145565331E-1,1.219741344E0,8.749356270E0
2.995865860E0,7.411768436E-1,2.264208317E0,8.696115494E0
2.998103226E0,7.531409264E-1,3.303291559E0,8.493922234E0
3.000328995E0,-2.231307179E-1,3.681357622E0,8.427521706E0
3.002576737E0,-1.199402332E0,3.363710403E0,8.924630165E0
3.004811844E0,-1.481755376E0,2.621935368E0,9.962516785E0
3.007053849E0,-9.684949517E-1,1.887338877E0,1.092203903E1
3.009284866E0,3.044866920E-1,1.579861164E0,1.113918781E1
3.011513565E0,1.792224169E0,1.756331801E0,1.059960651E1
3.013761978E0,2.291725874E0,2.072782516E0,9.788438797E0
3.015999100E0,1.165304661E0,2.272583246E0,9.605986595E0
3.018236893E0,-5.282155871E-1,2.552543640E0,1.043390274E1
3.020461258E0,-1.503290772E0,2.928216696E0,1.197428226E1
3.022711014E0,-1.320239902E0,3.164507866E0,1.293380451E1
3.024946061E0,-1.513460279E-1,2.800798893E0,1.226800156E1
3.027184708E0,1.219143152E0,2.096112728E0,1.037946606E1
3.029420975E0,2.073380709E0,1.942971945E0,8.647063255E0
3.031659134E0,1.885544300E0,2.225923300E0,8.072187424E0
3.033896195E0,5.850451589E-1,2.621935368E0,8.469993591E0
3.036133194E0,-9.146564603E-1,2.843271494E0,8.875576973E0
3.038369217E0,-1.679761529E0,2.770290375E0,8.611170769E0
3.040607010E0,-1.597807288E0,2.333002090E0,7.763513088E0
3.042843094E0,-1.345364571E0,1.740778446E0,6.813562393E0
3.045080094E0,-8.039883971E-1,1.600200176E0,6.556334019E0
3.047316727E0,7.537391037E-2,2.109273195E0,7.211967468E0
3.049553971E0,9.134600163E-1,2.807977438E0,8.481958389E0
3.051791336E0,1.523629785E0,3.139981508E0,1.006062317E1
3.054029190E0,2.047059774E0,2.779861689E0,1.168295670E1
3.056265518E0,2.131406784E0,1.883749604E0,1.275314617E1
3.058503250E0,1.771885157E0,1.390828133E0,1.303669643E1
3.060738846E0,1.359123230E0,1.475175142E0,1.271785259E1
3.062976151E0,8.931210637E-1,1.686341763E0,1.201735306E1
3.065212906E0,7.357929349E-1,2.171486616E0,1.104227829E1
3.067447037E0,1.011565804E0,2.419741869E0,9.284749985E0
3.069675369E0,9.122636318E-1,1.733001828E0,7.253841877E0
3.071925186E0,5.258227587E-1,1.019342422E0,5.797211170E0
3.074161759E0,-7.274180651E-1,1.063011408E0,5.637490273E0
3.076402298E0,-1.959721804E0,1.597807288E0,6.717251301E0
3.078635086E0,-2.519642353E0,2.369492531E0,8.060222626E0
3.080872147E0,-2.083550215E0,3.449851990E0,8.796614647E0
3.083109147E0,-5.688936114E-1,4.191627026E0,8.866603851E0
3.085346024E0,1.234696507E0,3.710071564E0,8.883952141E0
3.087583634E0,2.562114954E0,2.961117983E0,9.279366493E0
3.089818375E0,2.810968399E0,2.780459881E0,1.022094154E1
3.092045914E0,1.993819475E0,2.481955290E0,1.124865913E1
3.094295731E0,6.227321029E-1,1.480558991E0,1.191984558E1
3.096531144E0,-2.931207716E-1,7.339983582E-1,1.190788174E1
3.098771561E0,-7.752745152E-1,9.493523836E-1,1.143111229E1
3.101004838E0,-1.039083242E0,1.699502230E0,1.045484066E1
3.103242264E0,-1.026520967E0,2.316252232E0,9.381061554E0
3.105479569E0,-2.650051117E-1,2.973082066E0,8.752346992E0
3.107717667E0,6.095715761E-1,3.381058455E0,8.606983185E0
3.109953751E0,6.658028960E-1,3.351148129E0,8.688937187E0
3.112190323E0,1.920240223E-1,3.184846878E0,8.941978455E0
3.114422318E0,-2.632104978E-2,2.937189817E0,9.398408890E0
3.116664200E0,-1.639083475E-1,2.436491728E0,9.541379929E0
3.118901444E0,5.264209956E-2,1.932802439E0,9.153144836E0
3.121139725E0,6.610172391E-1,1.615753531E0,8.548956871E0
3.123375931E0,1.152144074E0,1.487139225E0,7.976474285E0
3.125613541E0,9.726824164E-1,1.788036704E0,7.640282631E0
3.127849686E0,3.972085714E-1,2.480160713E0,7.719843864E0
3.130087479E0,-3.098705411E-1,3.115455151E0,8.079365730E0
3.132323258E0,-6.843472719E-1,3.626322746E0,8.461619377E0
3.134560440E0,-8.303094506E-1,3.923630953E0,8.731410027E0
3.136797440E0,-9.427721500E-1,3.617947817E0,9.031110764E0
3.139034500E0,-5.503492355E-1,2.830111027E0,9.494122505E0
3.141271927E0,4.372883439E-1,2.181057930E0,1.000977516E1
3.143509781E0,1.662413478E0,2.017149448E0,1.045962620E1
3.145745682E0,2.629113913E0,2.058425665E0,1.070249748E1
3.147983475E0,2.967698336E0,1.905883193E0,1.061037350E1
3.150216324E0,2.614158630E0,1.750349760E0,1.024965572E1
3.152442032E0,1.646261930E0,1.848455548E0,9.806385040E0
3.154681290E0,-2.685943544E-1,1.802393675E0,9.493523598E0
3.156928849E0,-1.694716692E0,1.596610904E0,8.975478172E0
3.159170975E0,-1.434497118E0,1.407577872E0,7.819146156E0
3.161408524E0,-3.607180119E-1,1.416550994E0,6.513263226E0
3.163642410E0,3.122633696E-1,1.500898004E0,5.803791523E0
3.165879715E0,8.087740541E-1,1.959721804E0,6.279364586E0
3.168112625E0,7.238288522E-1,2.828914642E0,7.669594765E0
3.170338578E0,-6.759724021E-2,3.650849104E0,9.311071396E0
3.172580216E0,-6.203392744E-1,4.015754700E0,1.078804111E1
3.174826981E0,-2.099701911E-1,3.770490170E0,1.173679543E1
3.177067093E0,7.585247755E-1,3.205185890E0,1.186122227E1
3.179304459E0,1.903490424E0,2.691925526E0,1.152443218E1
3.181538101E0,2.797209740E0,2.407179594E0,1.127557850E1
3.183775650E0,2.945564747E0,2.696711063E0,1.126660538E1
3.186011185E0,2.239083767E0,3.219542980E0,1.122592735E1
3.188245927E0,1.054038405E0,3.276970625E0,1.093340492E1
3.190472000E0,-1.579262912E-1,2.968296528E0,1.037468052E1
3.192708023E0,-1.003190875E0,2.574677229E0,9.299705505E0
3.194947891E0,-1.211366415E0,1.934597135E0,7.815557003E0
3.197200516E0,-6.119644046E-1,1.305284739E0,6.587440968E0
3.199437088E0,5.826523304E-1,1.226321578E0,6.264409542E0
3.201674820E0,1.712662816E0,1.616949916E0,7.075576782E0
3.203907792E0,1.998006940E0,1.897508383E0,8.426922798E0
3.206144852E0,1.660020709E0,2.196611166E0,9.882357597E0
3.208381730E0,1.247856975E0,2.852244616E0,1.112662506E1
3.210618912E0,8.111668825E-1,3.410968781E0,1.164168072E1
3.212856094E0,1.884347796E-1,3.762713671E0,1.104407310E1
3.215094071E0,-2.913261652E-1,3.643072367E0,9.699904442E0
3.217330155E0,-1.998006850E-1,2.997010469E0,8.481359482E0
3.219568009E0,4.319044948E-1,2.321038008E0,7.882555962E0
3.221803727E0,8.691928387E-1,1.829911113E0,8.092526436E0
3.224040848E0,8.410771489E-1,1.343569875E0,8.918049812E0
3.226277604E0,7.345965505E-1,1.077966571E0,9.780662537E0
3.228514725E0,8.333004713E-1,1.642074585E0,1.047637558E1
3.230752335E0,4.402793646E-1,2.808575630E0,1.080957603E1
3.232989823E0,-3.439682424E-1,3.802195072E0,1.057687473E1
3.235225235E0,-7.034898400E-1,4.408775806E0,9.881160736E0
3.237463944E0,-2.608176768E-1,4.396811485E0,9.035896301E0
3.239699723E0,7.860422134E-1,3.480360508E0,8.251050949E0
3.241937210E0,1.683948994E0,1.992024899E0,7.718049526E0
3.244174149E0,1.799402595E0,7.034898400E-1,7.721638680E0
3.246411026E0,1.389631748E0,1.998006850E-1,8.362317085E0
3.248648636E0,6.508477330E-1,6.418746710E-1,9.241679192E0
3.250886246E0,-4.857429862E-1,1.474576950E0,9.754341125E0
3.253122391E0,-9.882357717E-1,2.142174482E0,9.701101303E0
3.255359940E0,-4.151547253E-1,2.522633314E0,9.395418167E0
3.257595963E0,4.887340367E-1,2.304288149E0,9.160921097E0
3.259833084E0,9.684949517E-1,2.014756680E0,9.180064201E0
3.262069962E0,1.301097274E0,2.456830740E0,9.707083702E0
3.264307144E0,1.172483087E0,3.206382275E0,1.039143085E1
3.266544266E0,6.813562512E-1,3.480360508E0,1.061037350E1
3.268782059E0,3.523431420E-1,2.966501951E0,1.004566765E1
3.271018448E0,2.039881349E-1,2.150549412E0,9.192028046E0
3.273256485E0,-2.614158690E-1,1.438684583E0,8.550153732E0
3.275492020E0,-9.661021233E-1,1.014556766E0,8.405985832E0
3.277726517E0,-8.919246197E-1,1.327418327E0,8.720642090E0
3.279956314E0,-6.759724021E-2,2.269592285E0,9.203393936E0
3.282206131E0,8.416753411E-1,3.043072224E0,9.539586067E0
3.284440628E0,1.293320656E0,3.260220766E0,9.757930756E0
3.286681168E0,1.765304923E0,3.369692564E0,1.025803089E1
3.288914017E0,1.839482427E0,3.284149170E0,1.097886848E1
3.291152664E0,1.534995675E0,2.980858803E0,1.138205910E1
3.293387894E0,1.065404296E0,2.510669231E0,1.112124157E1
3.295625077E0,8.608179688E-1,1.843071699E0,1.036690426E1
3.297862015E0,8.404789567E-1,1.221535921E0,9.385248184E0
3.300099259E0,4.845465720E-1,6.197410822E-1,8.458029747E0
3.302336807E0,1.890329868E-1,3.972085714E-1,7.840681553E0
3.304574295E0,1.680957973E-1,8.626125455E-1,7.691728592E0
3.306810684E0,-1.477568001E-1,1.712064624E0,8.016553879E0
3.309048416E0,-8.165507317E-1,2.428116798E0,8.452646255E0
3.311284256E0,-8.177471161E-1,3.092125177E0,8.589634895E0
3.313521378E0,-2.273181453E-2,3.386442184E0,8.553742409E0
3.315758316E0,8.297112584E-1,3.043072224E0,8.619544983E0
3.317993424E0,1.852642894E0,2.796013355E0,9.039485931E0
3.320225723E0,2.324028969E0,2.670390129E0,9.783055305E0
3.322467485E0,2.062613010E0,2.536990166E0,1.052004433E1
3.324694718E0,1.613360643E0,2.498705149E0,1.089691448E1
3.326946244E0,1.179063320E0,2.100300074E0,1.054098225E1
3.329179642E0,7.782655358E-1,1.313061476E0,9.541978836E0
3.331417130E0,5.407779217E-1,9.002995491E-1,8.510671616E0
3.333654129E0,1.657029688E-1,8.937192559E-1,8.097311974E0
3.335891373E0,-1.651047617E-1,1.088136077E0,8.489734650E0
3.338126664E0,-1.316052526E-1,1.500299811E0,9.237491608E0
3.340354813E0,5.742774606E-1,2.285145521E0,9.824930191E0
3.342599686E0,1.512862086E0,3.030509949E0,1.001815033E1
3.344828751E0,1.533201098E0,3.011965513E0,9.894321442E0
3.347079423E0,6.155536175E-1,2.443071842E0,9.734002113E0
3.349310685E0,-5.306084156E-1,1.756331801E0,9.872786522E0
3.351541581E0,-7.106683254E-1,1.178465128E0,1.035852909E1
3.353787430E0,-1.674975827E-2,7.208378315E-1,1.081376362E1
3.356022843E0,1.076770186E0,5.270192027E-1,1.093400288E1
3.358253922E0,2.216351986E0,9.750752449E-1,1.060977554E1
3.360486954E0,1.948355794E0,1.755733609E0,1.019103146E1
3.362736649E0,8.219345808E-1,2.705684185E0,1.019820976E1
3.364974625E0,-5.210371017E-1,3.201596737E0,1.067617607E1
3.367212540E0,-1.134796143E0,3.065205812E0,1.110927773E1
3.369446305E0,-4.348955154E-1,2.437688112E0,1.113619614E1
3.371683426E0,5.306084156E-1,1.359123230E0,1.065045357E1
3.373921036E0,1.406979680E0,6.029912829E-1,9.939785004E0
3.376158829E0,2.055434704E0,4.713860750E-1,9.450452805E0
3.378395157E0,2.026122570E0,5.641079545E-1,9.120841980E0
3.380632645E0,1.258026481E0,7.010970116E-1,8.903693199E0
3.382868485E0,2.159522474E-1,1.232901812E0,8.993423462E0
3.385105789E0,-9.302098155E-1,1.971087694E0,9.305686951E0
3.387342606E0,-1.801197290E0,2.428714991E0,9.368498802E0
3.389579666E0,-1.564906001E0,2.326421738E0,9.037093163E0
3.391817032E0,4.372883439E-1,2.073380709E0,8.636295319E0
3.394055008E0,2.928814888E0,2.007578135E0,8.468797684E0
3.396291153E0,4.130609989E0,2.041077614E0,8.617751122E0
3.398528885E0,3.571886063E0,1.967498422E0,8.837292671E0
3.400764359E0,2.235494614E0,1.804786444E0,9.082556725E0
3.403001541E0,7.369893789E-1,1.663609982E0,9.326624870E0
3.405238541E0,-1.096511006E0,1.235892892E0,9.553344727E0
3.407475663E0,-2.501696110E0,5.676971674E-1,9.765707016E0
3.409713028E0,-2.282752752E0,6.532405615E-1,1.009711361E1
3.411950760E0,-3.912265003E-1,1.205982566E0,1.061874866E1
3.414187149E0,2.118844509E0,1.810768485E0,1.113679504E1
3.416424942E0,3.998406649E0,2.379063845E0,1.139641571E1
3.418660721E0,4.547559261E0,2.699702263E0,1.160100269E1
3.420897843E0,3.301496983E0,2.233700037E0,1.199581814E1
3.423134842E0,1.261017561E0,1.591825247E0,1.259761333E1
3.425371903E0,-8.309076428E-1,1.238883972E0,1.299422359E1
3.427604691E0,-2.025524378E0,1.064806104E0,1.227278709E1
3.429827775E0,-1.825723648E0,6.903293133E-1,9.910472870E0
3.432079727E0,-5.048855543E-1,6.412764788E-1,7.027719975E0
3.434321182E0,4.576273263E-1,8.045865893E-1,4.914857864E0
3.436561478E0,7.579265833E-1,1.122832060E0,4.482953072E0
3.438794633E0,4.660021961E-1,1.607378602E0,5.967101574E0
3.441030533E0,2.691925503E-2,2.638087034E0,8.827122688E0
3.443267838E0,-2.093719840E-1,3.903291941E0,1.192702484E1
3.445505264E0,1.130608693E-1,4.410570145E0,1.386042500E1
3.447743057E0,1.365703583E0,4.147958279E0,1.371506119E1
3.449979385E0,3.379862070E0,3.614956856E0,1.192702484E1
3.452217118E0,4.579264164E0,2.550150633E0,9.741779327E0
3.454452713E0,3.912265062E0,1.362114310E0,8.340183258E0
3.456690018E0,1.869990945E0,5.282155871E-1,8.175078392E0
3.458926835E0,-1.597209126E-1,9.092725813E-2,8.953942299E0
3.461164200E0,-1.409372568E0,-1.848455518E-1,9.571888924E0
3.463401505E0,-1.664806366E0,-6.520441920E-2,9.364311218E0
3.465639298E0,-6.909275651E-1,5.694918036E-1,8.585447311E0
3.467875565E0,7.214360237E-1,1.512263894E0,7.991429329E0
3.470113114E0,1.553540111E0,2.833700180E0,8.139784813E0
3.472348893E0,1.582253933E0,4.244867325E0,8.915059090E0
3.474586014E0,8.985049129E-1,4.720440865E0,9.661619186E0
3.476823136E0,4.504488707E-1,4.037290096E0,9.901499748E0
3.479060379E0,3.960121572E-1,2.394617319E0,9.584450722E0
3.481297562E0,5.832505226E-1,4.528416991E-1,9.022137642E0
3.483535416E0,8.105686903E-1,-5.347958803E-1,8.749356270E0
3.485771317E0,8.524430394E-1,2.380858511E-1,9.077172279E0
3.488006852E0,6.699903607E-1,1.896910191E0,9.731011391E0
3.490234879E0,3.972085714E-1,2.964108944E0,1.042253685E1
3.492482315E0,1.009771109E0,3.677768469E0,1.122832012E1
3.494719010E0,2.000998020E0,4.079762459E0,1.207119179E1
3.496958695E0,2.035693884E0,3.813561201E0,1.258205986E1
3.499193680E0,1.369890928E0,3.144767046E0,1.258684540E1
3.501431229E0,8.668000102E-1,2.202593327E0,1.210229874E1
3.503667618E0,5.778666735E-1,1.533201098E0,1.106082249E1
3.505902298E0,1.549352705E-1,1.231705427E0,9.426525116E0
3.508125992E0,-3.672982752E-1,9.661021233E-1,7.724629879E0
3.510365312E0,-1.872383654E-1,1.202991605E0,6.643671989E0
3.512611100E0,4.283152521E-1,1.859821439E0,6.314659119E0
3.514855179E0,4.109672904E-1,2.432902336E0,6.527620316E0
3.517092667E0,4.025924206E-1,2.912663460E0,7.256833076E0
3.519328263E0,4.570291340E-1,3.101696253E0,8.563314438E0
3.521563858E0,5.198407173E-1,3.134597778E0,1.041416264E1
3.523801346E0,7.256234884E-1,3.113062143E0,1.218963718E1
3.526037186E0,1.275972724E0,2.946761131E0,1.321077347E1
3.528271194E0,2.173879385E0,2.718246460E0,1.313360500E1
3.530499100E0,2.751745939E0,2.379662037E0,1.212862015E1
3.532748429E0,2.674577475E0,1.937588096E0,1.081735325E1
3.534986038E0,2.112862349E0,1.799402595E0,9.510871887E0
3.537226761E0,1.238883972E0,2.029113531E0,8.324629784E0
3.539459793E0,2.985046208E-1,2.449054003E0,7.466204643E0
3.541697342E0,-7.573283911E-1,2.089532375E0,6.985247612E0
3.543933365E0,-1.293320656E0,1.146162033E0,7.034300327E0
3.546170487E0,-1.110269666E0,5.754738450E-1,7.685148239E0
3.548407364E0,-4.205385745E-1,7.471588850E-1,8.611768723E0
3.550644547E0,8.542376757E-1,1.594218135E0,9.499505997E0
3.552881729E0,2.254637241E0,2.933600664E0,9.977472305E0
3.555119766E0,3.098107100E0,4.202992916E0,9.835099220E0
3.557356033E0,2.628515720E0,4.699503899E0,9.500701904E0
3.559593643E0,8.009973764E-1,3.830310822E0,1.003370380E1
3.561829361E0,-6.580262184E-1,2.142772675E0,1.151605701E1
3.564066483E0,-1.009172916E0,4.390829504E-1,1.280279732E1
3.566303544E0,1.692921966E-1,-1.794616925E-3,1.322931862E1
3.568540604E0,2.044068813E0,8.380861282E-1,1.278724384E1
3.570777969E0,3.229114056E0,1.954337835E0,1.159502029E1
3.573015702E0,3.089133978E0,3.096910715E0,1.017069244E1
3.575252091E0,1.765903115E0,4.112065792E0,9.069396019E0
3.577486955E0,-1.860419661E-1,4.010370731E0,8.584251404E0
3.579711075E0,-1.889731646E0,3.004188776E0,8.322834969E0
3.581948379E0,-2.538186550E0,1.865205288E0,7.617550850E0
3.584185257E0,-1.933998942E0,9.858429432E-1,6.556334019E0
3.586428544E0,-3.122633696E-1,5.790630579E-1,5.551348686E0
3.588677079E0,1.529611826E0,9.822536707E-1,5.415555954E0
3.590914872E0,2.700300455E0,2.025524378E0,6.521039963E0
3.593151017E0,2.379063845E0,2.790629387E0,8.519644737E0
3.595385514E0,1.412363529E0,3.199802160E0,1.091306591E1
3.597621415E0,1.035493970E0,3.434298754E0,1.300259781E1
3.599858963E0,1.313061476E0,2.928814888E0,1.390768337E1
3.602095780E0,1.570888042E0,1.804188251E0,1.320120239E1
3.604332657E0,1.830509305E0,1.372283816E0,1.168295670E1
3.606570206E0,1.935195327E0,1.734796405E0,1.059601688E1
3.608808182E0,1.436890006E0,1.647458434E0,1.048714352E1
3.611044388E0,7.202396393E-1,1.155733347E0,1.056191921E1
3.613282059E0,3.337987661E-1,6.855437160E-1,1.003968525E1
3.615517533E0,1.268195957E-1,3.828516304E-1,9.022735596E0
3.617754715E0,-1.734796353E-2,6.179464459E-1,8.324629784E0
3.619991715E0,-1.579262912E-1,1.853839397E0,8.378468513E0
3.622228836E0,-1.806581169E-1,3.488137245E0,8.723632812E0
3.624466202E0,2.823530734E-1,4.493721008E0,8.964710236E0
3.626703934E0,1.027119160E0,4.013361931E0,9.053244591E0
3.628940323E0,1.659422517E0,2.605185747E0,9.485747337E0
3.631178116E0,1.495514154E0,1.647458434E0,1.031605625E1
3.633413041E0,5.270192027E-1,1.332802176E0,1.106560802E1
3.635647538E0,-1.686939895E-1,1.490130305E0,1.146879864E1
3.637887711E0,1.471585929E-1,1.950748682E0,1.116610718E1
3.640124832E0,8.291130662E-1,2.414358139E0,9.984052658E0
3.642363297E0,7.531409264E-1,2.398206472E0,8.614759445E0
3.644600174E0,7.190431952E-1,2.481955290E0,8.247461319E0
3.646836319E0,4.695914388E-1,2.648256540E0,9.231510162E0
3.649071121E0,-4.486542568E-2,2.639881611E0,1.066241741E1
3.651295242E0,1.770688742E-1,2.555534601E0,1.150828075E1
3.653532547E0,1.499701619E0,2.355733871E0,1.111107159E1
3.655772049E0,2.822334290E0,2.050648928E0,9.841081619E0
3.658025834E0,3.163311481E0,1.668993831E0,8.480761528E0
3.660268631E0,2.760120869E0,1.516451359E0,7.676175117E0
3.662498795E0,1.410568953E0,1.217348576E0,7.535596848E0
3.664731033E0,-3.613162339E-1,8.733802438E-1,8.011170387E0
3.666965287E0,-1.582253933E0,7.304090858E-1,8.858827591E0
3.669191850E0,-1.583450437E0,1.009172916E0,9.535398483E0
3.671431351E0,-8.835497499E-1,1.945963025E0,9.373284340E0
3.673665299E0,8.673982322E-2,2.847458839E0,8.879764557E0
3.675907914E0,1.457229018E0,3.266202927E0,8.996415138E0
3.678153214E0,2.600998163E0,3.373281717E0,9.975079536E0
3.680383134E0,2.772683144E0,3.302693367E0,1.115892887E1
3.682631119E0,1.752742529E0,2.358126640E0,1.179541969E1
3.684864762E0,7.627122402E-1,1.168295622E0,1.180738354E1
3.687105118E0,4.145565331E-1,8.344969153E-1,1.161835003E1
3.689336198E0,4.414757788E-1,1.199402332E0,1.130848026E1
3.691564530E0,4.378865361E-1,1.442872047E0,1.043031406E1
3.693813553E0,1.088136077E0,1.706680775E0,9.224929810E0
3.696050614E0,1.951346874E0,1.649253011E0,8.441280365E0
3.698291154E0,1.716850281E0,9.224331379E-1,8.244470596E0
3.700524429E0,8.703892231E-1,8.662018180E-1,8.613563538E0
3.702762284E0,7.118647546E-2,1.806581140E0,9.558728218E0
3.704998124E0,-6.376872063E-1,2.673381090E0,1.052303600E1
3.707235184E0,-7.944171429E-1,3.257827997E0,1.078325558E1
3.709472001E0,-3.870390654E-1,3.556332588E0,1.011864853E1
3.711709305E0,5.533402562E-1,3.125624657E0,9.165108681E0
3.713946732E0,1.576870084E0,2.414358139E0,8.732007980E0
3.716184586E0,2.383849621E0,2.429313183E0,9.040083885E0
3.718420303E0,2.508276224E0,2.725425005E0,9.626923561E0
3.720658585E0,1.974676847E0,2.392822742E0,9.866206169E0
3.722894303E0,1.304088354E0,1.581655741E0,9.603593826E0
3.725131546E0,7.136593461E-1,1.080359459E0,9.403793335E0
3.727368180E0,-9.990034252E-2,1.234696507E0,9.600603104E0
3.729605240E0,-7.328019142E-1,2.051247120E0,9.884750366E0
3.731842606E0,-3.236292601E-1,3.098107100E0,9.743574142E0
3.734080399E0,6.245267391E-1,3.354737282E0,9.065208435E0
3.736316788E0,1.396211982E0,2.548954248E0,8.196015358E0
3.738554520E0,1.663011789E0,1.685145378E0,7.966304779E0
3.740790116E0,1.473380566E0,1.277169108E0,8.809176445E0
3.743025406E0,9.870393276E-1,1.177866936E0,1.014018440E1
3.745256180E0,7.130611539E-1,1.588834286E0,1.104287624E1
3.747501602E0,8.823533654E-1,2.446063042E0,1.119123173E1
3.749738907E0,7.992027402E-1,2.665604353E0,1.055533886E1
3.751978714E0,1.006780148E0,2.500499725E0,9.475577354E0
3.754213028E0,1.339980721E0,2.231307030E0,8.668000221E0
3.756450821E0,1.084546804E0,1.743171334E0,8.557332039E0
3.758686600E0,7.812566161E-1,1.663609982E0,9.202795982E0
3.760923173E0,8.207381964E-1,2.213361025E0,1.007019424E1
3.763158402E0,7.106683254E-1,2.414358139E0,1.041236782E1
3.765397293E0,7.854440212E-1,2.367697954E0,9.979267120E0
3.767635086E0,1.211366415E0,2.636890650E0,9.300303459E0
3.769870194E0,8.255237937E-1,2.440080881E0,8.653642654E0
3.772097427E0,4.689932466E-1,2.371885538E0,8.130811691E0
3.774347000E0,9.242277741E-1,2.854039192E0,7.847859859E0
3.776582596E0,1.282552958E0,2.667997360E0,7.575078487E0
3.778822526E0,9.882357717E-1,1.688734531E0,7.307082176E0
3.781056107E0,6.418746710E-1,7.363911867E-1,7.581658363E0
3.783293473E0,6.269195080E-1,3.194418252E-1,8.698508263E0
3.785530960E0,6.287141442E-1,5.563312769E-1,1.012821960E1
3.787769242E0,7.543373108E-1,1.347159147E0,1.139641571E1
3.790005264E0,1.373480201E0,2.066800594E0,1.194497108E1
3.792242813E0,2.200798512E0,2.725425005E0,1.157468128E1
3.794478470E0,2.419741869E0,3.099901676E0,1.061755180E1
3.796715653E0,1.837687731E0,2.930011272E0,9.973284721E0
3.798952652E0,1.058824062E0,2.410768747E0,1.001934624E1
3.801189530E0,6.173482537E-1,1.936989903E0,1.045484066E1
3.803427139E0,5.461617708E-1,1.585245013E0,1.032144070E1
3.805664871E0,8.309076428E-1,1.183848977E0,9.280562401E0
3.807901260E0,1.253240824E0,1.207777262E0,8.020741463E0
3.810138809E0,1.767099500E0,2.288136721E0,7.451249599E0
3.812374833E0,1.490728498E0,3.454039574E0,7.551748276E0
3.814611893E0,5.521438122E-1,3.772284985E0,8.053044319E0
3.816848710E0,2.644068897E-1,3.404986620E0,8.661419868E0
3.819085709E0,3.547359705E-1,2.268395901E0,9.112466812E0
3.821323135E0,8.099704385E-1,1.173679471E0,9.528220177E0
3.823561112E0,1.596012712E0,8.051848412E-1,1.002712345E1
3.825797257E0,2.419143677E0,1.029511929E0,1.050628567E1
3.828033646E0,2.439482689E0,1.554138303E0,1.073958588E1
3.830265152E0,1.950748682E0,2.240878344E0,1.080060291E1
3.832507889E0,1.341177106E0,2.484348059E0,1.074197865E1
3.834744645E0,5.916253924E-1,1.789831281E0,1.040758228E1
3.836983231E0,1.657029688E-1,1.018146038E0,1.013300610E1
3.839220475E0,4.648058116E-1,8.650053740E-1,1.018863869E1
3.841460526E0,1.084546804E0,1.214955688E0,9.988240242E0
3.843693314E0,1.445264935E0,2.044068813E0,9.485149384E0
3.845931229E0,1.644467354E0,2.861815929E0,8.874979019E0
3.848163285E0,1.798206210E0,2.976671457E0,8.375477791E0
3.850392411E0,1.447657704E0,2.754138947E0,8.081758499E0
3.852640641E0,6.813562512E-1,2.775076151E0,8.093722343E0
3.854878006E0,-7.896314561E-2,2.506481647E0,8.626125336E0
3.857118546E0,4.689932466E-1,2.313261271E0,9.294321060E0
3.859353470E0,2.090728760E0,2.282752752E0,9.514460564E0
3.861589798E0,3.465405464E0,1.968096614E0,9.002995491E0
3.863827408E0,3.967898130E0,1.680359721E0,8.559724808E0
3.866062821E0,3.229712248E0,1.791027784E0,8.748159409E0
3.868297318E0,1.409970760E0,1.858624935E0,9.403793335E0
3.870524857E0,-7.453642488E-1,1.313659668E0,1.017188931E1
3.872774063E0,-1.307677627E0,9.960124493E-1,1.040100193E1
3.875011490E0,-3.230310604E-2,1.386042476E0,9.806385040E0
3.877252091E0,1.361516118E0,1.539781332E0,8.316853523E0
3.879485489E0,2.276770830E0,1.479960799E0,6.914061069E0
3.881724625E0,2.782852650E0,1.742573142E0,6.412764549E0
3.883961746E0,2.252244234E0,1.880758643E0,7.165905476E0
3.886184403E0,8.159525394E-1,1.875374794E0,8.802596092E0
3.888432938E0,-4.301098585E-1,2.006381750E0,1.034058285E1
3.890668839E0,-6.969096065E-1,1.834696770E0,1.100100231E1
3.892910599E0,3.290131092E-1,1.518245935E0,1.094895840E1
3.895145645E0,2.327618122E0,1.823330879E0,1.082393360E1
3.897381729E0,3.684348583E0,2.596212626E0,1.090170002E1
3.899619461E0,3.780061483E0,2.919841766E0,1.093041420E1
3.901854935E0,3.597010612E0,2.808575630E0,1.083410263E1
3.904092118E0,3.115455151E0,2.403590441E0,1.100638580E1
3.906329178E0,1.805384636E0,1.591227055E0,1.102433205E1
3.908566544E0,9.332008660E-2,7.980063558E-1,1.036630630E1
3.910803909E0,-8.596215248E-1,9.038887620E-1,9.279964447E0
3.913041641E0,-9.816554785E-1,1.479362607E0,8.247461319E0
3.915277908E0,-5.210371017E-1,2.088934183E0,7.450053215E0
3.917515457E0,2.356930375E-1,2.505285263E0,6.984051228E0
3.919751236E0,1.314257860E0,2.579462767E0,7.036693096E0
3.921988297E0,2.521436930E0,2.261217356E0,7.715656757E0
3.924225113E0,2.648854733E0,2.200200319E0,9.071190834E0
3.926458756E0,1.670190215E0,2.383849621E0,1.077368355E1
3.928685928E0,5.748756528E-1,2.406581402E0,1.240917778E1
3.930937577E0,7.495517135E-1,2.342573404E0,1.321197033E1
3.933173721E0,1.779661894E0,2.180459738E0,1.293081379E1
3.935414933E0,2.962912560E0,2.060818434E0,1.212144089E1
3.937647294E0,3.931407690E0,2.341975212E0,1.131446171E1
3.939884659E0,3.979264021E0,2.574677229E0,1.055174923E1
3.942121415E0,3.194418192E0,2.335993052E0,9.963115692E0
3.944358475E0,1.775474429E0,2.105085611E0,9.678369522E0
3.946595780E0,-3.290131316E-2,2.053041935E0,9.285347939E0
3.948833573E0,-1.471585870E0,1.896910191E0,8.523832321E0
3.951069962E0,-1.771286964E0,1.796411633E0,7.491329670E0
3.953307755E0,-4.917250574E-1,2.105684042E0,6.768098831E0
3.955543534E0,1.513460279E0,2.172084808E0,6.600601196E0
3.957780655E0,3.096910715E0,1.850250125E0,6.930212498E0
3.960017594E0,4.069592953E0,2.201995134E0,8.159524918E0
3.962254532E0,3.422932863E0,2.675773859E0,1.015513897E1
3.964492325E0,1.570888042E0,2.861815929E0,1.207418346E1
3.966726761E0,6.460621357E-1,2.867797852E0,1.276152134E1
3.968954056E0,1.194616675E0,2.279761791E0,1.197607708E1
3.971203873E0,2.142174482E0,1.193420291E0,1.012702370E1
3.973439469E0,2.682952404E0,5.533402562E-1,8.388039589E0
3.975679642E0,2.711068153E0,4.983053207E-1,7.768298626E0
3.977913590E0,2.151147604E0,4.995017350E-1,8.301898003E0
3.980150772E0,1.223330617E0,8.530412912E-1,9.327820778E0
3.982388321E0,4.432703853E-1,1.668993831E0,1.016291618E1
3.984625809E0,9.391828626E-2,2.089532375E0,1.025922680E1
3.986862137E0,5.006981492E-1,2.340180635E0,9.566504478E0
3.989099625E0,1.578066587E0,2.930011272E0,8.869595528E0
3.991335526E0,2.120040894E0,3.152543783E0,8.621339798E0
3.993572830E0,2.111067772E0,2.889333248E0,8.669196129E0
3.995809647E0,2.081755638E0,2.443071842E0,9.108877182E0
3.998043716E0,2.129014015E0,1.586441398E0,1.009292603E1
4.000272110E0,2.423331022E0,8.602197170E-1,1.088375378E1
4.002522049E0,2.590828657E0,1.050449133E0,1.069890785E1
4.004758194E0,2.349751949E0,1.709671736E0,9.617950439E0
4.006995987E0,1.743171334E0,2.149951220E0,8.409575462E0
4.009218888E0,1.076171994E0,2.426322222E0,7.783253670E0
4.011465409E0,3.056831062E-1,2.371885538E0,7.633104324E0
4.013705582E0,-1.842473447E-1,1.666600943E0,7.701299667E0
4.015945695E0,-2.033899166E-2,8.781659007E-1,7.966903210E0
4.018178360E0,1.001994491E0,9.529415965E-1,9.029914856E0
4.020406876E0,2.175673962E0,1.812563181E0,1.061276627E1
4.022654434E0,2.648256540E0,2.665006161E0,1.183609676E1
4.024891922E0,2.801995277E0,3.263211966E0,1.227039433E1
4.027130509E0,2.677568436E0,3.118446112E0,1.194556904E1
4.029361894E0,2.416152716E0,2.551945448E0,1.125284672E1
4.031590165E0,2.118844509E0,2.271386862E0,1.082094193E1
4.033838944E0,1.542772412E0,2.085345030E0,1.057268715E1
4.036076370E0,9.188438654E-1,1.790429592E0,1.022453117E1
4.038317216E0,5.850451589E-1,1.582852125E0,9.620942116E0
4.040550430E0,8.967102766E-1,1.811964989E0,8.822337151E0
4.042788163E0,1.389631748E0,2.061416626E0,8.096714020E0
4.045023697E0,1.697109461E0,2.221137524E0,7.708477974E0
4.047261063E0,1.689931035E0,2.322832584E0,7.555337429E0
4.049493423E0,1.217946768E0,2.539382935E0,7.684549809E0
4.051717423E0,3.272185028E-1,2.904288530E0,8.247461319E0
4.053972611E0,-3.876372576E-1,2.821137905E0,8.880363464E0
4.056210526E0,-1.668993831E-1,2.371287346E0,9.226125717E0
4.058450821E0,1.363310695E0,2.194816589E0,9.293125153E0
4.060684159E0,3.101696253E0,2.097309113E0,9.175876617E0
4.062919877E0,3.838685751E0,2.081157446E0,9.249456406E0
4.065157059E0,3.695116282E0,2.089532375E0,9.834501266E0
4.067393876E0,2.726621389E0,1.804188251E0,1.066540909E1
4.069631180E0,1.527817249E0,1.293918848E0,1.107039356E1
4.071868546E0,7.058826685E-1,1.091127157E0,1.104407310E1
4.074106278E0,6.735795736E-1,1.380060434E0,1.075693417E1
4.076342423E0,9.966106415E-1,1.704287887E0,9.934401512E0
4.078580399E0,1.264008522E0,1.649253011E0,8.716454506E0
4.080815995E0,1.701296926E0,1.556531072E0,7.742575645E0
4.083053360E0,2.159522533E0,1.541576028E0,7.375277519E0
4.085290055E0,2.157727718E0,1.607378602E0,7.666005611E0
4.087527237E0,1.373480201E0,1.730608940E0,8.344968796E0
4.089764786E0,7.716853023E-1,2.012363911E0,9.226125717E0
4.092000016E0,4.516452849E-1,2.138585329E0,9.942776680E0
4.094225785E0,5.389832854E-1,2.054238319E0,1.022512913E1
4.096464859E0,1.488335729E0,2.092523336E0,1.023410225E1
4.098711930E0,2.702095032E0,1.825723648E0,1.012642574E1
4.100951859E0,3.847060680E0,1.884347796E0,1.025085258E1
4.103189164E0,3.924229145E0,2.502892494E0,1.072283649E1
4.105423233E0,2.830709219E0,2.623131752E0,1.106082249E1
4.107660782E0,1.631905079E0,2.258226395E0,1.117926693E1
4.109898514E0,8.530412912E-1,1.649253011E0,1.098245811E1
4.112134903E0,5.318048596E-1,1.024726272E0,1.050329494E1
4.114372391E0,3.804588020E-1,7.674978375E-1,9.772886276E0
4.116608170E0,1.062413216E0,1.271785259E0,9.249456406E0
4.118845230E0,2.241476536E0,2.201396942E0,9.101100922E0
4.121082108E0,2.894717216E0,2.546561480E0,8.920442581E0
4.123319413E0,2.745764017E0,2.363510609E0,8.623732567E0
4.125556778E0,2.471187592E0,2.423331022E0,8.955139160E0
4.127794571E0,1.888535261E0,2.474776745E0,9.993623734E0
4.130030899E0,1.001994491E0,2.307279348E0,1.092024422E1
4.132268631E0,9.684949517E-1,2.397608280E0,1.107278633E1
4.134504227E0,1.761117458E0,2.211566210E0,1.048893833E1
4.136741532E0,2.694318295E0,1.694118381E0,9.687940598E0
4.138978348E0,3.219542980E0,1.698305845E0,9.263215065E0
4.141215775E0,2.872583628E0,2.295913219E0,9.388239861E0
4.143453201E0,2.144567251E0,2.868994236E0,9.828518867E0
4.145690567E0,1.249053478E0,2.977269650E0,1.000618649E1
4.147924210E0,4.929214716E-1,2.616551638E0,9.837491989E0
4.150150895E0,1.387837082E-1,1.876571178E0,9.644869804E0
4.152388809E0,6.083751321E-1,1.233500123E0,9.631111145E0
4.154625809E0,1.954936147E0,1.227517962E0,9.591031075E0
4.156876542E0,3.254837036E0,1.793420553E0,9.263813019E0
4.159114090E0,4.009772778E0,2.085345030E0,8.788239479E0
4.161351883E0,3.847060680E0,1.959721804E0,8.601000786E0
4.163586929E0,2.767299414E0,2.045863390E0,8.986844063E0
4.165819901E0,8.542376757E-1,1.776670814E0,9.265607834E0
4.168047440E0,-7.435696125E-1,8.219345808E-1,8.994620323E0
4.170289627E0,-4.899304509E-1,5.712863803E-1,8.592027664E0
4.172530961E0,7.866404653E-1,9.637092948E-1,8.474779129E0
4.174761979E0,2.170290232E0,1.488933921E0,8.310273170E0
4.177009415E0,3.262015581E0,2.056631088E0,8.171489716E0
4.179245255E0,4.071387768E0,2.724826813E0,8.849854469E0
4.181485856E0,3.582653761E0,2.835494757E0,1.026640511E1
4.183719071E0,2.163709879E0,2.449054003E0,1.146520996E1
4.185956620E0,1.077368379E0,1.995614052E0,1.172782230E1
4.188189713E0,8.315058947E-1,1.481755376E0,1.096810055E1
4.190418045E0,1.039681435E0,9.493523836E-1,9.707083702E0
4.192666642E0,1.477568030E0,8.183453679E-1,8.676973343E0
4.194903885E0,2.320439816E0,1.369292736E0,7.896913052E0
4.197144120E0,2.902493954E0,1.884347796E0,7.314858913E0
4.199375870E0,2.940180779E0,1.859821439E0,7.348358154E0
4.201603653E0,2.602792740E0,1.511665702E0,8.204390526E0
4.203853104E0,1.584048629E0,1.569691658E0,9.296115875E0
4.206088700E0,2.404786795E-1,1.877767563E0,1.010847950E1
4.208325699E0,-6.155536175E-1,1.954936147E0,1.069172955E1
4.210550797E0,2.093719840E-1,2.251047850E0,1.107039356E1
4.212799942E0,2.102692842E0,2.831307411E0,1.083888817E1
4.215034745E0,3.569493294E0,3.009572744E0,9.869794846E0
4.217266984E0,4.471587181E0,2.807379246E0,9.291928291E0
4.219511307E0,4.347160339E0,2.070987940E0,9.735796928E0
4.221748856E0,3.297309637E0,1.437488198E0,1.051884842E1
4.223987686E0,1.974078655E0,1.316052437E0,1.103151035E1
4.226222000E0,1.123430252E0,1.227517962E0,1.120020485E1
4.228458878E0,7.411768436E-1,7.812566161E-1,1.079641533E1
4.230696060E0,8.500502706E-1,8.225327730E-1,9.834501266E0
4.232933182E0,1.189232826E0,1.783849239E0,8.700901031E0
4.235170975E0,1.356132269E0,2.688336134E0,8.062017441E0
4.237407303E0,1.593021631E0,3.163311481E0,8.035098076E0
4.239645157E0,2.024327993E0,3.097508907E0,8.482556343E0
4.241880936E0,2.288734913E0,2.440080881E0,9.034101486E0
4.244117996E0,2.379063845E0,1.680957913E0,9.498908043E0
4.246354874E0,2.240280151E0,1.345364571E0,1.012762165E1
4.248592362E0,2.210369825E0,1.610369682E0,1.075155067E1
4.250829544E0,2.149951220E0,2.122433662E0,1.085503960E1
4.253067520E0,2.423331022E0,2.536990166E0,1.032742214E1
4.255303482E0,2.592623234E0,2.519642353E0,9.504291534E0
4.257541153E0,2.623131752E0,1.962712765E0,8.871390343E0
4.259777481E0,2.410768747E0,1.454836130E0,8.708079338E0
4.262012650E0,2.179263115E0,1.433300734E0,8.886942863E0
4.264238907E0,1.908276081E0,1.637887120E0,8.998807907E0
4.266488297E0,1.780260086E0,1.683350682E0,8.921041489E0
4.268725113E0,1.686341763E0,1.384247899E0,8.763712883E0
4.270966507E0,1.697109461E0,1.140179992E0,8.735597610E0
4.273199539E0,1.778465390E0,1.271785259E0,8.974281311E0
4.275437393E0,1.878365755E0,1.402194023E0,9.332606316E0
4.277673111E0,2.105684042E0,1.670190215E0,9.562915802E0
4.279910294E0,2.546561480E0,2.164906263E0,9.790233612E0
4.282147294E0,2.693720102E0,2.609971285E0,1.018205833E1
4.284384354E0,2.277369022E0,2.404786825E0,1.040758228E1
4.286621719E0,1.957927108E0,1.840678811E0,1.036750221E1
4.288859452E0,2.049452543E0,1.462612867E0,1.019701385E1
4.291095841E0,2.394019127E0,1.352542996E0,1.007677460E1
4.293333634E0,2.425125837E0,1.581057549E0,1.017667484E1
4.295569413E0,2.107478619E0,2.140978098E0,1.018205833E1
4.297807572E0,1.520040631E0,2.036890268E0,9.719047546E0
4.300045243E0,1.334596872E0,1.487737536E0,9.151350021E0
4.302270768E0,1.438086390E0,1.451845169E0,9.328418732E0
4.304517655E0,1.558923960E0,1.896311998E0,1.001097202E1
4.306754350E0,1.850250125E0,2.321038008E0,1.032742214E1
4.308994218E0,2.475973129E0,2.327618122E0,9.927821159E0
4.311229630E0,2.946761131E0,2.117648125E0,9.393623352E0
4.313465348E0,2.755335331E0,1.771286964E0,9.363713264E0
4.315702225E0,2.103291035E0,1.692921996E0,9.863813400E0
4.317939225E0,1.592423439E0,1.874178290E0,1.057866859E1
4.320176346E0,1.730608940E0,2.032702923E0,1.100877857E1
4.322412186E0,2.097309113E0,2.052443504E0,1.071625614E1
4.324644364E0,2.354537487E0,1.832902193E0,9.856036186E0
4.326887833E0,2.440080881E0,1.700698733E0,9.141778946E0
4.329125565E0,2.351546526E0,1.902892232E0,9.140582085E0
4.331363175E0,2.155933142E0,2.285743713E0,9.729815483E0
4.333598465E0,1.761117458E0,2.375474691E0,1.017428207E1
4.335835282E0,1.625324726E0,2.219941139E0,1.011087227E1
4.338068497E0,1.703091502E0,1.823330879E0,9.806983948E0
4.340292923E0,1.897508383E0,1.606182218E0,9.704689980E0
4.342545059E0,2.120639086E0,1.898106575E0,9.858428955E0
4.344784073E0,2.252842426E0,2.446063042E0,9.902098656E0
4.347025956E0,2.373680115E0,2.736790895E0,9.721440315E0
4.349255326E0,2.415554523E0,2.460419893E0,9.340383530E0
4.351482743E0,2.320439816E0,1.966302037E0,8.973683357E0
4.353731461E0,2.221735716E0,1.394417405E0,8.901898384E0
4.355968582E0,2.102094650E0,1.261017561E0,9.239884377E0
4.358206192E0,1.722234130E0,1.441077471E0,9.736394882E0
4.360432022E0,1.301097274E0,1.542174220E0,9.866206169E0
4.362680313E0,1.482951880E0,1.746162295E0,9.652647018E0
4.364914994E0,2.021935225E0,2.117049932E0,9.399605751E0
4.367145402E0,2.087139606E0,2.250449657E0,9.323633194E0
4.369388139E0,1.852642894E0,1.962114573E0,9.393623352E0
4.371616532E0,2.006979942E0,1.910070658E0,9.733404160E0
4.373867631E0,2.462214470E0,2.192423820E0,1.023769188E1
4.376102066E0,2.467000246E0,2.038086653E0,1.055294609E1
4.378342423E0,2.169692039E0,1.707278967E0,1.058883858E1
4.380576065E0,2.175673962E0,1.760519266E0,1.051705360E1
4.382811112E0,2.224128723E0,1.990230203E0,1.028853893E1
4.385035050E0,2.034497499E0,2.187039852E0,9.795019150E0
4.387272355E0,2.078764677E0,2.227717876E0,9.147162437E0
4.389509049E0,2.586641312E0,1.949552298E0,8.637491226E0
4.391749039E0,2.670988321E0,1.361516118E0,8.343173981E0
4.393986160E0,1.951346874E0,9.846464992E-1,8.437690735E0
4.396224320E0,1.206580877E0,8.303094506E-1,9.050851822E0
4.398461258E0,9.816554785E-1,9.972088337E-1,9.902098656E0
4.400699173E0,1.029511929E0,1.663011789E0,1.051167011E1
4.402934342E0,1.597209096E0,2.298904419E0,1.076411247E1
4.405172318E0,2.419143677E0,2.306680918E0,1.045184898E1
4.407409806E0,3.247060299E0,2.353939295E0,1.001575756E1
4.409645401E0,3.674777269E0,2.744567633E0,1.000020409E1
4.411882767E0,3.218944550E0,2.558525562E0,1.033460140E1
4.414120194E0,2.418545485E0,1.966900229E0,1.053799057E1
4.416357559E0,1.877767563E0,1.697707653E0,1.056730270E1
4.418594620E0,1.481755376E0,1.464407444E0,1.053978539E1
4.420830643E0,1.181456208E0,1.116251707E0,1.028495026E1
4.423067276E0,1.509871125E0,1.315454245E0,9.710672379E0
4.425306412E0,2.135594130E0,1.877767563E0,9.167501450E0
4.427549942E0,2.675175667E0,2.362314224E0,9.032905579E0
4.429780289E0,2.883949518E0,2.688336134E0,9.306285858E0
4.432025406E0,2.672184706E0,2.441277266E0,9.557532310E0
4.434256241E0,2.311466694E0,1.833500385E0,9.841081619E0
4.436490677E0,2.005783558E0,1.433898926E0,1.026341438E1
4.438724503E0,1.599003673E0,1.644467354E0,1.052662468E1
4.440962051E0,1.489532113E0,1.862812400E0,1.023888779E1
4.443200211E0,1.902294040E0,1.912463546E0,9.637093544E0
4.445437271E0,2.565105915E0,2.157727718E0,9.261420250E0
4.447674759E0,2.893520832E0,2.277369022E0,9.173483849E0
4.449912979E0,2.593221426E0,2.094916344E0,9.218947411E0
4.452152054E0,2.085345030E0,1.871785522E0,9.481559753E0
4.454401505E0,1.578664780E0,1.661217093E0,1.010668468E1
4.456636918E0,1.197607756E0,1.893320918E0,1.085623646E1
4.458873978E0,1.414158225E0,2.395813704E0,1.104826069E1
4.461107682E0,2.187039852E0,2.492124796E0,1.046381378E1
4.463345230E0,3.223730326E0,2.169692039E0,9.586843491E0
4.465579362E0,3.386442184E0,1.773679733E0,8.950352669E0
4.467808243E0,2.434098721E0,1.534397483E0,8.974879265E0
4.470056473E0,1.492523074E0,1.449452281E0,9.696315765E0
4.472294388E0,1.271785259E0,1.496710539E0,1.044287586E1
4.474533341E0,1.430907965E0,1.618146300E0,1.055354404E1
4.476767227E0,1.914856315E0,1.642672777E0,1.001934624E1
4.479004227E0,2.533999205E0,1.712662816E0,9.376275063E0
4.481241288E0,3.129213810E0,2.364108801E0,9.237491608E0
4.483478897E0,2.784049034E0,2.874976397E0,9.591031075E0
4.485716385E0,1.742573142E0,2.414358139E0,1.016889763E1
4.487952774E0,1.361516118E0,1.910070658E0,1.080060291E1
4.490190445E0,1.384846091E0,1.797608018E0,1.124447155E1
4.492426102E0,1.332802176E0,1.359721422E0,1.100638580E1
4.494663407E0,1.976471543E0,1.320239902E0,1.013001442E1
4.496900223E0,3.122633457E0,1.872383714E0,9.152546883E0
4.499137528E0,3.488137245E0,2.088335991E0,8.764310837E0
4.501374649E0,2.931207657E0,2.219342947E0,9.169296265E0
4.503612625E0,1.805982947E0,2.121835470E0,1.012702370E1
4.505845718E0,8.488538265E-1,1.706082582E0,1.103928757E1
4.508074966E0,8.500502706E-1,1.354935765E0,1.141196918E1
4.510323807E0,1.519442320E0,1.442273855E0,1.115055370E1
4.512559708E0,2.216351986E0,1.869990945E0,1.048415279E1
4.514799454E0,2.913261652E0,2.293520451E0,9.731609344E0
4.517033158E0,3.203391314E0,2.620738983E0,9.366703987E0
4.519270828E0,2.867199659E0,2.630310297E0,9.497113228E0
4.521508621E0,2.177468538E0,2.184647083E0,9.863214493E0
4.523744949E0,1.649253011E0,1.517049551E0,1.004088211E1
4.525982498E0,1.434497118E0,1.176670551E0,9.934401512E0
4.528215531E0,1.383051515E0,1.225723386E0,9.843474388E0
4.530444413E0,1.787438512E0,1.631306887E0,9.703494072E0
4.532692460E0,2.333600283E0,2.221735716E0,9.602396965E0
4.534929581E0,2.633301258E0,2.361117840E0,9.490532875E0
4.537169877E0,2.802593470E0,2.085943222E0,9.425926208E0
4.539404679E0,2.571087837E0,1.711466432E0,9.534201622E0
4.541641251E0,1.952543259E0,1.494317770E0,9.838688850E0
4.543878739E0,1.523629785E0,1.518844128E0,1.014018440E1
4.546114579E0,1.679163337E0,1.645663738E0,1.008873844E1
4.548348648E0,2.387438774E0,2.062014818E0,9.732208252E0
4.550576737E0,2.580060959E0,2.157727718E0,9.214161873E0
4.552825760E0,2.493321180E0,2.006979942E0,8.984451294E0
4.555063126E0,2.193022013E0,1.881356835E0,9.191430092E0
4.557303849E0,1.460219979E0,1.554736495E0,9.748359680E0
4.559537186E0,1.315454245E0,1.703091502E0,1.017547798E1
4.561774735E0,1.515254974E0,1.920838356E0,1.011027431E1
4.564010514E0,2.202593327E0,2.108675003E0,9.563513756E0
4.566247635E0,2.784647465E0,2.251646042E0,8.953344345E0
4.568484757E0,2.798406124E0,2.089532375E0,8.724829674E0
4.570722000E0,2.434098721E0,1.963909149E0,9.141180992E0
4.572959122E0,1.936989903E0,1.866999865E0,1.000498962E1
4.575196854E0,1.354935765E0,1.671984792E0,1.054816055E1
4.577433121E0,1.299900889E0,1.510469317E0,1.055713367E1
4.579670792E0,1.770688772E0,1.385444283E0,1.017547798E1
4.581906815E0,2.285743713E0,1.576870084E0,9.602995872E0
4.584143875E0,2.629712105E0,1.884347796E0,9.128618240E0
4.586380753E0,2.521436930E0,1.953739643E0,8.998807907E0
4.588617996E0,2.051247120E0,2.045863390E0,9.232706070E0
4.590855362E0,1.281356573E0,2.031506538E0,9.664610863E0
4.593090348E0,5.078766346E-1,1.816152334E0,1.012044334E1
4.595318192E0,3.361915946E-1,1.759322882E0,1.050987530E1
4.597567032E0,9.302098155E-1,2.146960020E0,1.064387321E1
4.599802994E0,1.959123492E0,2.587239504E0,1.036151981E1
4.602042679E0,3.192025423E0,2.776272535E0,9.857233047E0
4.604276932E0,3.949353695E0,3.010170937E0,9.640084267E0
4.606513932E0,3.373879910E0,3.017947674E0,9.792028427E0
4.608751419E0,2.057229280E0,2.553740025E0,1.001396275E1
4.610989273E0,8.799605370E-1,1.691127419E0,1.006181908E1
4.613225235E0,4.378865361E-1,1.210170031E0,1.001575756E1
4.615463211E0,6.951149702E-1,1.393819213E0,9.908080101E0
4.617698746E0,1.245464206E0,1.794018745E0,9.454640388E0
4.619936173E0,1.956132531E0,2.306680918E0,8.979066849E0
4.622172867E0,2.774477959E0,2.873181820E0,8.937790871E0
4.624409989E0,3.000001431E0,2.815155745E0,9.378668785E0
4.626647293E0,2.304886341E0,2.407179594E0,9.911669731E0
4.628885086E0,1.456032634E0,2.240878344E0,1.032861900E1
4.631121475E0,9.439685345E-1,2.070389748E0,1.054816055E1
4.633359268E0,7.375875711E-1,1.869392633E0,1.025623608E1
4.635595108E0,1.208973646E0,2.013560295E0,9.640084267E0
4.637832413E0,2.136192322E0,2.288734913E0,9.209376335E0
4.640069108E0,3.035893679E0,2.419741869E0,8.969495773E0
4.642305985E0,2.877967358E0,2.407777786E0,8.944371223E0
4.644543533E0,1.942373753E0,2.081755638E0,9.122037888E0
4.646781266E0,1.440479279E0,1.728216171E0,9.580862045E0
4.649014603E0,1.274776220E0,1.861616015E0,1.016530895E1
4.651240800E0,1.250249863E0,2.376671076E0,1.056490993E1
4.653479386E0,1.449452281E0,2.555534601E0,1.053799057E1
4.655728592E0,2.148156643E0,2.590230465E0,1.009113121E1
4.657967789E0,2.772084951E0,2.811566591E0,9.777072906E0
4.660205155E0,2.653640270E0,2.631506681E0,9.885947227E0
4.662438432E0,2.295913219E0,2.276770830E0,1.020778179E1
4.664670365E0,1.760519266E0,2.111665964E0,1.039860916E1
4.666899369E0,1.524826288E0,1.896311998E0,1.012941647E1
4.669138199E0,1.596610904E0,1.634896040E0,9.620343208E0
4.671380143E0,1.608574986E0,1.583450437E0,9.263215065E0
4.673623123E0,1.835893154E0,2.039881229E0,9.178867340E0
4.675861344E0,2.084746838E0,2.446661234E0,9.346963882E0
4.678097427E0,2.154138565E0,2.372483730E0,9.567103386E0
4.680325211E0,2.212164640E0,2.279163599E0,9.873384476E0
4.682569596E0,2.107478619E0,2.169692039E0,1.020598698E1
4.684791092E0,2.015354872E0,2.099103689E0,1.022453117E1
4.687050309E0,1.859223247E0,2.073979139E0,9.936794281E0
4.689280289E0,1.936989903E0,1.993221283E0,9.618548393E0
4.691513260E0,2.088335991E0,2.059023857E0,9.395418167E0
4.693757157E0,2.011765718E0,1.955534339E0,9.227920532E0
4.695994522E0,2.115853310E0,1.929811478E0,9.309874535E0
