"Time (s)","Gyroscope x (rad/s)","Gyroscope y (rad/s)","Gyroscope z (rad/s)"
2.507979800E-2,-7.101308554E-2,1.638645977E-1,2.474004179E-1
2.731662500E-2,-8.872817457E-2,1.992947906E-1,2.547308207E-1
2.955345200E-2,-9.407325089E-2,1.872301996E-1,2.643519342E-1
3.181680600E-2,-8.933904022E-2,1.131627858E-1,2.690861523E-1
3.405223900E-2,-7.299839705E-2,8.552113548E-3,2.614503205E-1
3.629248500E-2,-4.520402849E-2,-8.307767659E-2,2.380847335E-1
3.853730800E-2,-4.886921961E-3,-1.105666086E-1,2.162462920E-1
4.076576300E-2,4.062253982E-2,-4.825835302E-2,2.168571651E-1
4.301417600E-2,7.406741381E-2,8.811730891E-2,2.336559594E-1
4.524855100E-2,8.567385375E-2,2.396118939E-1,2.391537428E-1
4.748555000E-2,6.582073122E-2,3.455969989E-1,2.357939780E-1
4.970784100E-2,2.779436857E-2,3.547599912E-1,2.379320115E-1
5.194612200E-2,-1.740965992E-2,2.574796975E-1,2.432770878E-1
5.418495200E-2,-5.390885845E-2,9.422596544E-2,2.460259795E-1
5.643397500E-2,-7.040221989E-2,-5.467243865E-2,2.440406680E-1
5.867402700E-2,-6.078109145E-2,-1.227839142E-1,2.438879460E-1
6.091059900E-2,-3.527746722E-2,-8.200865984E-2,2.417499274E-1
6.314460800E-2,-8.246680722E-3,4.001167417E-2,2.474004179E-1
6.538063100E-2,1.298088674E-2,1.766927689E-1,2.493857294E-1
6.761879000E-2,2.596177347E-2,2.674062550E-1,2.461786866E-1
6.985670500E-2,3.588833287E-2,2.696970105E-1,2.351831198E-1
7.209285000E-2,3.802636266E-2,1.907426715E-1,2.312124968E-1
7.432972700E-2,2.977968007E-2,9.025534242E-2,2.380847335E-1
7.656648300E-2,1.603521220E-2,2.260201424E-2,2.390010208E-1
7.880378800E-2,-0.000000000E0,1.679879427E-2,2.364048511E-1
8.104090900E-2,-1.038470957E-2,5.696318299E-2,2.437352389E-1
8.327894600E-2,-5.803219974E-3,9.941831976E-2,2.501493096E-1
8.551521300E-2,-3.054326226E-4,1.272126883E-1,2.454151064E-1
8.775282300E-2,1.588249579E-2,1.281289905E-1,2.295326144E-1
8.998860200E-2,2.809980139E-2,1.206458881E-1,2.235766798E-1
9.222297700E-2,1.572977938E-2,1.269072592E-1,2.406809032E-1
9.445106500E-2,-1.007927675E-2,1.322523206E-1,2.477058619E-1
9.670008900E-2,-2.000583708E-2,1.227839142E-1,2.304489166E-1
9.893733200E-2,-1.191187184E-2,9.346238524E-2,2.182316035E-1
1.011778110E-1,8.399397135E-3,6.520986557E-2,2.316706479E-1
1.034068760E-1,1.298088674E-2,5.543602258E-2,2.464841306E-1
1.056286770E-1,9.162978968E-4,6.780604273E-2,2.451096773E-1
1.078728790E-1,-1.970040426E-2,7.910704613E-2,2.388483137E-1
1.101219640E-1,-3.207042441E-2,7.681630552E-2,2.350303978E-1
1.123632970E-1,-2.855795063E-2,6.704246253E-2,2.486221492E-1
1.145989540E-1,-9.010262787E-3,6.673702598E-2,2.561052442E-1
1.168331450E-1,2.932153270E-2,6.475171447E-2,2.380847335E-1
1.190710600E-1,7.162395120E-2,8.216137439E-2,2.225076705E-1
1.213072050E-1,1.006400511E-1,1.191187203E-1,2.266310006E-1
1.235449980E-1,9.789115191E-2,1.653917581E-1,2.304489166E-1
1.257805330E-1,5.772676691E-2,1.892155111E-1,2.179261744E-1
1.280205240E-1,5.955935922E-3,1.805106848E-1,2.150245607E-1
1.302652740E-1,-5.543602258E-2,1.392772794E-1,2.315179259E-1
1.324923860E-1,-1.082758680E-1,8.933904022E-2,2.577851415E-1
1.347267010E-1,-1.227839142E-1,4.230241850E-2,2.635883391E-1
1.369527750E-1,-9.651670605E-2,-7.635815418E-4,2.513710558E-1
1.392032010E-1,-3.634648025E-2,-9.162978269E-3,2.408336252E-1
1.414412390E-1,3.329215571E-2,2.336559631E-2,2.477058619E-1
1.436800090E-1,8.750644326E-2,8.674286306E-2,2.484694421E-1
1.459142000E-1,1.197295859E-1,1.516472995E-1,2.293798923E-1
1.481479650E-1,1.269072592E-1,1.976149082E-1,2.136501223E-1
1.503762970E-1,1.076650023E-1,2.197587788E-1,2.185370475E-1
1.526255650E-1,6.551529467E-2,2.133446932E-1,2.341141105E-1
1.548631140E-1,3.039054573E-2,1.824959964E-1,2.373211533E-1
1.570995640E-1,3.817907767E-3,1.404990107E-1,2.307543457E-1
1.593228300E-1,-1.908953860E-2,1.117883399E-1,2.402227521E-1
1.615614780E-1,-3.802636266E-2,9.514226019E-2,2.571742535E-1
1.638106840E-1,-5.940664560E-2,7.376197726E-2,2.617557645E-1
1.660500650E-1,-6.826419383E-2,6.062837690E-2,2.530509233E-1
1.682871860E-1,-6.322455406E-2,6.291911751E-2,2.532036304E-1
1.705215610E-1,-2.825251780E-2,8.765916526E-2,2.608394623E-1
1.727595980E-1,4.642575979E-2,1.238529310E-1,2.444988191E-1
1.749957430E-1,1.424843222E-1,1.730275750E-1,2.089159191E-1
1.772335360E-1,2.150245607E-1,2.249511331E-1,1.937969923E-1
1.794692540E-1,2.269364446E-1,2.660318017E-1,2.038762718E-1
1.817063750E-1,1.618792862E-1,2.817615867E-1,2.180788964E-1
1.839431310E-1,3.940080851E-2,2.587014437E-1,2.302961946E-1
1.861802520E-1,-8.979719132E-2,2.029599845E-1,2.461786866E-1
1.884178620E-1,-1.765400618E-1,1.295034289E-1,2.695443034E-1
1.906556550E-1,-1.902845204E-1,5.925392732E-2,2.777909636E-1
1.928919830E-1,-1.172861308E-1,9.315694682E-3,2.646573782E-1
1.951294710E-1,-2.748893574E-3,2.290744567E-3,2.435825169E-1
1.973652500E-1,1.136209369E-1,3.512475267E-2,2.287690341E-1
1.996023100E-1,1.875356287E-1,9.437867999E-2,2.223549485E-1
2.018391880E-1,1.942551434E-1,1.805106848E-1,2.215913683E-1
2.040764930E-1,1.420261711E-1,2.797762752E-1,2.313652188E-1
2.063139190E-1,5.940664560E-2,3.408628106E-1,2.443460971E-1
2.085518950E-1,2.596177394E-3,3.323107064E-1,2.522873580E-1
2.107880400E-1,-1.985312067E-2,2.550362349E-1,2.469422817E-1
2.130234530E-1,-1.221730490E-3,1.429424733E-1,2.380847335E-1
2.152511750E-1,3.115412779E-2,3.558290005E-2,2.306016237E-1
2.174983680E-1,4.184427112E-2,-4.352414981E-2,2.266310006E-1
2.197352450E-1,1.175915636E-2,-6.597344577E-2,2.446515262E-1
2.219748090E-1,-5.268712714E-2,-1.740965992E-2,2.651155293E-1
2.242100980E-1,-1.084285825E-1,8.200865984E-2,2.663372457E-1
2.264476470E-1,-1.122464910E-1,1.913535446E-1,2.507601976E-1
2.286842800E-1,-3.573561832E-2,2.614503205E-1,2.406809032E-1
2.309217070E-1,8.903361112E-2,2.796235681E-1,2.260201424E-1
2.331575470E-1,2.018909603E-1,2.495384514E-1,2.145664245E-1
2.353945470E-1,2.417499274E-1,2.098322064E-1,2.073887438E-1
2.376314240E-1,1.930334121E-1,1.744020283E-1,2.006692290E-1
2.398687290E-1,7.192938030E-2,1.597412676E-1,2.142609805E-1
2.421060940E-1,-7.956519723E-2,1.627955884E-1,2.411390543E-1
2.443438270E-1,-1.930334121E-1,1.565342247E-1,2.597704530E-1
2.465799100E-1,-2.295326144E-1,1.244637966E-1,2.654209435E-1
2.488177040E-1,-1.719585657E-1,4.810563847E-2,2.667953968E-1
2.510535440E-1,-5.513058975E-2,-1.847867295E-2,2.602286041E-1
2.532909090E-1,7.406741381E-2,-2.962696366E-2,2.380847335E-1
2.555276650E-1,1.689042449E-1,1.832595654E-2,2.047925740E-1
2.577647250E-1,1.908953935E-1,1.270599663E-1,1.944078654E-1
2.600020300E-1,1.357648075E-1,2.713768780E-1,2.251038402E-1
2.622398230E-1,2.443460934E-2,3.828597963E-1,2.612976134E-1
2.644762120E-1,-6.261368841E-2,3.941608071E-1,2.580905557E-1
2.667140050E-1,-7.544185966E-2,3.010038435E-1,2.283108830E-1
2.689497840E-1,-2.153299935E-2,1.579086632E-1,2.012801021E-1
2.711869050E-1,5.711590126E-2,2.779436857E-2,2.050980031E-1
2.734239050E-1,9.376781434E-2,-4.092797264E-2,2.197587788E-1
2.756609650E-1,5.329799280E-2,-2.916881628E-2,2.353358418E-1
2.778983310E-1,-5.604688451E-2,4.825835302E-2,2.432770878E-1
2.801360630E-1,-1.747074574E-1,1.501201391E-1,2.538145185E-1
2.823723910E-1,-2.290744632E-1,2.057088763E-1,2.571742535E-1
2.846099400E-1,-1.776090711E-1,1.876883507E-1,2.464841306E-1
2.868457190E-1,-4.963280261E-2,1.233947799E-1,2.425135076E-1
2.890827790E-1,8.979719132E-2,7.574728876E-2,2.348776907E-1
2.913196570E-1,1.766927689E-1,4.978551716E-2,2.293798923E-1
2.935570220E-1,1.886046380E-1,7.987063378E-2,2.052507252E-1
2.957945710E-1,1.272126883E-1,1.490511149E-1,1.988366395E-1
2.980315100E-1,2.031126991E-2,2.275473028E-1,2.202169150E-1
3.002638710E-1,-7.269296050E-2,2.597704530E-1,2.354885489E-1
3.024945830E-1,-1.339322031E-1,2.171625942E-1,2.434297949E-1
3.047298740E-1,-1.531744599E-1,1.168279797E-1,2.562579811E-1
3.069799960E-1,-1.397354305E-1,-2.290744567E-3,2.620611787E-1
3.092140660E-1,-1.070541367E-1,-9.392052889E-2,2.521346211E-1
3.114394080E-1,-6.078109145E-2,-1.301143020E-1,2.278527319E-1
3.136904450E-1,-7.024950348E-3,-9.346238524E-2,2.162462920E-1
3.159279940E-1,3.054326214E-2,2.901609987E-3,2.267837226E-1
3.181656650E-1,3.436116874E-2,1.362229437E-1,2.481640130E-1
3.203904570E-1,4.734205548E-3,2.629774809E-1,2.667953968E-1
3.226380770E-1,-3.573561832E-2,3.330742717E-1,2.764165103E-1
3.248753210E-1,-4.245513305E-2,2.991712391E-1,2.603813112E-1
3.271148230E-1,-2.901609987E-3,1.745547503E-1,2.284636050E-1
3.293462680E-1,5.558873713E-2,1.450804994E-2,2.049452960E-1
3.315747220E-1,9.636399150E-2,-9.789115191E-2,2.122756690E-1
3.338241120E-1,7.376197726E-2,-1.108720452E-1,2.302961946E-1
3.360606230E-1,3.054326226E-4,-2.809980139E-2,2.374738604E-1
3.383004310E-1,-8.811730891E-2,1.033889428E-1,2.383901626E-1
3.405313270E-1,-1.452332139E-1,2.028072625E-1,2.444988191E-1
3.427710730E-1,-1.401935667E-1,2.148718536E-1,2.554943860E-1
3.450081330E-1,-9.590584040E-2,1.533271819E-1,2.629774809E-1
3.472458650E-1,-3.222314268E-2,7.437284291E-2,2.632829249E-1
3.494825590E-1,2.092213556E-2,1.634064503E-2,2.438879460E-1
3.517202910E-1,5.009094998E-2,-3.665191587E-3,2.232712507E-1
3.539566800E-1,6.673702598E-2,2.764165215E-2,2.211332172E-1
3.561944740E-1,4.978551716E-2,1.020144969E-1,2.359467000E-1
3.584302520E-1,6.872233935E-3,1.829541475E-1,2.530509233E-1
3.606673740E-1,-3.268129006E-2,2.370157093E-1,2.602286041E-1
3.629043740E-1,-5.864306539E-2,2.278527319E-1,2.538145185E-1
3.651414340E-1,-5.513058975E-2,1.550070494E-1,2.400700450E-1
3.673787390E-1,-2.764165215E-2,5.253441259E-2,2.338086665E-1
3.696162880E-1,-3.359758761E-3,-2.565634064E-2,2.336559594E-1
3.718528600E-1,7.330383174E-3,-4.520402849E-2,2.275473028E-1
3.740904090E-1,-5.039638374E-3,1.328631863E-2,2.313652188E-1
3.763262490E-1,-4.138612002E-2,1.073595658E-1,2.486221492E-1
3.785633700E-1,-7.635815442E-2,2.050980031E-1,2.585487068E-1
3.808005530E-1,-8.674286306E-2,2.405281961E-1,2.499966025E-1
3.830371860E-1,-5.543602258E-2,2.011273801E-1,2.377792895E-1
3.852747960E-1,7.635815418E-4,1.211040318E-1,2.417499274E-1
3.875124670E-1,5.115996301E-2,4.734205827E-2,2.356412709E-1
3.897490390E-1,7.238753140E-2,1.985311974E-3,2.160935849E-1
3.919869540E-1,5.268712714E-2,-4.886921961E-3,2.171625942E-1
3.942224890E-1,-2.290744567E-3,2.901609987E-2,2.364048511E-1
3.964595490E-1,-6.994406879E-2,9.697485715E-2,2.568688393E-1
3.986962440E-1,-1.218676195E-1,1.478293836E-1,2.603813112E-1
4.009334260E-1,-1.279762685E-1,1.492038369E-1,2.553416789E-1
4.031682290E-1,-7.727445662E-2,9.346238524E-2,2.495384514E-1
4.053947910E-1,2.596177394E-3,2.275473066E-2,2.327396572E-1
4.076309970E-1,7.834346592E-2,-1.389718428E-2,2.136501223E-1
4.098679960E-1,1.047633886E-1,1.588249579E-2,2.054034323E-1
4.121095730E-1,6.230825558E-2,1.102611795E-1,2.214386463E-1
4.143585970E-1,-2.809980139E-2,2.151772827E-1,2.492330223E-1
4.165955360E-1,-1.244637966E-1,2.667953968E-1,2.645046413E-1
4.188325960E-1,-1.679879427E-1,2.385428846E-1,2.614503205E-1
4.210669710E-1,-1.553124934E-1,1.375973970E-1,2.501493096E-1
4.233047030E-1,-9.498954564E-2,1.007927675E-2,2.428189367E-1
4.255409090E-1,-3.191770986E-2,-9.666942805E-2,2.356412709E-1
4.277789460E-1,7.941247895E-3,-1.398881376E-1,2.272418737E-1
4.300147860E-1,1.496619824E-2,-1.012509167E-1,2.225076705E-1
4.322520910E-1,-4.886921961E-3,1.450804994E-2,2.252565622E-1
4.344885410E-1,-3.039054573E-2,1.557706445E-1,2.330450863E-1
4.367256630E-1,-4.795292020E-2,2.628247738E-1,2.382374406E-1
4.389632110E-1,-4.108068720E-2,2.991712391E-1,2.444988191E-1
4.412010650E-1,-2.626720630E-2,2.429716438E-1,2.406809032E-1
4.434373930E-1,-1.756237634E-2,1.215621829E-1,2.328923792E-1
4.456748810E-1,-3.115412779E-2,-9.315694682E-3,2.225076705E-1
4.479106600E-1,-5.986479297E-2,-8.643743396E-2,2.218967974E-1
4.501477820E-1,-9.193521738E-2,-8.949175477E-2,2.302961946E-1
4.523848420E-1,-1.128573567E-1,-1.985312067E-2,2.400700450E-1
4.546219030E-1,-1.120937690E-1,8.093964309E-2,2.478585690E-1
4.568592680E-1,-8.063421398E-2,1.711949855E-1,2.521346211E-1
4.590969390E-1,-3.680463135E-2,2.055561543E-1,2.417499274E-1
4.613330840E-1,2.168571576E-2,1.692096740E-1,2.225076705E-1
4.635708770E-1,5.360342562E-2,1.018617824E-1,2.115120888E-1
4.658067170E-1,5.253441259E-2,5.100724846E-2,2.148718536E-1
4.680412150E-1,5.650503561E-3,4.703662544E-2,2.243402600E-1
4.702660680E-1,-7.131851465E-2,8.491026610E-2,2.385428846E-1
4.725047150E-1,-1.406517178E-1,1.287398487E-1,2.466368377E-1
4.747552030E-1,-1.708895564E-1,1.524108797E-1,2.477058619E-1
4.769958650E-1,-1.553124934E-1,1.302670091E-1,2.477058619E-1
4.792326810E-1,-1.036943719E-1,6.856962293E-2,2.503020465E-1
4.814671790E-1,-4.841107130E-2,3.207042580E-3,2.420553565E-1
4.837029580E-1,-7.024950348E-3,-2.916881628E-2,2.263255715E-1
4.859400790E-1,3.359758761E-3,-7.483099122E-3,2.179261744E-1
4.881743930E-1,-1.374446787E-2,6.566801667E-2,2.254092693E-1
4.904033970E-1,-3.405573592E-2,1.569923609E-1,2.341141105E-1
4.926515050E-1,-4.886921868E-2,2.179261744E-1,2.318233550E-1
4.948892370E-1,-4.871650413E-2,2.240348309E-1,2.293798923E-1
4.971282510E-1,-5.329799280E-2,1.780672222E-1,2.304489166E-1
4.993631750E-1,-6.612616032E-2,9.575312585E-2,2.324342281E-1
5.015991980E-1,-8.765916526E-2,3.970623948E-3,2.306016237E-1
5.038361970E-1,-1.195768714E-1,-5.009094998E-2,2.350303978E-1
5.060728310E-1,-1.441642046E-1,-4.841107130E-2,2.434297949E-1
5.083100740E-1,-1.456913650E-1,2.596177394E-3,2.423607856E-1
5.105475010E-1,-1.122464910E-1,6.872233748E-2,2.356412709E-1
5.127855380E-1,-5.451972410E-2,1.197295859E-1,2.289217561E-1
5.150216220E-1,-1.221730467E-2,1.420261711E-1,2.293798923E-1
5.172594150E-1,-4.886921961E-3,1.357648075E-1,2.319760770E-1
5.194950720E-1,-3.390302137E-2,1.084285825E-1,2.437352389E-1
5.217290800E-1,-8.246681094E-2,7.910704613E-2,2.444988191E-1
5.239546660E-1,-1.113301888E-1,4.688390717E-2,2.269364446E-1
5.261956330E-1,-1.018617824E-1,2.962696366E-2,2.183843255E-1
5.284437410E-1,-6.490442902E-2,3.145955876E-2,2.199114859E-1
5.306842200E-1,-2.153299935E-2,4.276056588E-2,2.130392492E-1
5.329204870E-1,-1.252273750E-2,6.078109145E-2,2.095267773E-1
5.351553500E-1,-5.635231733E-2,9.193521738E-2,2.275473028E-1
5.373911900E-1,-1.282816976E-1,1.296561509E-1,2.431243658E-1
5.396282500E-1,-1.872301996E-1,1.369865239E-1,2.412917763E-1
5.418653110E-1,-1.927279830E-1,1.018617824E-1,2.313652188E-1
5.441023710E-1,-1.470658034E-1,4.871650413E-2,2.266310006E-1
5.463369300E-1,-7.987063378E-2,2.565634064E-2,2.319760770E-1
5.485662390E-1,-3.039054573E-2,3.680463135E-2,2.336559594E-1
5.508138580E-1,-6.108652335E-3,7.513642311E-2,2.231185287E-1
5.530515900E-1,-1.878410578E-2,1.142318025E-1,2.096794993E-1
5.552899940E-1,-4.428773001E-2,1.293507218E-1,2.058615834E-1
5.575244910E-1,-5.955936015E-2,1.090394482E-1,2.081523389E-1
5.597612460E-1,-6.505715102E-2,7.635815442E-2,2.102903575E-1
5.619984290E-1,-8.139779419E-2,6.322455406E-2,2.186897546E-1
5.642359160E-1,-1.123992056E-1,5.910121277E-2,2.318233550E-1
5.664735260E-1,-1.444696337E-1,5.482515693E-2,2.353358418E-1
5.687100980E-1,-1.547016203E-1,3.436116874E-2,2.203696370E-1
5.709475860E-1,-1.354593635E-1,8.552113548E-3,2.083050460E-1
5.731834260E-1,-9.728029370E-2,7.788531948E-3,2.122756690E-1
5.754204260E-1,-6.856962293E-2,3.023782931E-2,2.260201424E-1
5.776573030E-1,-5.421429127E-2,6.887505949E-2,2.238821089E-1
5.798946690E-1,-5.253441259E-2,8.933904022E-2,2.079996169E-1
5.821322180E-1,-5.971207842E-2,9.926560521E-2,2.092213482E-1
5.843697050E-1,-7.116580009E-2,9.101892263E-2,2.287690341E-1
5.866058500E-1,-7.635815442E-2,7.406741381E-2,2.286163121E-1
5.888438270E-1,-6.322455406E-2,4.963280261E-2,2.090686262E-1
5.910767370E-1,-4.352414981E-2,4.184427112E-2,1.970040351E-1
5.933050690E-1,-3.252857551E-2,3.802636266E-2,2.006692290E-1
5.955535440E-1,-4.001167417E-2,3.817907721E-2,2.141082734E-1
5.977908480E-1,-7.437284291E-2,5.100724846E-2,2.284636050E-1
6.000310830E-1,-1.207986027E-1,7.131851465E-2,2.367102802E-1
6.022657020E-1,-1.514945775E-1,7.437284291E-2,2.304489166E-1
6.045020300E-1,-1.383609772E-1,4.856378585E-2,2.194533348E-1
6.067398230E-1,-9.239336848E-2,7.635815535E-3,2.134974003E-1
6.089756630E-1,-3.130684420E-2,-1.786780916E-2,2.102903575E-1
6.112127840E-1,3.359758761E-3,-1.114829071E-2,2.105957866E-1
6.134497840E-1,1.527163084E-3,2.764165215E-2,2.119702399E-1
6.156867830E-1,-2.214386500E-2,6.933320314E-2,2.107485086E-1
6.179239050E-1,-5.360342562E-2,9.789115191E-2,2.069306076E-1
6.201616980E-1,-7.696902007E-2,9.712757170E-2,2.151772827E-1
6.223982700E-1,-8.506298810E-2,7.177666575E-2,2.260201424E-1
6.246358800E-1,-7.605272532E-2,2.916881628E-2,2.260201424E-1
6.268716590E-1,-5.711590126E-2,-1.237002108E-2,2.138028294E-1
6.291086580E-1,-3.649919853E-2,-3.588833287E-2,2.052507252E-1
6.313455970E-1,-1.817324013E-2,-3.985895589E-2,2.017382532E-1
6.335800320E-1,-1.679879427E-2,-2.901609987E-2,2.115120888E-1
6.358079990E-1,-1.863138936E-2,-2.290744567E-3,2.128865421E-1
6.380550080E-1,-2.657263726E-2,3.665191308E-2,2.116648108E-1
6.402822420E-1,-3.665191308E-2,8.429940045E-2,2.130392492E-1
6.425348670E-1,-4.489859566E-2,1.014036313E-1,2.167044431E-1
6.447676550E-1,-4.535674304E-2,7.956519723E-2,2.167044431E-1
6.470079500E-1,-3.665191308E-2,2.596177347E-2,2.153300047E-1
6.492389070E-1,-2.916881628E-2,-3.237585723E-2,2.089159191E-1
6.514673620E-1,-2.000583708E-2,-6.902777404E-2,1.991420686E-1
6.537162020E-1,-6.414085161E-3,-7.040221989E-2,1.992947906E-1
6.559513090E-1,7.635815535E-3,-4.046982154E-2,2.031126916E-1
6.581787260E-1,7.635815535E-3,1.908953860E-2,2.144137025E-1
6.604162140E-1,3.054326226E-4,8.964447677E-2,2.194533348E-1
6.626640780E-1,-3.665191587E-3,1.333213449E-1,2.122756690E-1
6.649038850E-1,-3.512475174E-3,1.357648075E-1,2.012801021E-1
6.671410070E-1,-9.162978269E-3,9.941831976E-2,2.035708427E-1
6.693720860E-1,-1.404990070E-2,4.734205827E-2,2.142609805E-1
6.715998080E-1,-2.122756653E-2,-5.803219974E-3,2.092213482E-1
6.738465120E-1,-1.908953860E-2,-2.535090782E-2,1.980730593E-1
6.760865020E-1,-1.267545391E-2,-1.084285788E-2,1.994474977E-1
6.783269200E-1,-1.084285788E-2,1.817324013E-2,2.069306076E-1
6.805605630E-1,-5.192354787E-3,5.451972410E-2,2.131919712E-1
6.827971960E-1,-6.108652335E-3,7.269296050E-2,2.133446932E-1
6.850340120E-1,-2.443460980E-3,6.536258012E-2,2.060143054E-1
6.872712560E-1,5.650503561E-3,4.092797264E-2,2.009746730E-1
6.895089260E-1,2.367102914E-2,1.878410578E-2,1.962404549E-1
6.917464750E-1,4.321871698E-2,5.039638374E-3,1.889100820E-1
6.939828030E-1,6.062837690E-2,1.435533352E-2,1.866193265E-1
6.962201690E-1,5.879577994E-2,4.963280261E-2,1.892155111E-1
6.984558260E-1,3.619376570E-2,9.132435173E-2,1.989893466E-1
7.006931310E-1,-4.123340361E-3,1.102611795E-1,2.061670274E-1
7.029300080E-1,-4.627304152E-2,9.407325089E-2,2.118175179E-1
7.051674350E-1,-7.452555746E-2,3.772092983E-2,2.162462920E-1
7.074049230E-1,-7.467827946E-2,-3.023782931E-2,2.159408629E-1
7.096424110E-1,-4.612032697E-2,-8.185594529E-2,2.086104751E-1
7.118748320E-1,7.941247895E-3,-9.376781434E-2,1.944078654E-1
7.141015170E-1,7.009678334E-2,-6.459899992E-2,1.828014255E-1
7.163518830E-1,1.169806942E-1,-1.221730490E-3,1.711949855E-1
7.185894320E-1,1.270599663E-1,7.131851465E-2,1.716531366E-1
7.208296660E-1,1.035416573E-1,1.264491081E-1,1.802052408E-1
7.230633700E-1,4.489859566E-2,1.579086632E-1,1.982257664E-1
7.253006140E-1,-2.916881628E-2,1.484402567E-1,2.072360367E-1
7.275384680E-1,-8.078692853E-2,8.872817457E-2,2.102903575E-1
7.297747960E-1,-9.498954564E-2,-3.207042580E-3,2.035708427E-1
7.320125280E-1,-5.482515693E-2,-9.376781434E-2,1.913535446E-1
7.342481240E-1,5.803219974E-3,-1.423316002E-1,1.782199293E-1
7.364854280E-1,6.276640296E-2,-1.264491081E-1,1.715004146E-1
7.387222450E-1,9.376781434E-2,-5.177082866E-2,1.731802970E-1
7.409596100E-1,8.368854225E-2,5.757404864E-2,1.748601794E-1
7.431968540E-1,4.841107130E-2,1.408044398E-1,1.797471046E-1
7.454344640E-1,7.024950348E-3,1.670716405E-1,1.881465018E-1
7.476709750E-1,-2.183843218E-2,1.409571618E-1,1.962404549E-1
7.499084630E-1,-3.924809024E-2,7.574728876E-2,1.983784884E-1
7.521441200E-1,-3.084869497E-2,-7.635815418E-4,1.907426715E-1
7.543767850E-1,-3.817907767E-3,-6.688974798E-2,1.809688359E-1
7.565998690E-1,2.153299935E-2,-9.529497474E-2,1.760819107E-1
7.588553620E-1,3.649919853E-2,-8.338310570E-2,1.788308024E-1
7.610929110E-1,2.764165215E-2,-3.588833287E-2,1.837177277E-1
7.633352210E-1,7.941247895E-3,3.115412779E-2,1.875356287E-1
7.655667880E-1,-4.428773187E-3,8.842274547E-2,1.864666194E-1
7.678045200E-1,-3.054326226E-4,1.078177169E-1,1.841758788E-1
7.700403600E-1,2.031126991E-2,8.674286306E-2,1.817324162E-1
7.722777250E-1,4.276056588E-2,4.505131021E-2,1.829541475E-1
7.745144810E-1,5.665775016E-2,-2.443460980E-3,1.792889535E-1
7.767516020E-1,5.238169432E-2,-3.283400834E-2,1.730275750E-1
7.789891510E-1,3.145955876E-2,-2.871066704E-2,1.753183305E-1
7.812268830E-1,-1.221730490E-3,2.290744567E-3,1.837177277E-1
7.834591830E-1,-2.153299935E-2,3.420845419E-2,1.910481006E-1
7.856823270E-1,-2.122756653E-2,4.749477282E-2,1.873829067E-1
7.879243930E-1,1.053742506E-2,3.237585723E-2,1.692096740E-1
7.901739050E-1,5.665775016E-2,-1.099557430E-2,1.534798890E-1
7.924142610E-1,8.903361112E-2,-5.161811411E-2,1.609629989E-1
7.946505900E-1,8.277224004E-2,-5.039638281E-2,1.731802970E-1
7.968850860E-1,2.703078650E-2,-1.985311974E-3,1.814269722E-1
7.991228790E-1,-4.199698567E-2,5.650503561E-2,1.835650057E-1
8.013590240E-1,-7.819075137E-2,9.117163718E-2,1.858557463E-1
8.035967560E-1,-6.490442902E-2,7.635815442E-2,1.858557463E-1
8.058325350E-1,-9.468411095E-3,1.817324013E-2,1.837177277E-1
8.080681920E-1,4.978551716E-2,-3.756821156E-2,1.802052408E-1
8.103006140E-1,8.628471941E-2,-6.017022580E-2,1.658499092E-1
8.125438390E-1,9.407325089E-2,-4.688390717E-2,1.560760736E-1
8.147813870E-1,7.376197726E-2,-1.496619824E-2,1.560760736E-1
8.170204010E-1,4.001167417E-2,2.214386500E-2,1.632537395E-1
8.192552640E-1,-2.748893574E-3,4.596760869E-2,1.826487035E-1
8.214899440E-1,-4.092797264E-2,5.161811411E-2,2.006692290E-1
8.237166290E-1,-6.078109145E-2,3.985895589E-2,1.979203373E-1
8.259658970E-1,-4.413501546E-2,5.497787148E-3,1.820378453E-1
8.281997220E-1,2.901609987E-3,-4.276056588E-2,1.689042449E-1
8.304310460E-1,5.513058975E-2,-8.506298810E-2,1.605048478E-1
8.326770780E-1,9.178250283E-2,-9.544769675E-2,1.547016203E-1
8.349148710E-1,9.147707373E-2,-4.932736978E-2,1.585195363E-1
8.371541900E-1,5.375614017E-2,3.390302137E-2,1.658499092E-1
8.393890540E-1,1.221730490E-3,1.162171140E-1,1.744020283E-1
8.416248330E-1,-4.138612002E-2,1.401935667E-1,1.765400618E-1
8.438618930E-1,-4.352414981E-2,9.529497474E-2,1.739438772E-1
8.460987100E-1,-2.932153270E-2,6.414085161E-3,1.687515229E-1
8.483359530E-1,-9.162978269E-3,-9.224065393E-2,1.673770845E-1
8.505731350E-1,3.359758761E-3,-1.434006095E-1,1.696678251E-1
8.528111730E-1,1.221730467E-2,-1.327104717E-1,1.612684280E-1
8.550474400E-1,1.603521220E-2,-7.330382615E-2,1.516472995E-1
8.572850500E-1,3.100141138E-2,1.679879380E-3,1.508837193E-1
8.595207680E-1,4.092797264E-2,6.811147183E-2,1.598939747E-1
8.617556920E-1,2.321287990E-2,1.085812971E-1,1.733330190E-1
8.639831700E-1,-1.282817032E-2,9.468411654E-2,1.852448881E-1
8.662201080E-1,-4.978551716E-2,3.604105115E-2,1.809688359E-1
8.684696200E-1,-6.582073122E-2,-3.527746722E-2,1.719585657E-1
8.707093050E-1,-4.367686436E-2,-9.880745411E-2,1.644754708E-1
8.729464270E-1,1.099557430E-2,-1.375973970E-1,1.513418704E-1
8.751809850E-1,6.780604273E-2,-1.337794960E-1,1.420261711E-1
8.774170690E-1,9.239336848E-2,-6.872233748E-2,1.487456858E-1
8.796541900E-1,7.086037099E-2,2.397646010E-2,1.611157060E-1
8.818911900E-1,1.817324013E-2,1.014036313E-1,1.621847153E-1
8.841280670E-1,-2.947424725E-2,1.192714423E-1,1.594358236E-1
8.863658600E-1,-5.009094998E-2,6.750060618E-2,1.577559561E-1
8.886032870E-1,-3.359758854E-2,-2.871066704E-2,1.563815027E-1
8.908394930E-1,1.679879380E-3,-1.131627858E-1,1.464549452E-1
8.930772250E-1,3.680463135E-2,-1.453859210E-1,1.368338168E-1
8.953132480E-1,3.894266114E-2,-9.926560521E-2,1.310305893E-1
8.975501860E-1,1.496619824E-2,-2.901609987E-3,1.470658034E-1
8.997871250E-1,-1.908953860E-2,8.384125680E-2,1.655444801E-1
9.020240020E-1,-4.046982154E-2,1.230893433E-1,1.643227488E-1
9.042589270E-1,-4.077525437E-2,1.014036313E-1,1.556179225E-1
9.064875640E-1,-2.000583708E-2,3.665191308E-2,1.505782902E-1
9.087354890E-1,1.191187184E-2,-3.558290005E-2,1.469130963E-1
9.109732210E-1,3.680463135E-2,-7.987063378E-2,1.456913650E-1
9.132121740E-1,4.169155285E-2,-7.864890248E-2,1.482875347E-1
9.154461820E-1,2.916881628E-2,-3.237585723E-2,1.519527286E-1
9.176831820E-1,8.246680722E-3,3.604105115E-2,1.582140923E-1
9.199202430E-1,-5.345070735E-3,8.735372871E-2,1.545489132E-1
9.221578520E-1,-1.374446787E-3,1.004873365E-1,1.461495161E-1
9.243953400E-1,4.123340361E-3,7.254024595E-2,1.485929638E-1
9.266317290E-1,7.941247895E-3,1.420261711E-2,1.543961912E-1
9.288694000E-1,1.038470957E-2,-4.535674304E-2,1.481348276E-1
9.311051180E-1,-0.000000000E0,-8.032877743E-2,1.368338168E-1
9.333426060E-1,-1.221730467E-2,-7.269296050E-2,1.356120855E-1
9.355791170E-1,-1.985312067E-2,-2.412917651E-2,1.406517178E-1
9.378163000E-1,-1.603521220E-2,4.871650413E-2,1.482875347E-1
9.400537260E-1,-6.108652335E-3,1.128573567E-1,1.473712474E-1
9.422913970E-1,6.566801574E-3,1.258382350E-1,1.401935667E-1
9.445280300E-1,1.817324013E-2,9.407325089E-2,1.365283877E-1
9.467657020E-1,1.725694351E-2,4.444044828E-2,1.350012124E-1
9.489970250E-1,8.857546374E-3,-5.192354787E-3,1.287398487E-1
9.512204750E-1,1.221730490E-3,-2.076941915E-2,1.273654103E-1
9.534722450E-1,-5.803219974E-3,-3.665191587E-3,1.298088580E-1
9.557127840E-1,-7.788531948E-3,2.672535367E-2,1.372919679E-1
9.579543620E-1,-1.328631863E-2,5.589416996E-2,1.421788931E-1
9.601884320E-1,-2.550362423E-2,6.704246253E-2,1.507309973E-1
9.624196940E-1,-2.932153270E-2,5.986479297E-2,1.542434692E-1
9.646438140E-1,-1.618792862E-2,3.894266114E-2,1.580613852E-1
9.668972940E-1,1.175915636E-2,2.015855350E-2,1.421788931E-1
9.691344760E-1,4.993823543E-2,1.221730467E-2,1.168279797E-1
9.713756870E-1,7.742717117E-2,2.626720630E-2,1.000291854E-1
9.736090240E-1,8.445212245E-2,6.123924255E-2,8.918632567E-2
9.758461460E-1,6.826419383E-2,1.186605766E-1,8.933904022E-2
9.780796060E-1,3.497203439E-2,1.739438772E-1,9.285151958E-2
9.803018340E-1,-4.123340361E-3,1.965458989E-1,1.024726480E-1
9.825572060E-1,-2.901609987E-2,1.800525337E-1,1.021672115E-1
9.847905430E-1,-4.230241850E-2,1.304197311E-1,9.453139454E-2
9.870354160E-1,-2.977968007E-2,7.803803682E-2,8.827003092E-2
9.892645420E-1,-4.581489135E-3,4.001167417E-2,8.216137439E-2
9.914932410E-1,1.970040426E-2,2.367102914E-2,7.864890248E-2
9.937420200E-1,3.711006418E-2,3.313944116E-2,7.895433158E-2
9.959798740E-1,4.138612002E-2,6.337726861E-2,8.399397135E-2
9.982165070E-1,3.100141138E-2,9.987647086E-2,9.254608303E-2
1.000441971E0,1.557706390E-2,1.293507218E-1,9.987647086E-2
1.002689469E0,9.162978968E-4,1.429424733E-1,1.047633886E-1
1.004926590E0,-7.788531948E-3,1.371392459E-1,1.070541367E-1
1.007166825E0,-4.276056774E-3,1.224784851E-1,1.046106741E-1
1.009397781E0,1.007927675E-2,1.015563458E-1,9.728029370E-2
1.011626419E0,2.443460934E-2,8.063421398E-2,8.872817457E-2
1.013875992E0,3.680463135E-2,7.437284291E-2,7.544185966E-2
1.016112198E0,3.588833287E-2,9.254608303E-2,6.811147183E-2
1.018352860E0,2.779436857E-2,1.157589629E-1,6.688974798E-2
1.020582535E0,2.046398632E-2,1.232420653E-1,6.933320314E-2
1.022808121E0,1.542434748E-2,1.172861308E-1,7.422012836E-2
1.025047684E0,1.496619824E-2,9.896016866E-2,8.750644326E-2
1.027296342E0,1.328631863E-2,7.605272532E-2,9.361509979E-2
1.029531632E0,1.038470957E-2,5.910121277E-2,9.590584040E-2
1.031763321E0,-9.162978968E-4,4.963280261E-2,9.819658846E-2
1.034008133E0,-3.512475174E-3,4.230241850E-2,9.575312585E-2
1.036246658E0,-5.955935922E-3,4.367686436E-2,9.575312585E-2
1.038484940E0,-9.315694682E-3,5.940664560E-2,1.018617824E-1
1.040719071E0,-1.771509275E-2,7.177666575E-2,1.116356254E-1
1.042955582E0,-2.748893574E-2,7.559457421E-2,1.151480973E-1
1.045192704E0,-1.679879427E-2,5.711590126E-2,1.140790880E-1
1.047430496E0,1.450804994E-2,2.138028294E-2,1.055269688E-1
1.049665115E0,5.100724846E-2,-1.221730490E-3,9.972374886E-2
1.051892593E0,6.627888232E-2,2.031126991E-2,9.498954564E-2
1.054142411E0,5.009094998E-2,6.918048859E-2,9.498954564E-2
1.056377945E0,3.207042580E-3,1.272126883E-1,9.605856240E-2
1.058617814E0,-5.528330430E-2,1.586722434E-1,9.453139454E-2
1.060851761E0,-9.117163718E-2,1.459967941E-1,8.918632567E-2
1.063088883E0,-8.765916526E-2,7.803803682E-2,8.292495459E-2
1.065326309E0,-4.489859566E-2,-1.679879380E-3,8.292495459E-2
1.067564041E0,2.153299935E-2,-6.368270516E-2,8.323039114E-2
1.069800430E0,7.925976813E-2,-7.452555746E-2,7.880161703E-2
1.072034501E0,1.001819000E-1,-1.786780916E-2,7.559457421E-2
1.074259110E0,7.727445662E-2,7.483099401E-2,8.185594529E-2
1.076511124E0,1.771509275E-2,1.742493063E-1,9.514226019E-2
1.078748124E0,-5.772676691E-2,2.241875380E-1,1.094975919E-1
1.080988907E0,-1.088867337E-1,1.948660165E-1,1.125519201E-1
1.083222550E0,-1.154535338E-1,1.101084575E-1,1.059851199E-1
1.085460282E0,-7.559457421E-2,8.552113548E-3,1.010981947E-1
1.087696671E0,-6.566801574E-3,-5.589416996E-2,8.918632567E-2
1.089934464E0,6.352998316E-2,-6.215553731E-2,7.498370856E-2
1.092170182E0,9.682214260E-2,-5.650503561E-3,5.971207842E-2
1.094407059E0,7.925976813E-2,1.014036313E-1,6.001751125E-2
1.096644059E0,2.825251780E-2,2.018909603E-1,7.330382615E-2
1.098881119E0,-3.268129006E-2,2.394591719E-1,8.765916526E-2
1.101118546E0,-7.406741381E-2,2.014328092E-1,1.018617824E-1
1.103356278E0,-8.720101416E-2,1.082758680E-1,1.148426682E-1
1.105592667E0,-6.963863969E-2,2.443460980E-3,1.230893433E-1
1.107830460E0,-3.436116874E-2,-7.590000331E-2,1.206458881E-1
1.110066300E0,7.177666761E-3,-1.010981947E-1,1.014036313E-1
1.112303543E0,3.390302137E-2,-6.398813426E-2,8.827003092E-2
1.114541520E0,3.436116874E-2,2.947424725E-2,1.009454802E-1
1.116782975E0,4.581489135E-3,1.404990107E-1,1.145372316E-1
1.119014481E0,-3.878994286E-2,1.947132945E-1,1.229366288E-1
1.121252579E0,-7.727445662E-2,1.748601794E-1,1.237002090E-1
1.123487442E0,-9.972374886E-2,1.012509167E-1,1.244637966E-1
1.125726456E0,-9.193521738E-2,4.581489484E-4,1.217148975E-1
1.127962174E0,-6.291911751E-2,-8.872817457E-2,1.142318025E-1
1.130199295E0,-2.794708498E-2,-1.258382350E-1,1.094975919E-1
1.132436356E0,-4.886921961E-3,-8.384125680E-2,1.024726480E-1
1.134673416E0,-3.817907767E-3,2.657263726E-2,1.017090604E-1
1.136910782E0,-2.504547499E-2,1.362229437E-1,1.069014147E-1
1.139148514E0,-4.764748737E-2,1.779145002E-1,1.166752651E-1
1.141384842E0,-5.299255997E-2,1.574505121E-1,1.214094684E-1
1.143622391E0,-4.627304152E-2,6.872233748E-2,1.247692257E-1
1.145858231E0,-2.244929783E-2,-3.863722831E-2,1.185078546E-1
1.148092912E0,-6.108652451E-4,-1.130100712E-1,1.085812971E-1
1.150321915E0,2.901609987E-3,-1.301143020E-1,1.036943719E-1
1.152569718E0,-1.359175146E-2,-8.735372871E-2,1.110247597E-1
1.154804093E0,-4.764748737E-2,-4.123340361E-3,1.232420653E-1
1.157032670E0,-7.696902007E-2,6.933320314E-2,1.282816976E-1
1.159268997E0,-8.475755155E-2,1.070541367E-1,1.209513173E-1
1.161519120E0,-6.551529467E-2,8.597928286E-2,1.101084575E-1
1.163757340E0,-3.313944116E-2,3.802636266E-2,1.125519201E-1
1.165994523E0,-7.177666761E-3,-1.343903504E-2,1.174388453E-1
1.168227921E0,9.162978968E-4,-3.787364438E-2,1.174388453E-1
1.170464432E0,-1.450804994E-2,-1.328631863E-2,1.149953827E-1
1.172702713E0,-4.413501546E-2,4.795292020E-2,1.198823079E-1
1.174928605E0,-6.383541971E-2,1.041525230E-1,1.186605766E-1
1.177164932E0,-6.459899992E-2,1.308778822E-1,1.163698286E-1
1.179403092E0,-3.680463135E-2,1.061378345E-1,1.128573567E-1
1.181638993E0,-2.138028387E-3,5.207626149E-2,1.140790880E-1
1.183875870E0,1.649336144E-2,7.635815418E-4,1.165225431E-1
1.186112870E0,7.330383174E-3,-2.580905706E-2,1.163698286E-1
1.188349869E0,-1.832595654E-2,-2.046398632E-2,1.111774743E-1
1.190587296E0,-4.856378585E-2,1.160643995E-2,1.111774743E-1
1.192825028E0,-6.979135424E-2,5.696318299E-2,1.172861308E-1
1.195061356E0,-6.322455406E-2,7.864890248E-2,1.235474944E-1
1.197299882E0,-4.108068720E-2,7.223481685E-2,1.163698286E-1
1.199540665E0,-2.183843218E-2,5.360342562E-2,1.151480973E-1
1.201780106E0,-1.359175146E-2,3.161227703E-2,1.127046347E-1
1.204008866E0,-7.788531948E-3,1.695151068E-2,1.090394482E-1
1.206245072E0,-1.527163084E-3,2.046398632E-2,1.065959856E-1
1.208481766E0,6.414085161E-3,4.337143153E-2,9.941831976E-2
1.210721207E0,1.450804994E-2,7.834346592E-2,9.605856240E-2
1.212957108E0,1.023199316E-2,1.076650023E-1,9.850201756E-2
1.215194962E0,-1.404990070E-2,1.262963861E-1,1.044579595E-1
1.217434403E0,-4.260785133E-2,1.207986027E-1,1.091921628E-1
1.219683060E0,-6.673702598E-2,8.613199741E-2,1.087340117E-1
1.221919816E0,-7.116580009E-2,4.734205827E-2,1.110247597E-1
1.224156693E0,-5.833763257E-2,1.435533352E-2,1.085812971E-1
1.226391190E0,-3.375030309E-2,7.788531948E-3,1.123992056E-1
1.228628983E0,-1.618792862E-2,3.039054573E-2,1.151480973E-1
1.230865311E0,-1.679879380E-3,7.391469181E-2,1.093448773E-1
1.233102860E0,1.282817032E-2,1.148426682E-1,9.987647086E-2
1.235338639E0,1.786780916E-2,1.281289905E-1,1.023199260E-1
1.237575699E0,1.649336144E-2,1.220203340E-1,1.059851199E-1
1.239812638E0,3.512475174E-3,9.071348608E-2,1.107193232E-1
1.242050186E0,-1.695151068E-2,5.115996301E-2,1.041525230E-1
1.244287491E0,-3.344487399E-2,1.863138936E-2,9.407325089E-2
1.246525040E0,-4.123340547E-2,4.276056774E-3,9.896016866E-2
1.248761307E0,-4.856378585E-2,9.315694682E-3,1.085812971E-1
1.250999039E0,-4.948008433E-2,2.138028294E-2,1.038470939E-1
1.253234696E0,-4.657847434E-2,3.955352306E-2,9.896016866E-2
1.255472000E0,-4.138612002E-2,5.528330430E-2,9.422596544E-2
1.257708817E0,-3.023782931E-2,5.986479297E-2,9.926560521E-2
1.259946182E0,-2.061670274E-2,4.749477282E-2,1.041525230E-1
1.262183487E0,-1.450804994E-2,4.138612002E-2,9.926560521E-2
1.264420975E0,-1.588249579E-2,3.894266114E-2,9.560041130E-2
1.266656326E0,-3.054326214E-2,4.535674304E-2,9.666942805E-2
1.268895096E0,-4.260785133E-2,5.528330430E-2,1.003346145E-1
1.271130936E0,-4.978551716E-2,6.505715102E-2,1.076650023E-1
1.273368485E0,-4.612032697E-2,6.994406879E-2,1.113301888E-1
1.275604813E0,-3.497203439E-2,7.086037099E-2,1.090394482E-1
1.277842179E0,-1.298088674E-2,5.955936015E-2,1.067487001E-1
1.280079727E0,6.261368748E-3,4.214970022E-2,1.079704314E-1
1.282315384E0,2.214386500E-2,3.207042441E-2,1.020144969E-1
1.284544998E0,2.596177347E-2,3.329215571E-2,9.468411654E-2
1.286791031E0,1.985312067E-2,3.833179548E-2,9.346238524E-2
1.289026871E0,5.345070735E-3,4.825835302E-2,9.330966324E-2
1.291266373E0,-2.168571576E-2,5.726861581E-2,9.804387391E-2
1.293501053E0,-4.612032697E-2,6.383541971E-2,1.015563458E-1
1.295738175E0,-6.719517708E-2,6.062837690E-2,1.050688252E-1
1.297975662E0,-7.605272532E-2,4.627304152E-2,1.110247597E-1
1.300213272E0,-6.673702598E-2,2.290744707E-2,1.110247597E-1
1.302446915E0,-4.001167417E-2,6.719517522E-3,1.062905490E-1
1.304675614E0,-1.007927675E-2,1.939497143E-2,1.029307917E-1
1.306923172E0,1.481348183E-2,3.711006418E-2,1.007927656E-1
1.309155900E0,3.252857551E-2,5.375614017E-2,9.728029370E-2
1.311382890E0,3.298672289E-2,8.048149943E-2,9.498954564E-2
1.313634415E0,2.244929783E-2,1.012509167E-1,9.498954564E-2
1.315872025E0,7.635815535E-3,1.003346145E-1,9.483683109E-2
1.318110978E0,-9.010262787E-3,7.528914511E-2,9.697485715E-2
1.320333573E0,-2.199114859E-2,4.031710699E-2,1.004873365E-1
1.322581315E0,-2.764165215E-2,3.970623948E-3,1.062905490E-1
1.324811234E0,-3.176499158E-2,-1.527163107E-2,1.050688252E-1
1.327059220E0,-4.031710699E-2,-1.038470957E-2,1.036943719E-1
1.329290054E0,-4.367686436E-2,5.497787148E-3,1.087340117E-1
1.331520340E0,-3.481931984E-2,1.740965992E-2,1.099557430E-1
1.333767716E0,-1.237002108E-2,3.039054573E-2,1.065959856E-1
1.336005509E0,2.000583708E-2,4.550946131E-2,9.957103431E-2
1.338246232E0,4.871650413E-2,6.200282276E-2,9.498954564E-2
1.340485245E0,6.368270516E-2,7.742717117E-2,9.636399150E-2
1.342715348E0,5.177082866E-2,9.468411654E-2,9.636399150E-2
1.344952225E0,2.122756653E-2,1.049161032E-1,9.743300825E-2
1.347187821E0,-1.466076635E-2,9.957103431E-2,9.712757170E-2
1.349426285E0,-4.092797264E-2,7.712173462E-2,9.804387391E-2
1.351663773E0,-4.413501546E-2,4.321871698E-2,1.039998084E-1
1.353901749E0,-3.344487399E-2,2.229658142E-2,1.064432710E-1
1.356138077E0,-1.267545391E-2,1.466076635E-2,1.053742543E-1
1.358375565E0,9.621127509E-3,2.153299935E-2,9.697485715E-2
1.360611100E0,2.474004216E-2,3.817907721E-2,9.101892263E-2
1.362848404E0,3.741549700E-2,5.131268129E-2,9.605856240E-2
1.365085343E0,3.756821156E-2,6.337726861E-2,9.743300825E-2
1.367322891E0,2.672535367E-2,7.330382615E-2,9.605856240E-2
1.369559952E0,2.076941915E-2,8.078692853E-2,9.361509979E-2
1.371797684E0,1.359175146E-2,8.811730891E-2,8.994990587E-2
1.374033707E0,5.955935922E-3,8.216137439E-2,8.857546002E-2
1.376271622E0,1.832595794E-3,5.925392732E-2,9.208793938E-2
1.378507584E0,1.374446787E-3,3.497203439E-2,9.697485715E-2
1.380744461E0,-7.483099122E-3,2.779436857E-2,9.926560521E-2
1.382981278E0,-1.343903504E-2,3.772092983E-2,9.804387391E-2
1.385218521E0,-1.420261711E-2,5.711590126E-2,9.193521738E-2
1.387456009E0,-5.497787148E-3,6.429356337E-2,9.208793938E-2
1.389693924E0,6.872233935E-3,6.276640296E-2,9.834930301E-2
1.391929764E0,1.145372353E-2,5.054909736E-2,1.032362282E-1
1.394167679E0,6.261368748E-3,3.848451003E-2,1.006400511E-1
1.396403824E0,-1.527163113E-4,2.412917651E-2,9.315694869E-2
1.398640702E0,7.635815418E-4,4.581489135E-3,9.193521738E-2
1.400877274E0,6.719517522E-3,-7.635815535E-3,9.071348608E-2
1.403114518E0,1.038470957E-2,-7.635815535E-3,9.560041130E-2
1.405352188E0,9.468411095E-3,1.053742506E-2,1.030835137E-1
1.407590042E0,1.527163113E-4,3.985895589E-2,9.819658846E-2
1.409826309E0,-1.664607786E-2,5.711590126E-2,9.193521738E-2
1.412063797E0,-2.657263726E-2,5.253441259E-2,9.682214260E-2
1.414299576E0,-2.229658142E-2,2.458732575E-2,9.789115191E-2
1.416536637E0,-1.160643995E-2,2.443460980E-3,9.911288321E-2
1.418773453E0,1.832595794E-3,-1.374446787E-3,9.926560521E-2
1.421010575E0,9.315694682E-3,8.093964309E-3,1.006400511E-1
1.423248184E0,1.725694351E-2,3.100141138E-2,9.468411654E-2
1.425485977E0,2.535090782E-2,6.368270516E-2,9.239336848E-2
1.427722305E0,3.573561832E-2,9.132435173E-2,9.254608303E-2
1.429959793E0,3.344487399E-2,1.023199260E-1,9.376781434E-2
1.432192703E0,1.725694351E-2,9.178250283E-2,9.361509979E-2
1.434421158E0,-6.872233935E-3,5.696318299E-2,9.208793938E-2
1.436669510E0,-3.222314268E-2,2.107485011E-2,9.789115191E-2
1.438906815E0,-5.009094998E-2,-6.414085161E-3,9.880745411E-2
1.441147049E0,-5.146539584E-2,-1.740965992E-2,9.376781434E-2
1.443381913E0,-2.550362423E-2,-1.175915636E-2,9.162978828E-2
1.445618057E0,1.206458826E-2,1.420261711E-2,9.086620808E-2
1.447856095E0,3.970624134E-2,4.642575979E-2,8.872817457E-2
1.450091874E0,5.039638281E-2,8.017606288E-2,8.536841720E-2
1.452328995E0,3.481931984E-2,1.059851199E-1,8.399397135E-2
1.454565690E0,1.679879380E-3,1.139263660E-1,8.994990587E-2
1.456802872E0,-2.825251780E-2,9.376781434E-2,9.697485715E-2
1.459040604E0,-4.505131021E-2,5.283984542E-2,9.666942805E-2
1.461277970E0,-4.245513305E-2,4.276056774E-3,9.529497474E-2
1.463514542E0,-1.985312067E-2,-3.619376570E-2,9.407325089E-2
1.465751969E0,8.399397135E-3,-4.520402849E-2,9.300423414E-2
1.467987870E0,3.313944116E-2,-3.848451003E-2,8.964447677E-2
1.470224808E0,4.856378585E-2,-2.290744567E-3,8.857546002E-2
1.472461502E0,5.054909736E-2,3.039054573E-2,8.261952549E-2
1.474699112E0,4.138612002E-2,6.215553731E-2,8.032877743E-2
1.476936661E0,3.084869497E-2,8.781187981E-2,8.399397135E-2
1.479174210E0,5.039638374E-3,9.804387391E-2,9.605856240E-2
1.481410294E0,-1.710422710E-2,9.483683109E-2,9.697485715E-2
1.483648209E0,-3.863722831E-2,6.856962293E-2,9.544769675E-2
1.485883866E0,-4.428773001E-2,2.733621933E-2,8.796459436E-2
1.488118240E0,-3.145955876E-2,-1.053742506E-2,8.552113175E-2
1.490345963E0,-5.803219974E-3,-1.832595654E-2,8.689557761E-2
1.492595047E0,2.809980139E-2,1.511891466E-2,8.857546002E-2
1.494832352E0,4.764748737E-2,6.811147183E-2,8.643743396E-2
1.497073197E0,5.849034712E-2,1.188132912E-1,7.941248268E-2
1.499306778E0,5.528330430E-2,1.371392459E-1,7.330382615E-2
1.501544327E0,3.665191308E-2,1.276708394E-1,7.315111160E-2
1.503780106E0,1.145372353E-2,1.027780771E-1,8.261952549E-2
1.506017105E0,-2.260201424E-2,7.070764899E-2,9.071348608E-2
1.508250992E0,-3.909537569E-2,3.817907721E-2,8.567385375E-2
1.510478288E0,-3.344487399E-2,1.618792862E-2,8.429940045E-2
1.512724503E0,-1.634064503E-2,9.773843922E-3,8.811730891E-2
1.514966446E0,9.773843922E-3,2.626720630E-2,8.842274547E-2
1.517205704E0,3.023782931E-2,5.742133409E-2,8.506298810E-2
1.519441361E0,3.940080851E-2,8.277224004E-2,8.032877743E-2
1.521676285E0,4.062253982E-2,8.643743396E-2,7.788532227E-2
1.523913163E0,2.916881628E-2,6.230825558E-2,7.406741381E-2
1.526150223E0,1.359175146E-2,2.382374369E-2,7.742717117E-2
1.528387223E0,-6.719517522E-3,-4.886921961E-3,8.200865984E-2
1.530624649E0,-1.817324013E-2,-2.290744707E-2,8.185594529E-2
1.532862381E0,-2.321287990E-2,-2.641992271E-2,8.063421398E-2
1.535098709E0,-1.572977938E-2,-2.412917651E-2,8.185594529E-2
1.537336319E0,-6.872233935E-3,-8.552113548E-3,8.078692853E-2
1.539572281E0,-2.596177394E-3,2.046398632E-2,8.216137439E-2
1.541809159E0,-1.985311974E-3,5.085453019E-2,7.987063378E-2
1.544046219E0,-2.748893574E-3,7.147123665E-2,7.987063378E-2
1.546283280E0,2.138028387E-3,7.254024595E-2,8.124507964E-2
1.548520950E0,1.664607786E-2,5.650503561E-2,8.368854225E-2
1.550758621E0,2.596177347E-2,3.084869497E-2,8.002334833E-2
1.552994766E0,3.298672289E-2,1.374446787E-2,7.513642311E-2
1.555232437E0,3.039054573E-2,4.123340361E-3,7.376197726E-2
1.557468094E0,1.786780916E-2,-7.788531948E-3,7.605272532E-2
1.559705643E0,1.527163084E-3,-2.321287990E-2,7.590000331E-2
1.561942215E0,-1.588249579E-2,-3.023782931E-2,7.574728876E-2
1.564179581E0,-3.558290005E-2,-3.222314268E-2,7.925976813E-2
1.566416824E0,-3.787364438E-2,-2.367102914E-2,7.559457421E-2
1.568654679E0,-3.145955876E-2,-1.298088674E-2,7.192938030E-2
1.570891007E0,-5.497787148E-3,-7.330383174E-3,7.834346592E-2
1.573128739E0,1.908953860E-2,-1.832595794E-3,8.109235764E-2
1.575364274E0,2.932153270E-2,1.252273750E-2,7.880161703E-2
1.577601334E0,2.122756653E-2,4.184427112E-2,8.002334833E-2
1.579838150E0,3.359758761E-3,6.520986557E-2,7.757988572E-2
1.582075516E0,-8.093964309E-3,5.100724846E-2,7.742717117E-2
1.584312882E0,-1.756237634E-2,8.704829961E-3,8.078692853E-2
1.586547013E0,-2.382374369E-2,-5.192354694E-2,8.659014851E-2
1.588772354E0,-3.222314268E-2,-1.015563458E-1,8.750644326E-2
1.591024735E0,-4.001167417E-2,-1.244637966E-1,8.246681094E-2
1.593260270E0,-3.497203439E-2,-1.207986027E-1,8.124507964E-2
1.595501053E0,-1.725694351E-2,-9.453139454E-2,8.155050874E-2
1.597734391E0,3.359758761E-3,-5.360342562E-2,7.574728876E-2
1.599971573E0,2.641992271E-2,-1.404990070E-2,7.131851465E-2
1.602209183E0,2.962696366E-2,2.840523422E-2,6.780604273E-2
1.604446793E0,1.817324013E-2,6.261368841E-2,6.536258012E-2
1.606682755E0,-1.374446787E-3,7.635815442E-2,6.887505949E-2
1.608920731E0,-1.511891466E-2,6.444628537E-2,6.872233748E-2
1.611156510E0,-1.435533352E-2,3.894266114E-2,6.505715102E-2
1.613392899E0,-7.635815535E-3,8.399397135E-3,6.123924255E-2
1.615627274E0,3.359758761E-3,9.162978968E-4,6.261368841E-2
1.617867752E0,7.177666761E-3,1.298088674E-2,6.505715102E-2
1.620105057E0,6.414085161E-3,3.481931984E-2,7.254024595E-2
1.622343461E0,3.054326167E-3,4.948008433E-2,7.498370856E-2
1.624579239E0,1.985311974E-3,5.681046844E-2,7.131851465E-2
1.626816971E0,5.497787148E-3,5.070181563E-2,7.009678334E-2
1.629052628E0,7.483099122E-3,3.115412779E-2,7.376197726E-2
1.631288284E0,3.207042580E-3,9.162978968E-4,7.116580009E-2
1.633517899E0,-1.069014193E-3,-3.298672289E-2,6.979135424E-2
1.635754227E0,-2.748893574E-3,-5.345070735E-2,6.841690838E-2
1.638000260E0,-1.023199316E-2,-5.574145541E-2,6.826419383E-2
1.640237259E0,-1.847867295E-2,-4.230241850E-2,6.826419383E-2
1.642474625E0,-2.794708498E-2,-2.153299935E-2,7.192938030E-2
1.644701065E0,-2.519819140E-2,-8.246680722E-3,7.208210230E-2
1.646949539E0,-1.023199316E-2,-0.000000000E0,6.734789163E-2
1.649184341E0,1.328631863E-2,3.207042580E-3,6.261368841E-2
1.651420487E0,2.825251780E-2,1.618792862E-2,6.643159688E-2
1.653656815E0,3.237585723E-2,3.802636266E-2,6.780604273E-2
1.655882767E0,2.672535367E-2,6.123924255E-2,6.551529467E-2
1.658121659E0,6.108652335E-3,7.620543987E-2,6.658431143E-2
1.660359268E0,-1.878410578E-2,6.444628537E-2,6.994406879E-2
1.662608841E0,-3.436116874E-2,2.840523422E-2,6.352998316E-2
1.664835465E0,-3.649919853E-2,-2.489275858E-2,5.726861581E-2
1.667084855E0,-2.535090782E-2,-7.498370856E-2,6.078109145E-2
1.669319657E0,-1.343903504E-2,-9.575312585E-2,7.177666575E-2
1.671560013E0,4.123340361E-3,-7.422012836E-2,7.452555746E-2
1.673777116E0,1.389718428E-2,-2.229658142E-2,6.383541971E-2
1.676013077E0,2.244929783E-2,3.451388702E-2,6.291911751E-2
1.678263504E0,2.580905706E-2,7.696902007E-2,6.795875728E-2
1.680496232E0,1.756237634E-2,1.038470939E-1,7.651086897E-2
1.682745561E0,-7.635815418E-4,1.090394482E-1,8.002334833E-2
1.684978104E0,-1.343903504E-2,8.994990587E-2,7.009678334E-2
1.687217850E0,-1.175915636E-2,4.245513305E-2,5.772676691E-2
1.689451920E0,6.872233935E-3,-1.252273750E-2,5.513058975E-2
1.691689285E0,1.740965992E-2,-3.451388702E-2,6.750060618E-2
1.693927079E0,-7.635815418E-4,-1.725694351E-2,7.467827946E-2
1.696163407E0,-3.451388702E-2,2.336559631E-2,7.452555746E-2
1.698400955E0,-6.475171447E-2,4.825835302E-2,7.559457421E-2
1.700636795E0,-7.223481685E-2,4.596760869E-2,7.437284291E-2
1.702874039E0,-5.451972410E-2,1.038470957E-2,7.925976813E-2
1.705110672E0,-1.954768784E-2,-2.779436857E-2,8.307767659E-2
1.707348038E0,8.246680722E-3,-5.513058975E-2,7.590000331E-2
1.709585465E0,2.076941915E-2,-5.299255997E-2,5.879577994E-2
1.711822830E0,1.252273750E-2,-3.207042441E-2,5.757404864E-2
1.714059219E0,-1.053742506E-2,-1.099557430E-2,7.223481685E-2
1.716297196E0,-3.100141138E-2,1.481348183E-2,8.063421398E-2
1.718533097E0,-3.313944116E-2,2.703078650E-2,7.452555746E-2
1.720770157E0,-2.565634064E-2,3.054326214E-2,6.856962293E-2
1.723006913E0,-1.847867295E-2,1.939497143E-2,6.856962293E-2
1.725244217E0,-2.031126991E-2,-8.399397135E-3,8.063421398E-2
1.727481522E0,-3.329215571E-2,-3.604105115E-2,8.292495459E-2
1.729719071E0,-5.329799280E-2,-5.024366826E-2,8.017606288E-2
1.731955399E0,-6.918048859E-2,-4.382958263E-2,8.506298810E-2
1.734193253E0,-6.383541971E-2,-2.825251780E-2,8.139779419E-2
1.736429276E0,-3.909537569E-2,-1.542434748E-2,8.536841720E-2
1.738666092E0,-3.207042580E-3,-6.414085161E-3,9.300423414E-2
1.740902909E0,2.275473066E-2,-5.650503561E-3,9.330966324E-2
1.743140152E0,3.741549700E-2,-1.084285788E-2,8.231408894E-2
1.745377640E0,2.733621933E-2,-2.871066704E-2,6.750060618E-2
1.747615616E0,-1.527163084E-3,-5.375614017E-2,7.696902007E-2
1.749851761E0,-2.901609987E-2,-6.887505949E-2,8.888089657E-2
1.752089737E0,-4.123340547E-2,-6.261368841E-2,8.155050874E-2
1.754323990E0,-4.046982154E-2,-2.993239649E-2,7.925976813E-2
1.756557450E0,-2.871066704E-2,1.359175146E-2,9.422596544E-2
1.758799027E0,-7.024950348E-3,5.192354694E-2,1.006400511E-1
1.761036209E0,8.246680722E-3,6.872233748E-2,8.735372871E-2
1.763274979E0,1.435533352E-2,6.368270516E-2,8.124507964E-2
1.765511368E0,1.359175146E-2,2.733621933E-2,8.720101416E-2
1.767747940E0,9.010262787E-3,-1.389718428E-2,8.827003092E-2
1.769985428E0,-3.970623948E-3,-4.398229718E-2,8.552113175E-2
1.772221268E0,-1.756237634E-2,-5.100724846E-2,9.147707373E-2
1.774458268E0,-2.748893574E-2,-5.558873713E-2,8.781187981E-2
1.776695084E0,-1.893682219E-2,-6.307183951E-2,7.803803682E-2
1.778932144E0,-2.138028387E-3,-8.277224004E-2,6.948592514E-2
1.781166703E0,9.773843922E-3,-1.000291854E-1,7.070764899E-2
1.783396073E0,-5.803219974E-3,-8.277224004E-2,7.315111160E-2
1.785643692E0,-4.550946131E-2,-3.833179548E-2,7.422012836E-2
1.787881546E0,-8.506298810E-2,1.343903504E-2,6.551529467E-2
1.790120377E0,-1.027780771E-1,4.657847434E-2,6.062837690E-2
1.792354630E0,-8.552113175E-2,5.589416996E-2,7.299839705E-2
1.794591385E0,-5.222897977E-2,6.261368841E-2,8.063421398E-2
1.796828385E0,-1.725694351E-2,8.124507964E-2,7.376197726E-2
1.799065750E0,1.389718428E-2,1.001819000E-1,6.429356337E-2
1.801303543E0,3.863722831E-2,9.957103431E-2,6.200282276E-2
1.803539871E0,5.772676691E-2,7.254024595E-2,5.971207842E-2
1.805777481E0,7.299839705E-2,3.222314268E-2,4.856378585E-2
1.808009720E0,6.520986557E-2,1.542434748E-2,4.963280261E-2
1.810235428E0,2.351831272E-2,2.840523422E-2,6.291911751E-2
1.812487381E0,-2.535090782E-2,4.627304152E-2,7.345654815E-2
1.814724381E0,-6.017022580E-2,3.237585723E-2,7.070764899E-2
1.816965592E0,-6.826419383E-2,-6.261368748E-3,7.055493444E-2
1.819198258E0,-5.299255997E-2,-4.184427112E-2,7.422012836E-2
1.821429825E0,-2.244929783E-2,-5.207626149E-2,6.582073122E-2
1.823673661E0,8.857546374E-3,-3.451388702E-2,5.390885845E-2
1.825909195E0,2.076941915E-2,5.345070735E-3,5.421429127E-2
1.828145096E0,2.260201424E-2,4.169155285E-2,6.291911751E-2
1.830371415E0,8.704829961E-3,8.078692853E-2,6.047565863E-2
1.832620743E0,-1.298088674E-2,1.091921628E-1,5.681046844E-2
1.834858048E0,-3.252857551E-2,1.107193232E-1,6.032294407E-2
1.837098832E0,-3.695734590E-2,8.292495459E-2,6.627888232E-2
1.839332108E0,-2.703078650E-2,2.443460934E-2,6.123924255E-2
1.841569718E0,-1.099557430E-2,-3.649919853E-2,5.619960278E-2
1.843805741E0,-6.566801574E-3,-5.971207842E-2,6.337726861E-2
1.846042801E0,-7.483099122E-3,-4.138612002E-2,7.574728876E-2
1.848276627E0,-1.007927675E-2,9.621127509E-3,7.590000331E-2
1.850504654E0,-3.970623948E-3,7.009678334E-2,7.009678334E-2
1.852754044E0,1.175915636E-2,1.159116775E-1,6.185010448E-2
1.854992020E0,2.809980139E-2,1.229366288E-1,5.345070735E-2
1.857231156E0,4.337143153E-2,8.735372871E-2,5.100724846E-2
1.859464798E0,4.291328415E-2,6.108652335E-3,4.948008433E-2
1.861697037E0,2.397646010E-2,-7.727445662E-2,5.268712714E-2
1.863938797E0,3.359758761E-3,-1.229366288E-1,4.856378585E-2
1.866175553E0,-1.863138936E-2,-1.140790880E-1,4.230241850E-2
1.868413773E0,-2.962696366E-2,-5.314527452E-2,4.856378585E-2
1.870650040E0,-2.901609987E-2,4.627304152E-2,6.368270516E-2
1.872888016E0,-3.100141138E-2,1.313360333E-1,7.742717117E-2
1.875124161E0,-2.153299935E-2,1.699732542E-1,7.040221989E-2
1.877361954E0,-6.261368748E-3,1.369865239E-1,5.940664560E-2
1.879597672E0,7.024950348E-3,6.139195710E-2,5.910121277E-2
1.881834793E0,1.771509275E-2,-1.649336144E-2,6.872233748E-2
1.884071610E0,2.809980139E-2,-4.825835302E-2,6.750060618E-2
1.886308975E0,4.230241850E-2,-2.061670274E-2,5.543602258E-2
1.888546524E0,5.238169432E-2,5.085453019E-2,5.467243865E-2
1.890784012E0,6.459899992E-2,1.113301888E-1,6.841690838E-2
1.893020096E0,7.360926270E-2,1.281289905E-1,6.734789163E-2
1.895257828E0,7.192938030E-2,9.896016866E-2,4.886921868E-2
1.897493668E0,4.627304152E-2,4.489859566E-2,4.352414981E-2
1.899730850E0,2.748893574E-3,-2.825251780E-2,6.001751125E-2
1.901964859E0,-3.420845419E-2,-8.827003092E-2,6.673702598E-2
1.904192216E0,-5.299255997E-2,-1.133155003E-1,4.444044828E-2
1.906439346E0,-3.527746722E-2,-9.422596544E-2,3.008511290E-2
1.908680008E0,7.788531948E-3,-2.962696366E-2,4.291328415E-2
1.910919388E0,6.001751125E-2,6.154467165E-2,5.100724846E-2
1.913154923E0,9.758572280E-2,1.507309973E-1,4.199698567E-2
1.915389908E0,1.003346145E-1,2.197587788E-1,3.375030309E-2
1.917626786E0,6.872233748E-2,2.434297949E-1,5.070181563E-2
1.919863785E0,2.000583708E-2,2.202169150E-1,6.719517708E-2
1.922100907E0,-1.069014147E-2,1.588249654E-1,6.429356337E-2
1.924338516E0,-2.199114859E-2,8.139779419E-2,5.406157300E-2
1.926576065E0,-7.788531948E-3,-6.261368748E-3,5.635231733E-2
1.928812698E0,2.138028294E-2,-8.323039114E-2,5.986479297E-2
1.931050370E0,4.505131021E-2,-1.298088580E-1,5.131268129E-2
1.933285965E0,5.482515693E-2,-1.372919679E-1,3.802636266E-2
1.935523026E0,3.802636266E-2,-1.163698286E-1,3.298672289E-2
1.937760025E0,1.313360315E-2,-6.856962293E-2,4.276056588E-2
1.939997147E0,5.955935922E-3,8.093964309E-3,4.917465150E-2
1.942234573E0,1.160643995E-2,9.529497474E-2,4.337143153E-2
1.944472428E0,3.878994286E-2,1.579086632E-1,3.405573592E-2
1.946706253E0,7.727445662E-2,1.753183305E-1,2.840523422E-2
1.948937760E0,9.819658846E-2,1.713477075E-1,2.489275858E-2
1.951181656E0,8.429940045E-2,1.594358236E-1,3.084869497E-2
1.953419327E0,3.878994286E-2,1.675297916E-1,4.886921868E-2
1.955658158E0,-2.107485011E-2,1.930334121E-1,6.307183951E-2
1.957893204E0,-6.276640296E-2,2.035708427E-1,6.398813426E-2
1.960130509E0,-5.833763257E-2,1.731802970E-1,5.543602258E-2
1.962368485E0,-1.053742506E-2,9.941831976E-2,4.810563847E-2
1.964604630E0,5.406157300E-2,1.313360315E-2,5.207626149E-2
1.966842423E0,9.575312585E-2,-5.558873713E-2,5.207626149E-2
1.969078141E0,9.392052889E-2,-8.704829961E-2,4.703662544E-2
1.971315262E0,5.589416996E-2,-8.277224004E-2,5.039638281E-2
1.973552018E0,-8.552113548E-3,-4.016438872E-2,6.230825558E-2
1.975789139E0,-7.024950534E-2,2.046398632E-2,7.055493444E-2
1.978026871E0,-1.050688252E-1,6.475171447E-2,7.406741381E-2
1.980265030E0,-1.038470939E-1,6.230825558E-2,7.406741381E-2
1.982500870E0,-6.643159688E-2,2.153299935E-2,6.811147183E-2
1.984738358E0,-1.710422710E-2,-3.878994286E-2,5.726861581E-2
1.986970841E0,3.466660157E-2,-1.017090604E-1,4.291328415E-2
1.989197464E0,7.849618047E-2,-1.293507218E-1,3.573561832E-2
1.991443924E0,8.292495459E-2,-9.178250283E-2,3.833179548E-2
1.993685440E0,6.627888232E-2,-4.581489484E-4,3.863722831E-2
1.995926163E0,3.878994286E-2,9.728029370E-2,2.290744707E-2
1.998158524E0,1.298088674E-2,1.547016203E-1,1.557706390E-2
2.000384659E0,-1.985311974E-3,1.550070494E-1,3.252857551E-2
2.002634781E0,-1.802052557E-2,9.834930301E-2,5.665775016E-2
2.004871109E0,-4.062253982E-2,1.496619824E-2,5.864306539E-2
2.007110306E0,-5.803219974E-2,-5.864306539E-2,4.337143153E-2
2.009341324E0,-7.498370856E-2,-1.007927656E-1,3.940080851E-2
2.011569413E0,-7.864890248E-2,-9.834930301E-2,4.795292020E-2
2.013818741E0,-6.582073122E-2,-6.948592514E-2,5.314527452E-2
2.016056473E0,-3.909537569E-2,-3.481931984E-2,4.734205827E-2
2.018295792E0,-6.566801574E-3,-8.704829961E-3,4.291328415E-2
2.020530655E0,1.954768784E-2,6.566801574E-3,4.688390717E-2
2.022766434E0,3.237585723E-2,3.176499158E-2,5.803219974E-2
2.025003434E0,3.924809024E-2,7.055493444E-2,5.818491429E-2
2.027241471E0,4.260785133E-2,1.128573567E-1,4.505131021E-2
2.029483231E0,4.352414981E-2,1.493565589E-1,3.298672289E-2
2.031714920E0,4.474587739E-2,1.481348276E-1,2.550362423E-2
2.033952591E0,3.298672289E-2,1.107193232E-1,2.046398632E-2
2.036187637E0,2.138028387E-3,4.810563847E-2,2.474004216E-2
2.038426529E0,-4.108068720E-2,-1.404990070E-2,3.634648025E-2
2.040662186E0,-7.742717117E-2,-4.123340547E-2,3.848451003E-2
2.042899430E0,-8.674286306E-2,-1.557706390E-2,3.359758854E-2
2.045136246E0,-6.948592514E-2,4.474587739E-2,3.756821156E-2
2.047373429E0,-3.497203439E-2,1.131627858E-1,4.795292020E-2
2.049610977E0,-2.138028387E-3,1.501201391E-1,4.963280261E-2
2.051848709E0,3.558290005E-2,1.240056455E-1,3.756821156E-2
2.054084854E0,7.116580009E-2,5.406157300E-2,1.557706390E-2
2.056322586E0,8.964447677E-2,-9.315694682E-3,4.581489135E-3
2.058558426E0,8.216137439E-2,-1.160643995E-2,1.786780916E-2
2.060795792E0,3.909537569E-2,5.589416996E-2,4.596760869E-2
2.063032547E0,-1.939497143E-2,1.553124934E-1,5.925392732E-2
2.065269608E0,-6.337726861E-2,2.241875380E-1,4.581489414E-2
2.067506973E0,-6.230825558E-2,2.131919712E-1,2.977968007E-2
2.069741898E0,-4.046982154E-2,1.363756657E-1,3.955352306E-2
2.071968887E0,-1.084285788E-2,2.901609987E-2,5.024366826E-2
2.074218888E0,4.886921961E-3,-5.253441259E-2,3.787364438E-2
2.076454606E0,6.108652451E-4,-8.765916526E-2,1.939497143E-2
2.078694718E0,-1.130100712E-2,-7.055493444E-2,2.046398632E-2
2.080928238E0,-1.878410578E-2,-4.886921961E-3,3.054326214E-2
2.083165543E0,-2.428189293E-2,9.117163718E-2,3.695734590E-2
2.085402908E0,-3.359758854E-2,1.786780804E-1,3.970624134E-2
2.087640824E0,-3.313944116E-2,1.968513280E-1,3.008511290E-2
2.089877396E0,-2.565634064E-2,1.372919679E-1,2.244929783E-2
2.092115128E0,-1.679879427E-2,2.428189293E-2,1.970040426E-2
2.094350663E0,-7.941247895E-3,-8.032877743E-2,2.428189293E-2
2.096587662E0,-8.552113548E-3,-1.093448773E-1,2.901609987E-2
2.098824479E0,-1.710422710E-2,-4.245513305E-2,3.161227703E-2
2.101061844E0,-3.145955876E-2,9.621127695E-2,2.962696366E-2
2.103299210E0,-4.382958263E-2,2.116648108E-1,2.871066704E-2
2.105537003E0,-3.726277873E-2,2.345722616E-1,2.641992271E-2
2.107773331E0,-2.031126991E-2,1.626428664E-1,3.359758854E-2
2.110011063E0,-1.878410578E-2,5.589416996E-2,4.673119262E-2
2.112246659E0,-3.558290005E-2,-4.337143153E-2,4.734205827E-2
2.114480972E0,-5.039638281E-2,-1.110247597E-1,3.344487399E-2
2.116708756E0,-5.696318299E-2,-1.314887404E-1,2.351831272E-2
2.118957840E0,-5.009094998E-2,-9.285151958E-2,3.237585723E-2
2.121195145E0,-3.283400834E-2,-3.252857551E-2,4.123340547E-2
2.123435868E0,-3.817907767E-3,4.581489135E-3,3.436116874E-2
2.125669022E0,1.603521220E-2,9.010262787E-3,2.351831272E-2
2.127906876E0,1.603521220E-2,3.054326167E-3,1.740965992E-2
2.130142960E0,-1.359175146E-2,-2.443460980E-3,1.710422710E-2
2.132380265E0,-6.566801667E-2,-1.114829071E-2,2.397646010E-2
2.134613907E0,-1.102611795E-1,-2.367102914E-2,3.084869497E-2
2.136839432E0,-1.262963861E-1,-2.947424725E-2,2.947424725E-2
2.139076675E0,-1.123992056E-1,-1.145372353E-2,3.344487399E-2
2.141314346E0,-7.513642311E-2,9.621127509E-3,3.741549700E-2
2.143556778E0,-2.183843218E-2,2.672535367E-2,3.924809024E-2
2.145806229E0,1.817324013E-2,5.390885845E-2,3.604105115E-2
2.148039139E0,2.962696366E-2,7.192938030E-2,2.886338346E-2
2.150268082E0,1.206458826E-2,5.283984542E-2,1.389718428E-2
2.152509781E0,-1.756237634E-2,-1.939497143E-2,3.512475174E-3
2.154735551E0,-5.146539584E-2,-1.073595658E-1,6.566801574E-3
2.156978959E0,-7.360926270E-2,-1.687515229E-1,1.832595654E-2
2.159225479E0,-6.887505949E-2,-1.762346178E-1,1.970040426E-2
2.161464493E0,-3.558290005E-2,-1.088867337E-1,1.527163107E-2
2.163702103E0,-6.108652335E-3,5.803219974E-3,1.237002108E-2
2.165934769E0,4.734205548E-3,1.148426682E-1,2.138028294E-2
2.168169023E0,-3.817907767E-3,1.841758788E-1,2.901609987E-2
2.170394303E0,-2.107485011E-2,1.821905524E-1,2.275473066E-2
2.172631424E0,-3.191770986E-2,1.301143020E-1,9.010262787E-3
2.174871658E0,-2.443460934E-2,7.299839705E-2,1.237002108E-2
2.177123856E0,-4.123340361E-3,4.459316283E-2,2.229658142E-2
2.179360550E0,1.832595654E-2,5.757404864E-2,2.504547499E-2
2.181598527E0,3.375030309E-2,9.117163718E-2,2.397646010E-2
2.183831192E0,3.665191308E-2,1.130100712E-1,1.557706390E-2
2.186068192E0,2.886338346E-2,8.521570265E-2,9.315694682E-3
2.188301956E0,5.192354787E-3,1.771509275E-2,1.496619824E-2
2.190530289E0,-2.351831272E-2,-5.940664560E-2,2.168571576E-2
2.192776383E0,-5.177082866E-2,-1.169806942E-1,2.000583708E-2
2.195005204E0,-5.696318299E-2,-1.327104717E-1,1.496619824E-2
2.197256485E0,-3.802636266E-2,-1.099557430E-1,1.160643995E-2
2.199491410E0,-1.084285788E-2,-4.505131021E-2,1.328631863E-2
2.201730363E0,7.635815418E-4,4.337143153E-2,1.618792862E-2
2.203964188E0,-1.527163113E-4,1.186605766E-1,1.160643995E-2
2.206201004E0,-4.581489135E-3,1.380555481E-1,3.054326167E-3
2.208438248E0,-1.634064503E-2,1.018617824E-1,1.679879380E-3
2.210675614E0,-2.138028294E-2,3.894266114E-2,2.596177394E-3
2.212913224E0,-2.382374369E-2,-2.290744707E-2,3.512475174E-3
2.215149735E0,-2.076941915E-2,-5.085453019E-2,9.468411095E-3
2.217387284E0,-1.802052557E-2,-3.756821156E-2,1.206458826E-2
2.219623124E0,-7.330383174E-3,3.512475174E-3,7.483099122E-3
2.221860184E0,3.359758761E-3,4.444044828E-2,3.970623948E-3
2.224097245E0,1.588249579E-2,5.635231733E-2,1.023199316E-2
2.226334366E0,1.298088674E-2,3.817907721E-2,1.878410578E-2
2.228571976E0,2.596177394E-3,1.053742506E-2,1.603521220E-2
2.230809708E0,-1.252273750E-2,-1.221730467E-2,3.665191587E-3
2.233046036E0,-2.382374369E-2,-2.535090782E-2,1.069014193E-3
2.235282181E0,-2.657263726E-2,-3.619376570E-2,1.450804994E-2
2.237513932E0,-2.809980139E-2,-4.474587739E-2,1.924225502E-2
2.239756363E0,-2.550362423E-2,-4.352414981E-2,1.313360315E-2
2.241993180E0,-1.679879427E-2,-3.756821156E-2,9.621127509E-3
2.244231583E0,-1.985311974E-3,-3.298672289E-2,8.552113548E-3
2.246467667E0,9.621127509E-3,-1.511891466E-2,6.261368748E-3
2.248705643E0,1.389718428E-2,2.000583708E-2,1.252273750E-2
2.250941849E0,3.512475174E-3,5.299255997E-2,1.756237634E-2
2.253179825E0,-1.114829071E-2,6.062837690E-2,1.374446787E-2
2.255415299E0,-2.641992271E-2,3.543018550E-2,1.099557430E-2
2.257652420E0,-4.230241850E-2,-1.404990070E-2,2.168571576E-2
2.259889176E0,-5.436700583E-2,-6.001751125E-2,3.863722831E-2
2.262123489E0,-4.749477282E-2,-8.918632567E-2,3.604105115E-2
2.264351700E0,-1.588249579E-2,-1.104138941E-1,1.053742506E-2
2.266601700E0,2.718350291E-2,-1.162171140E-1,-2.596177394E-3
2.268838089E0,5.054909736E-2,-1.154535338E-1,9.926560335E-3
2.271079056E0,3.940080851E-2,-1.114829108E-1,2.687807009E-2
2.273311295E0,6.566801574E-3,-9.758572280E-2,2.672535367E-2
2.275548416E0,-3.833179548E-2,-6.383541971E-2,2.031126991E-2
2.277785355E0,-7.452555746E-2,-2.672535367E-2,2.138028294E-2
2.280023942E0,-7.681630552E-2,-1.588249579E-2,2.748893574E-2
2.282262711E0,-4.260785133E-2,-3.222314268E-2,2.535090782E-2
2.284486344E0,-1.481348183E-2,-5.467243865E-2,2.550362423E-2
2.286733780E0,-3.054326226E-4,-7.192938030E-2,2.794708498E-2
2.288970413E0,4.276056774E-3,-8.414668590E-2,2.061670274E-2
2.291210404E0,7.024950348E-3,-7.696902007E-2,1.084285788E-2
2.293444718E0,3.970623948E-3,-4.535674304E-2,1.710422710E-2
2.295681412E0,7.024950348E-3,-1.374446787E-2,2.703078650E-2
2.297918534E0,1.695151068E-2,-5.497787148E-3,2.474004216E-2
2.300156082E0,2.641992271E-2,-2.748893574E-2,1.496619824E-2
2.302393631E0,1.740965992E-2,-5.039638281E-2,2.092213556E-2
2.304630020E0,-1.374446787E-2,-5.955936015E-2,3.039054573E-2
2.306867813E0,-5.543602258E-2,-5.742133409E-2,2.626720630E-2
2.309103897E0,-7.880161703E-2,-5.818491429E-2,1.878410578E-2
2.311340958E0,-7.757988572E-2,-5.345070735E-2,2.489275858E-2
2.313577713E0,-5.375614017E-2,-3.329215571E-2,3.497203439E-2
2.315814713E0,-1.863138936E-2,1.221730490E-3,2.443460934E-2
2.318047806E0,1.664607786E-2,3.329215571E-2,1.267545391E-2
2.320272721E0,3.527746722E-2,4.505131021E-2,1.649336144E-2
2.322526016E0,3.344487399E-2,1.725694351E-2,2.122756653E-2
2.324763993E0,1.313360315E-2,-1.267545391E-2,2.580905706E-2
2.327003860E0,-1.542434748E-2,-2.550362423E-2,2.687807009E-2
2.329233902E0,-3.268129006E-2,-2.641992271E-2,2.168571576E-2
2.331461441E0,-3.375030309E-2,-2.031126991E-2,1.817324013E-2
2.333710770E0,-1.282817032E-2,-1.832595654E-2,2.076941915E-2
2.335948074E0,1.939497143E-2,-1.160643995E-2,2.596177347E-2
2.338185990E0,4.566217586E-2,9.773843922E-3,2.138028294E-2
2.340410477E0,4.260785133E-2,4.138612002E-2,1.893682219E-2
2.342659745E0,2.321287990E-2,5.742133409E-2,1.771509275E-2
2.344895524E0,1.191187184E-2,4.550946131E-2,1.145372353E-2
2.347135575E0,2.000583708E-2,1.756237634E-2,2.748893574E-3
2.349366837E0,2.718350291E-2,8.857546374E-3,9.010262787E-3
2.351595291E0,2.764165215E-2,2.947424725E-2,1.756237634E-2
2.353844254E0,9.621127509E-3,5.283984542E-2,1.878410578E-2
2.356082352E0,-1.756237634E-2,5.222897977E-2,2.092213556E-2
2.358320512E0,-3.543018550E-2,2.092213556E-2,2.321287990E-2
2.360553543E0,-3.481931984E-2,-1.420261711E-2,2.550362423E-2
2.362791520E0,-1.679879427E-2,-3.283400834E-2,2.183843218E-2
2.365029190E0,1.420261711E-2,-2.733621933E-2,1.725694351E-2
2.367266556E0,4.062253982E-2,1.527163113E-4,1.756237634E-2
2.369503067E0,5.604688451E-2,3.130684420E-2,1.664607786E-2
2.371740311E0,4.291328415E-2,5.345070735E-2,1.664607786E-2
2.373978104E0,4.581489135E-3,5.054909736E-2,2.244929783E-2
2.376214432E0,-4.550946131E-2,1.267545391E-2,2.794708498E-2
2.378451920E0,-8.338310570E-2,-3.756821156E-2,2.122756653E-2
2.380687577E0,-8.811730891E-2,-9.208793938E-2,1.252273750E-2
2.382925064E0,-5.543602258E-2,-1.243110746E-1,6.414085161E-3
2.385161698E0,-5.955935922E-3,-1.142318025E-1,9.468411095E-3
2.387399124E0,4.184427112E-2,-5.696318299E-2,1.130100712E-2
2.389636551E0,6.352998316E-2,3.481931984E-2,1.175915636E-2
2.391874161E0,5.543602258E-2,1.259909570E-1,5.955935922E-3
2.394110489E0,2.825251780E-2,1.798998117E-1,2.290744567E-3
2.396348221E0,-9.010262787E-3,1.649336219E-1,1.298088674E-2
2.398584061E0,-5.009094998E-2,8.796459436E-2,2.580905706E-2
2.400821121E0,-7.544185966E-2,-9.773843922E-3,2.764165215E-2
2.403056778E0,-7.086037099E-2,-9.117163718E-2,1.878410578E-2
2.405290543E0,-4.199698567E-2,-1.293507218E-1,1.145372353E-2
2.407532303E0,-8.552113548E-3,-1.142318025E-1,1.542434748E-2
2.409770096E0,2.199114859E-2,-6.627888232E-2,1.832595654E-2
2.412007584E0,4.398229718E-2,-1.572977938E-2,1.145372353E-2
2.414244278E0,5.345070735E-2,2.412917651E-2,5.497787148E-3
2.416480057E0,5.619960278E-2,3.741549700E-2,1.053742506E-2
2.418717179E0,4.138612002E-2,4.016438872E-2,1.893682219E-2
2.420954117E0,1.313360315E-2,4.795292020E-2,2.367102914E-2
2.423190995E0,-2.244929783E-2,4.749477282E-2,1.970040426E-2
2.425428604E0,-4.260785133E-2,2.718350291E-2,9.621127509E-3
2.427666336E0,-4.321871698E-2,-5.497787148E-3,5.803219974E-3
2.429902725E0,-3.252857551E-2,-2.519819140E-2,8.246680722E-3
2.432140274E0,-2.260201424E-2,-1.572977938E-2,1.939497143E-2
2.434376297E0,-1.069014147E-2,2.168571576E-2,1.603521220E-2
2.436613358E0,1.130100712E-2,7.223481685E-2,5.345070735E-3
2.438850174E0,2.794708498E-2,1.035416573E-1,1.053742506E-2
2.441087235E0,3.878994286E-2,9.850201756E-2,1.679879427E-2
2.443324783E0,3.665191308E-2,4.871650413E-2,1.893682219E-2
2.445558609E0,1.954768784E-2,-5.497787148E-3,1.740965992E-2
2.447783829E0,-9.315694682E-3,-2.809980139E-2,1.588249579E-2
2.450036454E0,-2.871066704E-2,-1.313360315E-2,1.695151068E-2
2.452272294E0,-2.596177347E-2,-2.290744567E-3,7.177666761E-3
2.454513077E0,-2.596177394E-3,-1.481348183E-2,-1.221730467E-2
2.456746170E0,1.924225502E-2,-3.222314268E-2,-1.328631863E-2
2.458983414E0,1.282817032E-2,-3.451388702E-2,1.374446787E-3
2.461220657E0,-1.511891466E-2,-1.099557430E-2,1.588249579E-2
2.463458817E0,-4.612032697E-2,3.329215571E-2,1.817324013E-2
2.465694657E0,-6.123924255E-2,8.216137439E-2,1.710422710E-2
2.467932511E0,-4.978551716E-2,1.038470939E-1,2.336559631E-2
2.470168229E0,-1.435533352E-2,8.491026610E-2,2.733621933E-2
2.472405655E0,3.023782931E-2,3.665191308E-2,1.282817032E-2
2.474642411E0,4.902193695E-2,-9.773843922E-3,4.581489484E-4
2.476879471E0,3.619376570E-2,-4.108068720E-2,3.970623948E-3
2.479116776E0,9.926560335E-3,-5.268712714E-2,9.773843922E-3
2.481354569E0,2.596177394E-3,-5.619960278E-2,-3.817907767E-3
2.483590897E0,1.282817032E-2,-4.428773001E-2,-1.099557430E-2
2.485825455E0,2.336559631E-2,-6.872233935E-3,3.054326226E-4
2.488048050E0,1.664607786E-2,3.573561832E-2,9.010262787E-3
2.490284500E0,-1.481348183E-2,5.574145541E-2,2.596177394E-3
2.492538407E0,-5.314527452E-2,4.688390717E-2,1.069014193E-3
2.494778519E0,-8.216137439E-2,2.306016348E-2,1.664607786E-2
2.497017350E0,-8.246681094E-2,8.552113548E-3,2.764165215E-2
2.499250870E0,-4.153883830E-2,2.107485011E-2,2.183843218E-2
2.501487137E0,1.481348183E-2,6.246097013E-2,6.566801574E-3
2.503724381E0,7.360926270E-2,1.050688252E-1,-2.443460980E-3
2.505960160E0,1.120937690E-1,1.163698286E-1,-8.246680722E-3
2.508194290E0,1.075122803E-1,7.528914511E-2,-1.450804994E-2
2.510422501E0,5.696318299E-2,1.435533352E-2,-1.832595794E-3
2.512671768E0,-2.687807009E-2,-4.841107130E-2,1.313360315E-2
2.514909195E0,-9.926560521E-2,-9.911288321E-2,2.596177394E-3
2.517150040E0,-1.295034289E-1,-1.372919679E-1,-3.970623948E-3
2.519382950E0,-1.076650023E-1,-1.475239545E-1,7.177666761E-3
2.521620926E0,-5.757404864E-2,-1.072068512E-1,1.267545391E-2
2.523856400E0,-7.635815418E-4,-3.909537569E-2,0.000000000E0
2.526090530E0,4.245513305E-2,2.550362423E-2,-1.160643995E-2
2.528315140E0,5.711590126E-2,7.620543987E-2,-7.635815535E-3
2.530555741E0,4.871650413E-2,9.330966324E-2,-5.192354787E-3
2.532805069E0,2.015855350E-2,7.819075137E-2,6.108652451E-4
2.535045914E0,-1.160643995E-2,3.756821156E-2,1.359175146E-2
2.537282181E0,-3.359758854E-2,-1.908953860E-2,1.328631863E-2
2.539516983E0,-3.741549700E-2,-8.933904022E-2,-1.832595794E-3
2.541752701E0,-3.390302137E-2,-1.537853181E-1,4.581489484E-4
2.543989579E0,-3.588833287E-2,-1.913535446E-1,1.007927675E-2
2.546226578E0,-5.054909736E-2,-1.849394590E-1,9.926560335E-3
2.548463700E0,-6.078109145E-2,-1.459967941E-1,-3.359758761E-3
2.550701309E0,-4.764748737E-2,-1.134682223E-1,-2.031126991E-2
2.552938797E0,-1.511891466E-2,-8.979719132E-2,-2.367102914E-2
2.555175186E0,1.970040426E-2,-6.627888232E-2,-8.552113548E-3
2.557412918E0,2.412917651E-2,-2.382374369E-2,7.635815535E-3
2.559648758E0,6.719517522E-3,2.504547499E-2,7.635815535E-3
2.561885819E0,-1.863138936E-2,4.856378585E-2,1.527163113E-4
2.564122574E0,-2.993239649E-2,3.665191308E-2,2.443460980E-3
2.566359696E0,-2.443460934E-2,8.704829961E-3,1.099557430E-2
2.568597305E0,-2.031126991E-2,-2.657263726E-2,1.206458826E-2
2.570835038E0,-1.466076635E-2,-5.711590126E-2,-2.748893574E-3
2.573071182E0,9.162978968E-4,-8.170322329E-2,-1.740965992E-2
2.575308975E0,1.908953860E-2,-1.026253626E-1,-2.092213556E-2
2.577544938E0,2.626720630E-2,-1.027780771E-1,-6.261368748E-3
2.579781876E0,1.939497143E-2,-7.590000331E-2,8.552113548E-3
2.582018876E0,1.985311974E-3,-2.580905706E-2,9.773843922E-3
2.584255814E0,-2.183843218E-2,1.832595654E-2,4.886921961E-3
2.586493057E0,-2.519819140E-2,2.809980139E-2,2.443460980E-3
2.588731034E0,-7.330383174E-3,-1.527163113E-4,3.665191587E-3
2.590967423E0,1.282817032E-2,-3.329215571E-2,3.817907767E-3
2.593205216E0,1.893682219E-2,-3.955352306E-2,-5.955935922E-3
2.595440751E0,1.695151068E-2,-2.367102914E-2,-2.061670274E-2
2.597678116E0,1.618792862E-2,-6.108652451E-4,-3.161227703E-2
2.599915055E0,2.626720630E-2,1.252273750E-2,-2.657263726E-2
2.602151993E0,2.901609987E-2,2.458732575E-2,-1.420261711E-2
2.604389481E0,2.306016348E-2,3.802636266E-2,-4.428773187E-3
2.606626969E0,7.024950348E-3,4.077525437E-2,-3.359758761E-3
2.608863419E0,7.635815418E-4,2.993239649E-2,-1.313360315E-2
2.611101151E0,1.023199316E-2,1.404990070E-2,-1.679879427E-2
2.613334061E0,9.926560335E-3,-2.901609987E-3,-3.512475174E-3
2.615559280E0,-4.123340361E-3,-2.214386500E-2,1.221730467E-2
2.617798661E0,-1.786780916E-2,-2.916881628E-2,1.084285788E-2
2.620048172E0,-2.260201424E-2,-2.168571576E-2,-2.596177394E-3
2.622288407E0,-2.443460980E-3,-8.704829961E-3,-1.221730467E-2
2.624526139E0,3.940080851E-2,-4.734205548E-3,-1.053742506E-2
2.626759598E0,8.093964309E-2,-2.367102914E-2,-1.145372353E-2
2.628997147E0,9.498954564E-2,-6.520986557E-2,-2.626720630E-2
2.631233048E0,6.566801667E-2,-1.133155003E-1,-3.283400834E-2
2.633470291E0,8.399397135E-3,-1.412625909E-1,-1.756237634E-2
2.635707108E0,-4.046982154E-2,-1.209513173E-1,-5.650503561E-3
2.637944229E0,-6.123924255E-2,-5.009094998E-2,-9.162978269E-3
2.640181778E0,-5.222897977E-2,2.733621933E-2,-8.704829961E-3
2.642416703E0,-2.290744707E-2,7.895433158E-2,-9.162978968E-4
2.644644364E0,1.038470957E-2,8.323039114E-2,-6.108652451E-4
2.646893143E0,2.840523422E-2,5.742133409E-2,-6.719517522E-3
2.649129166E0,2.748893574E-2,1.863138936E-2,-5.650503561E-3
2.651366105E0,1.817324013E-2,-1.771509275E-2,-5.955935922E-3
2.653588211E0,2.764165215E-2,-4.092797264E-2,-1.328631863E-2
2.655825455E0,5.238169432E-2,-4.260785133E-2,-3.145955876E-2
2.658062332E0,6.352998316E-2,-3.436116874E-2,-3.375030309E-2
2.660304642E0,4.963280261E-2,-4.856378585E-2,-1.313360315E-2
2.662554886E0,4.276056774E-3,-9.621127695E-2,-8.857546374E-3
2.664792557E0,-4.092797264E-2,-1.450804919E-1,-1.924225502E-2
2.667028397E0,-6.078109145E-2,-1.496619880E-1,-2.061670274E-2
2.669259232E0,-4.367686436E-2,-9.773843735E-2,-6.719517522E-3
2.671484146E0,6.108652335E-3,-2.901609987E-3,-4.734205548E-3
2.673723954E0,5.635231733E-2,1.065959856E-1,-5.039638374E-3
2.675970596E0,8.277224004E-2,1.898263693E-1,-7.024950348E-3
2.678211624E0,9.162978828E-2,2.005165219E-1,-1.786780916E-2
2.680439164E0,8.918632567E-2,1.339322031E-1,-3.405573592E-2
2.682686662E0,7.727445662E-2,3.100141138E-2,-3.573561832E-2
2.684921158E0,4.718934000E-2,-4.978551716E-2,-3.023782931E-2
2.687161210E0,9.468411095E-3,-8.781187981E-2,-2.458732575E-2
2.689392227E0,-2.244929783E-2,-8.246681094E-2,-2.244929783E-2
2.691617447E0,-4.138612002E-2,-4.566217586E-2,-1.756237634E-2
2.693857803E0,-3.451388702E-2,-1.175915636E-2,-1.374446787E-2
2.696107498E0,-4.428773187E-3,1.679879427E-2,-1.328631863E-2
2.698346878E0,2.519819140E-2,2.351831272E-2,-1.053742506E-2
2.700584611E0,4.841107130E-2,1.695151068E-2,-9.162978269E-3
2.702817154E0,5.696318299E-2,5.803219974E-3,-1.527163107E-2
2.705054276E0,5.100724846E-2,1.572977938E-2,-2.260201424E-2
2.707291336E0,4.016438872E-2,2.916881628E-2,-2.260201424E-2
2.709528702E0,3.558290005E-2,4.382958263E-2,-2.260201424E-2
2.711766068E0,3.069597855E-2,4.520402849E-2,-2.519819140E-2
2.714003739E0,2.535090782E-2,2.580905706E-2,-2.153299935E-2
2.716239823E0,1.572977938E-2,-2.489275858E-2,-1.939497143E-2
2.718477555E0,4.734205548E-3,-7.681630552E-2,-1.847867295E-2
2.720713089E0,-6.108652451E-4,-1.033889428E-1,-2.229658142E-2
2.722950272E0,-2.748893574E-3,-9.132435173E-2,-3.084869497E-2
2.725187333E0,3.970623948E-3,-6.108652428E-2,-3.069597855E-2
2.727424698E0,1.557706390E-2,-3.344487399E-2,-2.809980139E-2
2.729662064E0,1.114829071E-2,-5.345070735E-3,-1.817324013E-2
2.731899796E0,-7.635815418E-4,1.786780916E-2,-2.290744567E-3
2.734133073E0,-6.872233935E-3,2.535090782E-2,-3.512475174E-3
2.736361649E0,1.771509275E-2,1.634064503E-2,-2.168571576E-2
2.738609452E0,5.818491429E-2,2.138028387E-3,-2.871066704E-2
2.740846756E0,9.605856240E-2,-7.024950348E-3,-2.596177347E-2
2.743086564E0,1.010981947E-1,-7.177666761E-3,-2.596177347E-2
2.745320694E0,6.185010448E-2,-1.527163084E-3,-2.993239649E-2
2.747558243E0,1.527163113E-4,-6.414085161E-3,-2.809980139E-2
2.749795914E0,-4.352414981E-2,-2.977968007E-2,-2.733621933E-2
2.752031815E0,-4.520402849E-2,-5.406157300E-2,-3.481931984E-2
2.754269547E0,-5.650503561E-3,-5.360342562E-2,-3.924809024E-2
2.756505387E0,4.306599870E-2,-1.817324013E-2,-3.390302137E-2
2.758742752E0,6.612616032E-2,2.748893574E-2,-3.466660157E-2
2.760979325E0,4.871650413E-2,7.880161703E-2,-3.588833287E-2
2.763216629E0,5.039638374E-3,1.111774743E-1,-3.604105115E-2
2.765453934E0,-2.962696366E-2,1.082758680E-1,-3.023782931E-2
2.767691788E0,-4.413501546E-2,6.490442902E-2,-1.710422710E-2
2.769928116E0,-2.962696366E-2,-7.024950348E-3,-8.704829961E-3
2.772165909E0,-1.221730490E-3,-7.070764899E-2,-1.725694351E-2
2.774401688E0,2.748893574E-2,-1.172861308E-1,-3.924809024E-2
2.776638748E0,3.344487399E-2,-1.284344196E-1,-5.024366826E-2
2.778872574E0,8.857546374E-3,-1.291979998E-1,-4.321871698E-2
2.781100846E0,-1.679879427E-2,-1.153008118E-1,-3.359758854E-2
2.783349991E0,-3.466660157E-2,-7.727445662E-2,-2.489275858E-2
2.785588028E0,-2.367102914E-2,-2.535090782E-2,-1.970040426E-2
2.787827286E0,1.191187184E-2,2.977968007E-2,-2.657263726E-2
2.790061905E0,5.925392732E-2,5.681046844E-2,-2.855795063E-2
2.792297623E0,8.765916526E-2,6.352998316E-2,-1.847867295E-2
2.794534745E0,7.544185966E-2,7.223481685E-2,-1.847867295E-2
2.796771805E0,3.878994286E-2,7.666359097E-2,-2.977968007E-2
2.799008866E0,-1.435533352E-2,6.918048859E-2,-3.527746722E-2
2.801246231E0,-4.214970022E-2,2.962696366E-2,-3.313944116E-2
2.803484024E0,-2.871066704E-2,-2.764165215E-2,-2.840523422E-2
2.805720535E0,7.483099122E-3,-6.719517708E-2,-2.458732575E-2
2.807954910E0,4.214970022E-2,-5.940664560E-2,-2.306016348E-2
2.810179031E0,5.528330430E-2,-2.076941915E-2,-3.008511290E-2
2.812416276E0,3.588833287E-2,-2.290744567E-3,-3.512475267E-2
2.814653153E0,-1.145372353E-2,-2.794708498E-2,-2.458732575E-2
2.816893143E0,-6.444628537E-2,-8.765916526E-2,-1.542434748E-2
2.819133439E0,-9.254608303E-2,-1.368338168E-1,-1.710422710E-2
2.821383134E0,-9.010262042E-2,-1.380555481E-1,-2.076941915E-2
2.823619217E0,-6.078109145E-2,-9.010262042E-2,-1.298088674E-2
2.825856888E0,-1.145372353E-2,-2.443460934E-2,-8.704829961E-3
2.828088822E0,3.145955876E-2,2.458732575E-2,-1.664607786E-2
2.830321854E0,4.764748737E-2,3.390302137E-2,-1.771509275E-2
2.832563858E0,4.092797264E-2,1.099557430E-2,-1.542434748E-2
2.834801041E0,2.092213556E-2,-1.404990070E-2,-2.672535367E-2
2.837039750E0,3.207042580E-3,-3.680463135E-2,-3.298672289E-2
2.839276261E0,-1.572977938E-2,-5.467243865E-2,-1.985312067E-2
2.841512589E0,-1.847867295E-2,-6.795875728E-2,-1.863138936E-2
2.843750321E0,-1.328631863E-2,-6.200282276E-2,-2.718350291E-2
2.845985917E0,1.069014193E-3,-2.214386500E-2,-2.809980139E-2
2.848220230E0,1.069014147E-2,3.344487399E-2,-2.412917651E-2
2.850448014E0,1.679879427E-2,8.552113175E-2,-3.237585723E-2
2.852697159E0,1.939497143E-2,9.514226019E-2,-3.481931984E-2
2.854934708E0,1.756237634E-2,6.246097013E-2,-2.886338346E-2
2.857172379E0,6.719517522E-3,1.771509275E-2,-2.672535367E-2
2.859393388E0,-6.108652335E-3,-9.926560335E-3,-2.809980139E-2
2.861634293E0,-1.725694351E-2,-1.084285788E-2,-2.947424725E-2
2.863881852E0,-1.435533352E-2,4.886921961E-3,-3.298672289E-2
2.866122269E0,-5.650503561E-3,1.435533352E-2,-3.283400834E-2
2.868359025E0,1.389718428E-2,6.719517522E-3,-2.794708498E-2
2.870593399E0,2.367102914E-2,6.566801574E-3,-2.535090782E-2
2.872830643E0,2.428189293E-2,3.069597855E-2,-2.764165215E-2
2.875068253E0,1.771509275E-2,7.086037099E-2,-3.130684420E-2
2.877304764E0,1.588249579E-2,1.036943719E-1,-3.604105115E-2
2.879542313E0,3.054326214E-2,9.743300825E-2,-3.833179548E-2
2.881778153E0,4.612032697E-2,7.040221989E-2,-3.955352306E-2
2.884015152E0,4.795292020E-2,4.001167417E-2,-3.848451003E-2
2.886252030E0,3.283400834E-2,2.809980139E-2,-3.985895589E-2
2.888489334E0,1.221730467E-2,4.077525437E-2,-4.245513305E-2
2.890726700E0,-8.093964309E-3,6.902777404E-2,-4.123340547E-2
2.892964493E0,-1.282817032E-2,8.368854225E-2,-3.878994286E-2
2.895200760E0,-1.679879380E-3,8.231408894E-2,-4.123340547E-2
2.897438309E0,7.788531948E-3,6.017022580E-2,-4.489859566E-2
2.899674210E0,7.330383174E-3,4.077525437E-2,-4.123340547E-2
2.901911698E0,9.162978968E-4,2.764165215E-2,-4.138612002E-2
2.904148331E0,-1.023199316E-2,2.412917651E-2,-4.642575979E-2
2.906385575E0,-1.511891466E-2,2.794708498E-2,-4.031710699E-2
2.908622635E0,-5.345070735E-3,2.886338346E-2,-3.649919853E-2
2.910860672E0,9.162978968E-4,2.764165215E-2,-3.894266114E-2
2.913096756E0,-1.145372353E-2,2.535090782E-2,-3.420845419E-2
2.915334549E0,-3.787364438E-2,1.679879380E-3,-3.207042441E-2
2.917570023E0,-5.329799280E-2,-3.329215571E-2,-3.344487399E-2
2.919807205E0,-4.535674304E-2,-6.368270516E-2,-3.726277873E-2
2.922044266E0,-2.183843218E-2,-6.291911751E-2,-4.321871698E-2
2.924281571E0,1.313360315E-2,-3.695734590E-2,-4.398229718E-2
2.926518815E0,3.741549700E-2,3.817907767E-3,-4.352414981E-2
2.928756913E0,4.566217586E-2,4.978551716E-2,-4.703662544E-2
2.930992813E0,2.550362423E-2,8.659014851E-2,-4.703662544E-2
2.933230850E0,-1.007927675E-2,9.208793938E-2,-3.634648025E-2
2.935466263E0,-4.413501546E-2,5.635231733E-2,-2.809980139E-2
2.937703507E0,-6.643159688E-2,-8.704829961E-3,-3.466660157E-2
2.939940445E0,-7.238753140E-2,-6.322455406E-2,-3.741549700E-2
2.942177567E0,-6.444628537E-2,-9.498954564E-2,-3.023782931E-2
2.944414871E0,-4.352414981E-2,-9.407325089E-2,-3.237585723E-2
2.946649307E0,-2.336559631E-2,-7.391469181E-2,-3.833179548E-2
2.948876602E0,-3.207042580E-3,-5.482515693E-2,-3.680463135E-2
2.951126786E0,9.010262787E-3,-5.513058975E-2,-3.298672289E-2
2.953362381E0,1.130100712E-2,-6.246097013E-2,-3.802636266E-2
2.955602555E0,3.970623948E-3,-6.475171447E-2,-3.924809024E-2
2.957836441E0,-1.191187184E-2,-5.589416996E-2,-3.084869497E-2
2.960073563E0,-2.748893574E-2,-3.741549700E-2,-3.695734590E-2
2.962310989E0,-3.711006418E-2,-2.626720630E-2,-4.428773001E-2
2.964548905E0,-3.970624134E-2,-2.871066704E-2,-3.711006418E-2
2.966785050E0,-3.329215571E-2,-1.908953860E-2,-3.817907721E-2
2.969022843E0,-2.138028294E-2,2.321287990E-2,-4.520402849E-2
2.971258561E0,-9.010262787E-3,8.124507964E-2,-5.222897977E-2
2.973495682E0,5.192354787E-3,1.111774743E-1,-5.451972410E-2
2.975732499E0,2.840523422E-2,1.082758680E-1,-5.299255997E-2
2.977969803E0,3.665191308E-2,8.399397135E-2,-5.558873713E-2
2.980207108E0,2.748893574E-2,6.108652428E-2,-5.940664560E-2
2.982442826E0,-2.138028387E-3,5.558873713E-2,-5.711590126E-2
2.984673660E0,-3.543018550E-2,5.864306539E-2,-4.520402849E-2
2.986918778E0,-5.619960278E-2,6.627888232E-2,-4.046982154E-2
2.989151810E0,-5.497787148E-2,6.139195710E-2,-4.413501546E-2
2.991382340E0,-4.062253982E-2,4.535674304E-2,-4.169155285E-2
2.993628739E0,-1.404990070E-2,1.695151068E-2,-4.153883830E-2
2.995865860E0,2.107485011E-2,-9.162978269E-3,-5.238169432E-2
2.998103226E0,5.085453019E-2,-6.108652335E-3,-5.940664560E-2
3.000328995E0,5.146539584E-2,3.023782931E-2,-5.070181563E-2
3.002576737E0,2.397646010E-2,7.681630552E-2,-3.970624134E-2
3.004811844E0,-1.130100712E-2,9.453139454E-2,-4.612032697E-2
3.007053849E0,-3.405573592E-2,5.864306539E-2,-6.108652428E-2
3.009284866E0,-4.153883830E-2,-1.160643995E-2,-6.643159688E-2
3.011513565E0,-2.703078650E-2,-8.231408894E-2,-5.910121277E-2
3.013761978E0,-1.252273750E-2,-8.994990587E-2,-5.421429127E-2
3.015999100E0,-3.512475174E-3,-1.359175146E-2,-5.131268129E-2
3.018236893E0,2.748893574E-3,1.149953827E-1,-5.574145541E-2
3.020461258E0,2.214386500E-2,2.176207453E-1,-6.979135424E-2
3.022711014E0,6.078109145E-2,2.339613885E-1,-8.277224004E-2
3.024946061E0,8.918632567E-2,1.823432744E-1,-8.155050874E-2
3.027184708E0,7.895433158E-2,1.049161032E-1,-6.734789163E-2
3.029420975E0,2.351831272E-2,4.902193695E-2,-5.696318299E-2
3.031659134E0,-3.573561832E-2,3.313944116E-2,-6.246097013E-2
3.033896195E0,-6.490442902E-2,4.948008433E-2,-6.750060618E-2
3.036133194E0,-4.474587739E-2,7.574728876E-2,-5.986479297E-2
3.038369217E0,-2.596177394E-3,9.315694869E-2,-5.085453019E-2
3.040607010E0,3.176499158E-2,8.399397135E-2,-5.681046844E-2
3.042843094E0,3.481931984E-2,5.238169432E-2,-6.429356337E-2
3.045080094E0,9.162978269E-3,-4.581489484E-4,-6.582073122E-2
3.047316727E0,-2.535090782E-2,-6.047565863E-2,-6.520986557E-2
3.049553971E0,-4.963280261E-2,-1.061378345E-1,-7.422012836E-2
3.051791336E0,-5.986479297E-2,-1.290452778E-1,-7.803803682E-2
3.054029190E0,-5.986479297E-2,-1.241583601E-1,-7.681630552E-2
3.056265518E0,-5.314527452E-2,-9.636399150E-2,-7.406741381E-2
3.058503250E0,-4.474587739E-2,-4.184427112E-2,-6.398813426E-2
3.060738846E0,-3.985895589E-2,1.618792862E-2,-6.017022580E-2
3.062976151E0,-2.397646010E-2,7.055493444E-2,-6.582073122E-2
3.065212906E0,-4.428773187E-3,1.198823079E-1,-6.795875728E-2
3.067447037E0,1.588249579E-2,1.485929638E-1,-6.398813426E-2
3.069675369E0,1.679879427E-2,1.414152980E-1,-5.787948146E-2
3.071925186E0,-4.886921961E-3,1.065959856E-1,-4.596760869E-2
3.074161759E0,-3.527746722E-2,6.597344577E-2,-4.520402849E-2
3.076402298E0,-4.963280261E-2,2.000583708E-2,-5.039638281E-2
3.078635086E0,-3.451388702E-2,-2.153299935E-2,-5.650503561E-2
3.080872147E0,3.970623948E-3,-6.963863969E-2,-6.001751125E-2
3.083109147E0,2.886338346E-2,-1.186605766E-1,-5.879577994E-2
3.085346024E0,1.832595654E-2,-1.475239545E-1,-6.032294407E-2
3.087583634E0,-2.611448988E-2,-1.600466967E-1,-5.955936015E-2
3.089818375E0,-7.895433158E-2,-1.565342247E-1,-6.475171447E-2
3.092045914E0,-1.081231460E-1,-1.389718503E-1,-6.627888232E-2
3.094295731E0,-1.065959856E-1,-1.171334088E-1,-5.513058975E-2
3.096531144E0,-8.261952549E-2,-8.246681094E-2,-3.756821156E-2
3.098771561E0,-4.092797264E-2,-2.871066704E-2,-4.077525437E-2
3.101004838E0,2.443460980E-3,3.848451003E-2,-5.726861581E-2
3.103242264E0,3.054326214E-2,8.277224004E-2,-6.902777404E-2
3.105479569E0,4.520402849E-2,8.139779419E-2,-7.131851465E-2
3.107717667E0,3.985895589E-2,5.345070735E-2,-7.513642311E-2
3.109953751E0,1.206458826E-2,2.244929783E-2,-7.925976813E-2
3.112190323E0,-2.550362423E-2,-5.955935922E-3,-7.116580009E-2
3.114422318E0,-5.665775016E-2,-2.351831272E-2,-6.414084882E-2
3.116664200E0,-6.444628537E-2,-4.520402849E-2,-6.795875728E-2
3.118901444E0,-5.879577994E-2,-7.315111160E-2,-6.918048859E-2
3.121139725E0,-5.192354694E-2,-9.269879758E-2,-6.307183951E-2
3.123375931E0,-4.703662544E-2,-9.529497474E-2,-6.307183951E-2
3.125613541E0,-3.558290005E-2,-7.605272532E-2,-6.414084882E-2
3.127849686E0,-2.382374369E-2,-4.596760869E-2,-6.627888232E-2
3.130087479E0,-3.665191587E-3,-2.336559631E-2,-6.856962293E-2
3.132323258E0,1.160643995E-2,-2.901609987E-3,-7.070764899E-2
3.134560440E0,2.519819140E-2,1.679879380E-3,-7.422012836E-2
3.136797440E0,1.282817032E-2,-3.054326167E-3,-7.803803682E-2
3.139034500E0,-1.481348183E-2,-2.550362423E-2,-7.345654815E-2
3.141271927E0,-4.993823543E-2,-6.246097013E-2,-7.635815442E-2
3.143509781E0,-7.070764899E-2,-1.166752651E-1,-8.659014851E-2
3.145745682E0,-7.406741381E-2,-1.650863290E-1,-9.178250283E-2
3.147983475E0,-6.444628537E-2,-1.689042449E-1,-8.185594529E-2
3.150216324E0,-5.345070735E-2,-1.084285825E-1,-6.444628537E-2
3.152442032E0,-4.046982154E-2,-1.649336144E-2,-5.772676691E-2
3.154681290E0,-1.649336144E-2,7.284568250E-2,-6.704246253E-2
3.156928849E0,9.315694682E-3,1.305724531E-1,-6.658431143E-2
3.159170975E0,3.390302137E-2,1.288925707E-1,-5.772676691E-2
3.161408524E0,3.756821156E-2,6.688974798E-2,-6.169738993E-2
3.163642410E0,2.474004216E-2,-2.138028294E-2,-6.826419383E-2
3.165879715E0,0.000000000E0,-8.765916526E-2,-6.383541971E-2
3.168112625E0,-1.908953860E-2,-1.128573567E-1,-6.291911751E-2
3.170338578E0,-1.618792862E-2,-9.590584040E-2,-6.643159688E-2
3.172580216E0,5.345070735E-3,-6.719517708E-2,-6.612616032E-2
3.174826981E0,2.916881628E-2,-4.581489414E-2,-7.070764899E-2
3.177067093E0,4.169155285E-2,-3.756821156E-2,-7.559457421E-2
3.179304459E0,3.039054573E-2,-4.703662544E-2,-7.452555746E-2
3.181538101E0,-5.497787148E-3,-5.726861581E-2,-7.238753140E-2
3.183775650E0,-3.649919853E-2,-6.398813426E-2,-7.513642311E-2
3.186011185E0,-3.741549700E-2,-5.177082866E-2,-7.498370856E-2
3.188245927E0,-2.290744707E-2,-1.069014193E-3,-7.223481685E-2
3.190472000E0,7.635815418E-4,7.498370856E-2,-6.322455406E-2
3.192708023E0,2.321287990E-2,1.461495161E-1,-6.643159688E-2
3.194947891E0,3.711006418E-2,1.640173197E-1,-7.360926270E-2
3.197200516E0,3.130684420E-2,1.192714423E-1,-7.254024595E-2
3.199437088E0,4.886921961E-3,3.481931984E-2,-7.192938030E-2
3.201674820E0,-1.893682219E-2,-5.207626149E-2,-7.727445662E-2
3.203907792E0,-3.084869497E-2,-9.682214260E-2,-8.124507964E-2
3.206144852E0,-2.611448988E-2,-9.804387391E-2,-7.635815442E-2
3.208381730E0,-4.581489135E-3,-6.704246253E-2,-6.872233748E-2
3.210618912E0,3.466660157E-2,-1.435533352E-2,-6.566801667E-2
3.212856094E0,6.918048859E-2,4.444044828E-2,-6.887505949E-2
3.215094071E0,7.131851465E-2,8.811730891E-2,-6.872233748E-2
3.217330155E0,4.306599870E-2,9.712757170E-2,-6.032294407E-2
3.219568009E0,-1.985311974E-3,6.047565863E-2,-6.444628537E-2
3.221803727E0,-4.398229718E-2,-1.038470957E-2,-7.131851465E-2
3.224040848E0,-6.261368841E-2,-7.803803682E-2,-7.284568250E-2
3.226277604E0,-4.978551716E-2,-1.085812971E-1,-6.062837690E-2
3.228514725E0,-1.725694351E-2,-8.491026610E-2,-6.032294407E-2
3.230752335E0,2.840523422E-2,-2.519819140E-2,-7.315111160E-2
3.232989823E0,7.437284291E-2,5.406157300E-2,-8.216137439E-2
3.235225235E0,9.773843735E-2,1.142318025E-1,-7.574728876E-2
3.237463944E0,8.933904022E-2,1.290452778E-1,-7.696902007E-2
3.239699723E0,3.924809024E-2,8.384125680E-2,-8.735372871E-2
3.241937210E0,-3.390302137E-2,-3.359758761E-3,-8.949175477E-2
3.244174149E0,-1.024726480E-1,-1.038470939E-1,-8.323039114E-2
3.246411026E0,-1.406517178E-1,-1.650863290E-1,-7.147123665E-2
3.248648636E0,-1.259909570E-1,-1.701259762E-1,-7.009678334E-2
3.250886246E0,-6.307183951E-2,-1.046106741E-1,-7.910704613E-2
3.253122391E0,1.282817032E-2,-5.345070735E-3,-8.292495459E-2
3.255359940E0,7.101308554E-2,7.238753140E-2,-8.582656831E-2
3.257595963E0,8.643743396E-2,1.047633886E-1,-8.933904022E-2
3.259833084E0,6.505715102E-2,8.216137439E-2,-8.949175477E-2
3.262069962E0,2.107485011E-2,3.573561832E-2,-9.010262042E-2
3.264307144E0,-1.450804994E-2,-2.061670274E-2,-9.560041130E-2
3.266544266E0,-2.886338346E-2,-6.291911751E-2,-9.697485715E-2
3.268782059E0,-3.405573592E-2,-6.765332818E-2,-8.246681094E-2
3.271018448E0,-4.337143153E-2,-4.077525437E-2,-7.009678334E-2
3.273256485E0,-5.497787148E-2,-2.901609987E-3,-7.131851465E-2
3.275492020E0,-5.054909736E-2,2.855795063E-2,-7.971791178E-2
3.277726517E0,-2.443460934E-2,3.665191308E-2,-8.552113175E-2
3.279956314E0,1.954768784E-2,1.634064503E-2,-9.269879758E-2
3.282206131E0,5.497787148E-2,1.069014193E-3,-9.972374886E-2
3.284440628E0,6.139195710E-2,1.786780916E-2,-1.007927656E-1
3.286681168E0,2.977968007E-2,3.787364438E-2,-9.865473956E-2
3.288914017E0,-3.512475174E-3,3.252857551E-2,-1.050688252E-1
3.291152664E0,-2.871066704E-2,5.039638374E-3,-1.017090604E-1
3.293387894E0,-4.398229718E-2,-1.771509275E-2,-8.842274547E-2
3.295625077E0,-5.283984542E-2,-1.985312067E-2,-7.376197726E-2
3.297862015E0,-5.604688451E-2,-1.679879380E-3,-7.376197726E-2
3.300099259E0,-5.451972410E-2,1.649336144E-2,-7.864890248E-2
3.302336807E0,-4.428773001E-2,3.817907721E-2,-7.345654815E-2
3.304574295E0,-1.817324013E-2,4.734205827E-2,-7.208210230E-2
3.306810684E0,2.000583708E-2,4.657847434E-2,-8.277224004E-2
3.309048416E0,5.482515693E-2,5.925392732E-2,-8.842274547E-2
3.311284256E0,6.994406879E-2,7.834346592E-2,-8.460483700E-2
3.313521378E0,6.001751125E-2,7.131851465E-2,-8.964447677E-2
3.315758316E0,2.687807009E-2,1.740965992E-2,-9.498954564E-2
3.317993424E0,-1.542434748E-2,-6.429356337E-2,-9.086620808E-2
3.320225723E0,-4.505131021E-2,-1.281289905E-1,-8.643743396E-2
3.322467485E0,-6.627888232E-2,-1.434006095E-1,-8.796459436E-2
3.324694718E0,-6.185010448E-2,-1.046106741E-1,-8.765916526E-2
3.326946244E0,-4.581489414E-2,-4.673119262E-2,-8.857546002E-2
3.329179642E0,-2.275473066E-2,-1.069014193E-3,-8.811730891E-2
3.331417130E0,-5.039638374E-3,2.764165215E-2,-8.307767659E-2
3.333654129E0,3.054326226E-4,4.581489414E-2,-8.536841720E-2
3.335891373E0,4.123340361E-3,5.177082866E-2,-9.269879758E-2
3.338126664E0,9.010262787E-3,4.444044828E-2,-1.024726480E-1
3.340354813E0,1.954768784E-2,1.756237634E-2,-1.000291854E-1
3.342599686E0,3.481931984E-2,-1.557706390E-2,-9.758572280E-2
3.344828751E0,3.680463135E-2,-3.985895589E-2,-9.147707373E-2
3.347079423E0,1.466076635E-2,-3.329215571E-2,-8.429940045E-2
3.349310685E0,-1.664607786E-2,1.221730490E-3,-7.956519723E-2
3.351541581E0,-4.321871698E-2,2.351831272E-2,-8.338310570E-2
3.353787430E0,-5.100724846E-2,3.054326167E-3,-9.575312585E-2
3.356022843E0,-2.733621933E-2,-4.474587739E-2,-9.330966324E-2
3.358253922E0,6.261368748E-3,-8.536841720E-2,-8.704829961E-2
3.360486954E0,3.252857551E-2,-6.398813426E-2,-8.552113175E-2
3.362736649E0,4.520402849E-2,1.450804994E-2,-8.872817457E-2
3.364974625E0,4.703662544E-2,9.957103431E-2,-1.006400511E-1
3.367212540E0,4.902193695E-2,1.322523206E-1,-1.004873365E-1
3.369446305E0,4.337143153E-2,9.957103431E-2,-9.453139454E-2
3.371683426E0,1.832595654E-2,2.122756653E-2,-9.269879758E-2
3.373921036E0,-1.878410578E-2,-5.085453019E-2,-9.086620808E-2
3.376158829E0,-5.528330430E-2,-8.903361112E-2,-8.888089657E-2
3.378395157E0,-6.643159688E-2,-9.117163718E-2,-8.643743396E-2
3.380632645E0,-5.345070735E-2,-5.757404864E-2,-7.895433158E-2
3.382868485E0,-1.298088674E-2,-0.000000000E0,-7.590000331E-2
3.385105789E0,4.382958263E-2,6.551529467E-2,-8.246681094E-2
3.387342606E0,8.918632567E-2,1.131627858E-1,-9.529497474E-2
3.389579666E0,1.004873365E-1,1.203404516E-1,-1.024726480E-1
3.391817032E0,6.856962293E-2,6.505715102E-2,-1.030835137E-1
3.394055008E0,1.221730467E-2,-3.940080851E-2,-1.052215397E-1
3.396291153E0,-4.657847434E-2,-1.475239545E-1,-1.061378345E-1
3.398528885E0,-8.811730891E-2,-1.915062517E-1,-9.560041130E-2
3.400764359E0,-1.001819000E-1,-1.695151031E-1,-7.971791178E-2
3.403001541E0,-7.788532227E-2,-1.030835137E-1,-7.803803682E-2
3.405238541E0,-3.313944116E-2,-2.519819140E-2,-8.353582025E-2
3.407475663E0,6.261368748E-3,3.833179548E-2,-8.414668590E-2
3.409713028E0,3.649919853E-2,7.177666575E-2,-8.491026610E-2
3.411950760E0,5.100724846E-2,5.207626149E-2,-1.032362282E-1
3.414187149E0,4.886921868E-2,-0.000000000E0,-1.206458881E-1
3.416424942E0,3.298672289E-2,-5.925392732E-2,-1.209513173E-1
3.418660721E0,5.192354787E-3,-8.781187981E-2,-1.102611795E-1
3.420897843E0,-2.886338346E-2,-6.291911751E-2,-1.007927656E-1
3.423134842E0,-4.734205827E-2,1.832595794E-3,-8.597928286E-2
3.425371903E0,-3.955352306E-2,8.781187981E-2,-7.819075137E-2
3.427604691E0,1.527163113E-4,1.586722434E-1,-7.880161703E-2
3.429827775E0,4.978551716E-2,1.771509200E-1,-7.956519723E-2
3.432079727E0,7.956519723E-2,1.279762685E-1,-8.185594529E-2
3.434321182E0,7.452555746E-2,5.894849449E-2,-8.827003092E-2
3.436561478E0,4.001167417E-2,1.527163113E-4,-9.132435173E-2
3.438794633E0,1.374446787E-3,-3.069597855E-2,-9.422596544E-2
3.441030533E0,-1.114829071E-2,-4.138612002E-2,-9.437867999E-2
3.443267838E0,1.466076635E-2,-4.795292020E-2,-1.076650023E-1
3.445505264E0,6.352998316E-2,-6.337726861E-2,-1.169806942E-1
3.447743057E0,9.056077152E-2,-6.765332818E-2,-1.107193232E-1
3.449979385E0,6.459899992E-2,-6.948592514E-2,-9.987647086E-2
3.452217118E0,-9.468411095E-3,-8.017606288E-2,-1.018617824E-1
3.454452713E0,-8.994990587E-2,-1.017090604E-1,-9.773843735E-2
3.456690018E0,-1.392772794E-1,-1.032362282E-1,-8.842274547E-2
3.458926835E0,-1.302670091E-1,-7.666359097E-2,-8.445212245E-2
3.461164200E0,-7.101308554E-2,-1.588249579E-2,-8.979719132E-2
3.463401505E0,5.192354787E-3,3.726277873E-2,-9.880745411E-2
3.465639298E0,7.452555746E-2,5.772676691E-2,-1.018617824E-1
3.467875565E0,1.125519201E-1,4.963280261E-2,-1.027780771E-1
3.470113114E0,1.110247597E-1,3.145955876E-2,-1.137736514E-1
3.472348893E0,8.613199741E-2,1.496619824E-2,-1.189660057E-1
3.474586014E0,4.902193695E-2,1.084285788E-2,-1.131627858E-1
3.476823136E0,3.054326167E-3,-2.748893574E-3,-9.529497474E-2
3.479060379E0,-3.970624134E-2,-4.444044828E-2,-8.475755155E-2
3.481297562E0,-7.162395120E-2,-9.957103431E-2,-8.292495459E-2
3.483535416E0,-8.979719132E-2,-1.478293836E-1,-8.445212245E-2
3.485771317E0,-7.147123665E-2,-1.591303945E-1,-9.407325089E-2
3.488006852E0,-1.511891466E-2,-1.153008118E-1,-1.081231460E-1
3.490234879E0,6.200282276E-2,-2.336559631E-2,-1.157589629E-1
3.492482315E0,1.194241568E-1,7.742717117E-2,-1.148426682E-1
3.494719010E0,1.478293836E-1,1.449277848E-1,-1.252273768E-1
3.496958695E0,1.398881376E-1,1.681406647E-1,-1.374446750E-1
3.499193680E0,9.254608303E-2,1.435533315E-1,-1.270599663E-1
3.501431229E0,2.718350291E-2,9.254608303E-2,-9.957103431E-2
3.503667618E0,-2.718350291E-2,2.687807009E-2,-8.567385375E-2
3.505902298E0,-5.161811411E-2,-2.596177347E-2,-9.346238524E-2
3.508125992E0,-4.444044828E-2,-4.428773001E-2,-9.590584040E-2
3.510365312E0,-1.313360315E-2,-1.710422710E-2,-9.300423414E-2
3.512611100E0,3.466660157E-2,3.054326214E-2,-1.046106741E-1
3.514855179E0,8.735372871E-2,7.925976813E-2,-1.174388453E-1
3.517092667E0,1.166752651E-1,1.212567538E-1,-1.207986027E-1
3.519328263E0,1.192714423E-1,1.320996135E-1,-1.169806942E-1
3.521563858E0,9.896016866E-2,1.058324054E-1,-1.172861308E-1
3.523801346E0,7.208210230E-2,5.161811411E-2,-1.189660057E-1
3.526037186E0,4.505131021E-2,-9.621127509E-3,-1.218676195E-1
3.528271194E0,1.817324013E-2,-5.650503561E-2,-1.186605766E-1
3.530499100E0,-1.069014147E-2,-8.384125680E-2,-1.128573567E-1
3.532748429E0,-2.901609987E-2,-7.498370856E-2,-1.056796908E-1
3.534986038E0,-2.565634064E-2,-3.008511290E-2,-1.041525230E-1
3.537226761E0,-2.290744567E-3,2.886338346E-2,-1.111774743E-1
3.539459793E0,3.573561832E-2,8.399397135E-2,-1.191187203E-1
3.541697342E0,6.505715102E-2,1.270599663E-1,-1.198823079E-1
3.543933365E0,7.254024595E-2,1.391245574E-1,-1.101084575E-1
3.546170487E0,5.604688451E-2,1.127046347E-1,-1.041525230E-1
3.548407364E0,3.512475267E-2,5.360342562E-2,-1.168279797E-1
3.550644547E0,2.977968007E-2,-3.237585723E-2,-1.233947799E-1
3.552881729E0,4.657847434E-2,-1.128573567E-1,-1.174388453E-1
3.555119766E0,7.070764899E-2,-1.339322031E-1,-1.099557430E-1
3.557356033E0,6.688974798E-2,-7.925976813E-2,-1.061378345E-1
3.559593643E0,3.451388702E-2,2.214386500E-2,-1.035416573E-1
3.561829361E0,2.748893574E-3,9.422596544E-2,-1.072068512E-1
3.564066483E0,-6.872233935E-3,1.017090604E-1,-1.157589629E-1
3.566303544E0,5.497787148E-3,4.688390717E-2,-1.159116775E-1
3.568540604E0,3.848451003E-2,-2.535090782E-2,-1.195768714E-1
3.570777969E0,7.483099401E-2,-5.390885845E-2,-1.243110746E-1
3.573015702E0,9.453139454E-2,3.054326226E-4,-1.238529310E-1
3.575252091E0,8.674286306E-2,1.084285825E-1,-1.174388453E-1
3.577486955E0,6.536258012E-2,2.083050460E-1,-1.122464910E-1
3.579711075E0,5.131268129E-2,2.474004179E-1,-1.085812971E-1
3.581948379E0,4.413501546E-2,1.930334121E-1,-1.052215397E-1
3.584185257E0,3.313944116E-2,7.788532227E-2,-1.044579595E-1
3.586428544E0,8.552113548E-3,-4.046982154E-2,-1.052215397E-1
3.588677079E0,-1.771509275E-2,-1.273654103E-1,-1.119410545E-1
3.590914872E0,-3.191770986E-2,-1.598939747E-1,-1.194241568E-1
3.593151017E0,-2.535090782E-2,-1.394299865E-1,-1.243110746E-1
3.595385514E0,-1.679879380E-3,-6.459899992E-2,-1.285871267E-1
3.597621415E0,3.313944116E-2,8.704829961E-3,-1.279762685E-1
3.599858963E0,6.475171447E-2,4.703662544E-2,-1.313360333E-1
3.602095780E0,6.459899992E-2,4.214970022E-2,-1.301143020E-1
3.604332657E0,3.436116874E-2,1.603521220E-2,-1.182024255E-1
3.606570206E0,-1.527163107E-2,-3.665191587E-3,-1.162171140E-1
3.608808182E0,-5.696318299E-2,7.635815418E-4,-1.301143020E-1
3.611044388E0,-6.520986557E-2,1.679879427E-2,-1.288925707E-1
3.613282059E0,-4.016438872E-2,4.046982154E-2,-1.175915599E-1
3.615517533E0,-1.832595794E-3,5.558873713E-2,-1.098030284E-1
3.617754715E0,3.909537569E-2,6.566801667E-2,-1.105666086E-1
3.619991715E0,6.780604273E-2,7.849618047E-2,-1.226311997E-1
3.622228836E0,8.536841720E-2,9.269879758E-2,-1.333213449E-1
3.624466202E0,8.628471941E-2,8.048149943E-2,-1.285871267E-1
3.626703934E0,5.940664560E-2,3.619376570E-2,-1.117883399E-1
3.628940323E0,5.192354787E-3,-2.703078650E-2,-1.027780771E-1
3.631178116E0,-5.268712714E-2,-8.429940045E-2,-1.058324054E-1
3.633413041E0,-8.888089657E-2,-1.149953827E-1,-1.111774743E-1
3.635647538E0,-7.635815442E-2,-1.044579595E-1,-1.073595658E-1
3.637887711E0,-3.008511290E-2,-6.643159688E-2,-1.044579595E-1
3.640124832E0,2.886338346E-2,-1.053742506E-2,-1.134682223E-1
3.642363297E0,5.986479297E-2,5.192354694E-2,-1.203404516E-1
3.644600174E0,5.711590126E-2,9.926560521E-2,-1.189660057E-1
3.646836319E0,3.039054573E-2,1.168279797E-1,-1.276708394E-1
3.649071121E0,4.123340361E-3,9.666942805E-2,-1.365283877E-1
3.651295242E0,-5.497787148E-3,4.841107130E-2,-1.331686229E-1
3.653532547E0,-1.175915636E-2,-1.832595654E-2,-1.310305893E-1
3.655772049E0,-2.015855350E-2,-7.024950534E-2,-1.374446750E-1
3.658025834E0,-3.772092983E-2,-8.811730891E-2,-1.363756657E-1
3.660268631E0,-5.451972410E-2,-6.108652428E-2,-1.266018152E-1
3.662498795E0,-6.444628537E-2,-6.261368748E-3,-1.191187203E-1
3.664731033E0,-5.360342562E-2,4.321871698E-2,-1.188132912E-1
3.666965287E0,-1.878410578E-2,6.322455406E-2,-1.197295859E-1
3.669191850E0,2.794708498E-2,5.986479297E-2,-1.217148975E-1
3.671431351E0,6.337726861E-2,4.459316283E-2,-1.264491081E-1
3.673665299E0,7.177666575E-2,2.871066704E-2,-1.313360333E-1
3.675907914E0,4.291328415E-2,6.108652335E-3,-1.353066564E-1
3.678153214E0,-7.635815418E-4,-2.336559631E-2,-1.382082552E-1
3.680383134E0,-3.695734590E-2,-5.299255997E-2,-1.423316002E-1
3.682631119E0,-6.062837690E-2,-6.337726861E-2,-1.353066564E-1
3.684864762E0,-7.284568250E-2,-5.222897977E-2,-1.182024255E-1
3.687105118E0,-6.261368841E-2,-3.298672289E-2,-1.131627858E-1
3.689336198E0,-3.481931984E-2,-4.428773187E-3,-1.324050426E-1
3.691564530E0,-3.207042580E-3,3.619376570E-2,-1.466076523E-1
3.693813553E0,1.343903504E-2,6.490442902E-2,-1.340849251E-1
3.696050614E0,1.099557430E-2,6.994406879E-2,-1.279762685E-1
3.698291154E0,-7.788531948E-3,5.696318299E-2,-1.317941695E-1
3.700524429E0,-2.916881628E-2,3.543018550E-2,-1.296561509E-1
3.702762284E0,-3.222314268E-2,3.970623948E-3,-1.249219403E-1
3.704998124E0,-6.719517522E-3,-1.114829071E-2,-1.272126883E-1
3.707235184E0,2.306016348E-2,-4.428773187E-3,-1.269072592E-1
3.709472001E0,4.184427112E-2,1.588249579E-2,-1.255328059E-1
3.711709305E0,2.962696366E-2,1.970040426E-2,-1.243110746E-1
3.713946732E0,-2.901609987E-3,-9.926560335E-3,-1.284344196E-1
3.716184586E0,-3.711006418E-2,-5.543602258E-2,-1.362229437E-1
3.718420303E0,-5.742133409E-2,-8.781187981E-2,-1.438587606E-1
3.720658585E0,-5.864306539E-2,-9.132435173E-2,-1.389718503E-1
3.722894303E0,-5.849034712E-2,-7.437284291E-2,-1.194241568E-1
3.725131546E0,-5.177082866E-2,-4.184427112E-2,-1.154535338E-1
3.727368180E0,-3.726277873E-2,-5.650503561E-3,-1.324050426E-1
3.729605240E0,-1.191187184E-2,2.428189293E-2,-1.479821056E-1
3.731842606E0,2.260201424E-2,2.840523422E-2,-1.464549452E-1
3.734080399E0,3.833179548E-2,1.710422710E-2,-1.414152980E-1
3.736316788E0,1.572977938E-2,-6.108652451E-4,-1.343903542E-1
3.738554520E0,-3.772092983E-2,-2.626720630E-2,-1.421788931E-1
3.740790116E0,-9.254608303E-2,-6.032294407E-2,-1.513418704E-1
3.743025406E0,-1.091921628E-1,-9.896016866E-2,-1.504255682E-1
3.745256180E0,-8.124507964E-2,-1.116356254E-1,-1.392772794E-1
3.747501602E0,-3.008511290E-2,-8.109235764E-2,-1.447750628E-1
3.749738907E0,2.031126991E-2,-2.611448988E-2,-1.551597714E-1
3.751978714E0,3.604105115E-2,2.809980139E-2,-1.487456858E-1
3.754213028E0,1.695151068E-2,5.283984542E-2,-1.463022232E-1
3.756450821E0,-1.557706390E-2,3.039054573E-2,-1.516472995E-1
3.758686600E0,-4.245513305E-2,-2.138028294E-2,-1.484402567E-1
3.760923173E0,-5.085453019E-2,-6.719517708E-2,-1.473712474E-1
3.763158402E0,-3.161227703E-2,-9.315694869E-2,-1.461495161E-1
3.765397293E0,-4.428773187E-3,-8.399397135E-2,-1.385136992E-1
3.767635086E0,9.773843922E-3,-5.146539584E-2,-1.394299865E-1
3.769870194E0,1.053742506E-2,-1.756237634E-2,-1.516472995E-1
3.772097427E0,2.290744567E-3,9.162978968E-4,-1.504255682E-1
3.774347000E0,-4.123340361E-3,-1.603521220E-2,-1.467603743E-1
3.776582596E0,-1.221730467E-2,-4.856378585E-2,-1.519527286E-1
3.778822526E0,-2.901609987E-2,-8.827003092E-2,-1.461495161E-1
3.781056107E0,-5.054909736E-2,-1.133155003E-1,-1.340849251E-1
3.783293473E0,-6.918048859E-2,-1.203404516E-1,-1.331686229E-1
3.785530960E0,-6.383541971E-2,-1.046106741E-1,-1.476766765E-1
3.787769242E0,-3.130684420E-2,-8.460483700E-2,-1.595885456E-1
3.790005264E0,1.466076635E-2,-6.368270516E-2,-1.615738571E-1
3.792242813E0,5.681046844E-2,-4.505131021E-2,-1.537853181E-1
3.794478470E0,6.856962293E-2,-1.252273750E-2,-1.571450830E-1
3.796715653E0,3.726277873E-2,2.199114859E-2,-1.609629989E-1
3.798952652E0,-1.160643995E-2,3.756821156E-2,-1.588249654E-1
3.801189530E0,-4.046982154E-2,1.267545391E-2,-1.592831165E-1
3.803427139E0,-4.260785133E-2,-3.466660157E-2,-1.557706445E-1
3.805664871E0,-2.886338346E-2,-7.742717117E-2,-1.484402567E-1
3.807901260E0,-1.191187184E-2,-9.468411654E-2,-1.423316002E-1
3.810138809E0,3.207042580E-3,-7.803803682E-2,-1.482875347E-1
3.812374833E0,2.504547499E-2,-3.955352306E-2,-1.675297916E-1
3.814611893E0,3.833179548E-2,6.261368748E-3,-1.672243625E-1
3.816848710E0,3.756821156E-2,3.420845419E-2,-1.524108797E-1
3.819085709E0,1.985312067E-2,1.756237634E-2,-1.464549452E-1
3.821323135E0,-1.191187184E-2,-3.527746722E-2,-1.542434692E-1
3.823561112E0,-4.062253982E-2,-1.136209369E-1,-1.585195363E-1
3.825797257E0,-5.665775016E-2,-1.800525337E-1,-1.601994038E-1
3.828033646E0,-4.718934000E-2,-1.934915632E-1,-1.540907621E-1
3.830265152E0,-2.382374369E-2,-1.345430762E-1,-1.487456858E-1
3.832507889E0,1.679879380E-3,-3.313944116E-2,-1.518000066E-1
3.834744645E0,2.183843218E-2,4.780020565E-2,-1.609629989E-1
3.836983231E0,3.481931984E-2,7.910704613E-2,-1.608102769E-1
3.839220475E0,3.451388702E-2,6.704246253E-2,-1.522581577E-1
3.841460526E0,2.779436857E-2,3.802636266E-2,-1.524108797E-1
3.843693314E0,2.214386500E-2,6.566801574E-3,-1.611157060E-1
3.845931229E0,2.397646010E-2,-3.115412779E-2,-1.624901593E-1
3.848163285E0,2.458732575E-2,-5.787948146E-2,-1.540907621E-1
3.850392411E0,1.603521220E-2,-5.039638281E-2,-1.467603743E-1
3.852640641E0,4.123340361E-3,-3.069597855E-2,-1.492038369E-1
3.854878006E0,-5.345070735E-3,-1.603521220E-2,-1.565342247E-1
3.857118546E0,-1.985311974E-3,-3.420845419E-2,-1.652390510E-1
3.859353470E0,6.872233935E-3,-8.414668590E-2,-1.666134894E-1
3.861589798E0,1.053742506E-2,-1.437060535E-1,-1.618792862E-1
3.863827408E0,-1.099557430E-2,-1.724167168E-1,-1.511891484E-1
3.866062821E0,-4.138612002E-2,-1.511891484E-1,-1.440114826E-1
3.868297318E0,-5.619960278E-2,-9.514226019E-2,-1.524108797E-1
3.870524857E0,-4.153883830E-2,-4.077525437E-2,-1.545489132E-1
3.872774063E0,-6.719517522E-3,-1.954768784E-2,-1.456913650E-1
3.875011490E0,3.130684420E-2,-2.641992271E-2,-1.478293836E-1
3.877252091E0,4.825835302E-2,-4.367686436E-2,-1.623374373E-1
3.879485489E0,3.298672289E-2,-7.009678334E-2,-1.626428664E-1
3.881724625E0,-4.428773187E-3,-9.239336848E-2,-1.543961912E-1
3.883961746E0,-4.169155285E-2,-1.038470939E-1,-1.536326110E-1
3.886184403E0,-5.619960278E-2,-9.514226019E-2,-1.585195363E-1
3.888432938E0,-4.230241850E-2,-7.712173462E-2,-1.595885456E-1
3.890668839E0,-7.483099122E-3,-6.322455406E-2,-1.592831165E-1
3.892910599E0,2.687807009E-2,-6.872233748E-2,-1.565342247E-1
3.895145645E0,4.001167417E-2,-8.720101416E-2,-1.626428664E-1
3.897381729E0,3.497203439E-2,-9.804387391E-2,-1.786780804E-1
3.899619461E0,1.557706390E-2,-8.552113175E-2,-1.823432744E-1
3.901854935E0,-8.552113548E-3,-5.711590126E-2,-1.678352207E-1
3.904092118E0,-2.168571576E-2,-3.512475267E-2,-1.629483104E-1
3.906329178E0,-1.649336144E-2,-2.428189293E-2,-1.627955884E-1
3.908566544E0,-1.527163084E-3,-5.192354787E-3,-1.528690308E-1
3.910803909E0,1.740965992E-2,1.878410578E-2,-1.379028261E-1
3.913041641E0,3.252857551E-2,3.665191308E-2,-1.401935667E-1
3.915277908E0,4.612032697E-2,3.283400834E-2,-1.583668143E-1
3.917515457E0,5.299255997E-2,3.512475174E-3,-1.719585657E-1
3.919751236E0,4.825835302E-2,-4.367686436E-2,-1.647808999E-1
3.921988297E0,2.764165215E-2,-9.178250283E-2,-1.579086632E-1
3.924225113E0,-7.483099122E-3,-1.191187203E-1,-1.569923609E-1
3.926458756E0,-2.580905706E-2,-1.186605766E-1,-1.681406647E-1
3.928685928E0,-2.412917651E-2,-9.926560521E-2,-1.681406647E-1
3.930937577E0,-3.054326226E-4,-7.070764899E-2,-1.592831165E-1
3.933173721E0,2.367102914E-2,-4.688390717E-2,-1.638645977E-1
3.935414933E0,3.375030309E-2,-3.375030309E-2,-1.759291887E-1
3.937647294E0,3.161227703E-2,-2.153299935E-2,-1.857030392E-1
3.939884659E0,1.847867295E-2,-4.276056774E-3,-1.893682331E-1
3.942121415E0,5.345070735E-3,1.664607786E-2,-1.783726513E-1
3.944358475E0,-6.566801574E-3,4.352414981E-2,-1.624901593E-1
3.946595780E0,3.054326226E-4,7.971791178E-2,-1.550070494E-1
3.948833573E0,1.557706390E-2,1.061378345E-1,-1.571450830E-1
3.951069962E0,3.512475267E-2,9.483683109E-2,-1.643227488E-1
3.953307755E0,5.115996301E-2,3.023782931E-2,-1.730275750E-1
3.955543534E0,5.177082866E-2,-5.955936015E-2,-1.795943826E-1
3.957780655E0,1.970040426E-2,-1.244637966E-1,-1.727221459E-1
3.960017594E0,-2.412917651E-2,-1.551597714E-1,-1.634064466E-1
3.962254532E0,-5.238169432E-2,-1.582140923E-1,-1.734857261E-1
3.964492325E0,-4.077525437E-2,-1.281289905E-1,-1.794416606E-1
3.966726761E0,-4.581489484E-4,-7.788532227E-2,-1.641700417E-1
3.968954056E0,2.504547499E-2,-3.726277873E-2,-1.588249654E-1
3.971203873E0,2.412917651E-2,-2.260201424E-2,-1.685988009E-1
3.973439469E0,-1.298088674E-2,-3.283400834E-2,-1.689042449E-1
3.975679642E0,-5.406157300E-2,-5.619960278E-2,-1.644754708E-1
3.977913590E0,-8.017606288E-2,-6.795875728E-2,-1.672243625E-1
3.980150772E0,-6.291911751E-2,-6.337726861E-2,-1.707368344E-1
3.982388321E0,-1.679879427E-2,-3.878994286E-2,-1.739438772E-1
3.984625809E0,3.329215571E-2,2.748893574E-3,-1.757764816E-1
3.986862137E0,6.704246253E-2,2.382374369E-2,-1.742493063E-1
3.989099625E0,6.902777404E-2,3.207042580E-3,-1.742493063E-1
3.991335526E0,4.108068720E-2,-3.878994286E-2,-1.808161139E-1
3.993572830E0,-8.857546374E-3,-7.299839705E-2,-1.776090711E-1
3.995809647E0,-6.627888232E-2,-1.082758680E-1,-1.708895564E-1
3.998043716E0,-1.015563458E-1,-1.475239545E-1,-1.701259762E-1
4.000272110E0,-9.605856240E-2,-1.817324162E-1,-1.702786833E-1
4.002522049E0,-5.910121277E-2,-1.811215430E-1,-1.724167168E-1
4.004758194E0,-1.618792862E-2,-1.322523206E-1,-1.705841124E-1
4.006995987E0,1.710422710E-2,-6.368270516E-2,-1.701259762E-1
4.009218888E0,3.298672289E-2,-8.246680722E-3,-1.684460938E-1
4.011465409E0,3.008511290E-2,2.703078650E-2,-1.696678251E-1
4.013705582E0,1.511891466E-2,2.244929783E-2,-1.660026312E-1
4.015945695E0,-2.153299935E-2,-2.779436857E-2,-1.568396538E-1
4.018178360E0,-4.902193695E-2,-1.085812971E-1,-1.609629989E-1
4.020406876E0,-4.795292020E-2,-1.777617931E-1,-1.783726513E-1
4.022654434E0,-2.825251780E-2,-1.853975952E-1,-1.905899495E-1
4.024891922E0,-2.596177394E-3,-1.301143020E-1,-1.779145002E-1
4.027130509E0,1.252273750E-2,-5.268712714E-2,-1.701259762E-1
4.029361894E0,1.511891466E-2,1.634064503E-2,-1.747074574E-1
4.031590165E0,2.290744567E-3,5.070181563E-2,-1.857030392E-1
4.033838944E0,-6.566801574E-3,3.985895589E-2,-1.832595766E-1
4.036076370E0,-5.955935922E-3,1.191187184E-2,-1.748601794E-1
4.038317216E0,-2.596177394E-3,-5.039638374E-3,-1.663080603E-1
4.040550430E0,-5.192354787E-3,-1.237002108E-2,-1.663080603E-1
4.042788163E0,-5.345070735E-3,-2.565634064E-2,-1.835650057E-1
4.045023697E0,-3.359758761E-3,-4.749477282E-2,-1.898263693E-1
4.047261063E0,4.734205548E-3,-6.948592514E-2,-1.788308024E-1
4.049493423E0,1.084285788E-2,-6.841690838E-2,-1.689042449E-1
4.051717423E0,3.970623948E-3,-4.764748737E-2,-1.713477075E-1
4.053972611E0,-2.748893574E-3,-2.092213556E-2,-1.823432744E-1
4.056210526E0,-8.093964309E-3,-3.527746722E-2,-1.811215430E-1
4.058450821E0,-1.160643995E-2,-8.979719132E-2,-1.789835095E-1
4.060684159E0,-1.893682219E-2,-1.516472995E-1,-1.841758788E-1
4.062919877E0,-3.802636266E-2,-1.815796942E-1,-1.881465018E-1
4.065157059E0,-6.093380973E-2,-1.543961912E-1,-1.882992089E-1
4.067393876E0,-7.315111160E-2,-9.346238524E-2,-1.881465018E-1
4.069631180E0,-5.971207842E-2,-3.558290005E-2,-1.876883507E-1
4.071868546E0,-3.191770986E-2,1.527163084E-3,-1.886046380E-1
4.074106278E0,6.414085161E-3,9.315694682E-3,-1.905899495E-1
4.076342423E0,3.375030309E-2,1.481348183E-2,-1.965458989E-1
4.078580399E0,3.023782931E-2,2.336559631E-2,-1.953241676E-1
4.080815995E0,-7.635815418E-4,1.908953860E-2,-1.895209402E-1
4.083053360E0,-3.100141138E-2,-1.542434748E-2,-1.910481006E-1
4.085290055E0,-4.199698567E-2,-7.712173462E-2,-2.012801021E-1
4.087527237E0,-3.665191308E-2,-1.123992056E-1,-1.963931769E-1
4.089764786E0,-2.046398632E-2,-1.030835137E-1,-1.828014255E-1
4.092000016E0,0.000000000E0,-6.459899992E-2,-1.837177277E-1
4.094225785E0,1.649336144E-2,-4.062253982E-2,-1.931861341E-1
4.096464859E0,2.397646010E-2,-4.199698567E-2,-2.017382532E-1
4.098711930E0,1.710422710E-2,-7.223481685E-2,-1.970040351E-1
4.100951859E0,-1.985311974E-3,-1.046106741E-1,-1.936442852E-1
4.103189164E0,-1.954768784E-2,-1.237002090E-1,-1.963931769E-1
4.105423233E0,-2.153299935E-2,-9.697485715E-2,-2.011273801E-1
4.107660782E0,-1.924225502E-2,-4.596760869E-2,-1.948660165E-1
4.109898514E0,-1.221730467E-2,-2.443460980E-3,-1.860084683E-1
4.112134903E0,4.123340361E-3,1.175915636E-2,-1.907426715E-1
4.114372391E0,1.878410578E-2,7.788531948E-3,-1.966986060E-1
4.116608170E0,2.092213556E-2,-5.497787148E-3,-1.954768747E-1
4.118845230E0,2.199114859E-2,-1.893682219E-2,-2.005165219E-1
4.121082108E0,2.061670274E-2,-3.222314268E-2,-2.102903575E-1
4.123319413E0,8.093964309E-3,-3.680463135E-2,-2.055561543E-1
4.125556778E0,-2.138028387E-3,-5.115996301E-2,-1.922698319E-1
4.127794571E0,-7.177666761E-3,-5.711590126E-2,-1.996002197E-1
4.130030899E0,-7.635815418E-4,-5.009094998E-2,-2.069306076E-1
4.132268631E0,1.038470957E-2,-4.291328415E-2,-2.043344229E-1
4.134504227E0,1.527163107E-2,-4.184427112E-2,-1.968513280E-1
4.136741532E0,7.788531948E-3,-5.146539584E-2,-1.945605874E-1
4.138978348E0,-2.443460980E-3,-6.582073122E-2,-2.008219510E-1
4.141215775E0,-4.734205548E-3,-6.337726861E-2,-2.081523389E-1
4.143453201E0,3.207042580E-3,-3.802636266E-2,-2.079996169E-1
4.145690567E0,1.863138936E-2,6.108652451E-4,-2.003637999E-1
4.147924210E0,2.794708498E-2,3.313944116E-2,-1.941024363E-1
4.150150895E0,2.199114859E-2,4.535674304E-2,-1.965458989E-1
4.152388809E0,3.359758761E-3,2.871066704E-2,-2.076941878E-1
4.154625809E0,-8.857546374E-3,-2.443460934E-2,-2.142609805E-1
4.156876542E0,-1.863138936E-2,-8.002334833E-2,-2.133446932E-1
4.159114090E0,-2.168571576E-2,-1.114829108E-1,-2.084577680E-1
4.161351883E0,-3.008511290E-2,-9.682214260E-2,-2.061670274E-1
4.163586929E0,-3.420845419E-2,-5.787948146E-2,-2.084577680E-1
4.165819901E0,-2.443460934E-2,-7.024950348E-3,-2.093740702E-1
4.168047440E0,-1.038470957E-2,2.657263726E-2,-1.992947906E-1
4.170289627E0,-4.428773187E-3,2.046398632E-2,-1.895209402E-1
4.172530961E0,8.399397135E-3,-2.596177347E-2,-2.092213482E-1
4.174761979E0,1.710422710E-2,-8.552113175E-2,-2.215913683E-1
4.177009415E0,4.123340361E-3,-1.143845171E-1,-2.107485086E-1
4.179245255E0,-1.343903504E-2,-1.250746548E-1,-2.035708427E-1
4.181485856E0,-2.046398632E-2,-1.102611795E-1,-2.145664245E-1
4.183719071E0,-1.481348183E-2,-8.002334833E-2,-2.205223590E-1
4.185956620E0,-8.246680722E-3,-5.115996301E-2,-2.057088763E-1
4.188189713E0,-1.832595794E-3,-3.665191308E-2,-1.970040351E-1
4.190418045E0,-5.497787148E-3,-4.016438872E-2,-2.008219510E-1
4.192666642E0,-8.246680722E-3,-5.467243865E-2,-2.032654136E-1
4.194903885E0,-7.330383174E-3,-6.933320314E-2,-2.046398520E-1
4.197144120E0,-4.886921961E-3,-6.933320314E-2,-2.081523389E-1
4.199375870E0,-3.665191587E-3,-7.177666575E-2,-2.130392492E-1
4.201603653E0,-3.665191587E-3,-7.055493444E-2,-2.093740702E-1
4.203853104E0,-2.290744567E-3,-6.215553731E-2,-2.057088763E-1
4.206088700E0,9.162978968E-4,-3.069597855E-2,-2.067778856E-1
4.208325699E0,1.359175146E-2,-6.566801574E-3,-2.066251636E-1
4.210550797E0,3.069597855E-2,-1.420261711E-2,-2.101376504E-1
4.212799942E0,4.612032697E-2,-4.978551716E-2,-2.186897546E-1
4.215034745E0,4.062253982E-2,-7.635815442E-2,-2.188424766E-1
4.217266984E0,1.099557430E-2,-7.941248268E-2,-2.130392492E-1
4.219511307E0,-2.809980139E-2,-6.520986557E-2,-2.145664245E-1
4.221748856E0,-4.734205827E-2,-4.306599870E-2,-2.206750661E-1
4.223987686E0,-4.703662544E-2,-2.611448988E-2,-2.170098722E-1
4.226222000E0,-8.552113548E-3,-1.221730467E-2,-2.079996169E-1
4.228458878E0,4.092797264E-2,5.039638374E-3,-2.038762718E-1
4.230696060E0,6.856962293E-2,2.993239649E-2,-2.011273801E-1
4.232933182E0,7.528914511E-2,5.528330430E-2,-2.095267773E-1
4.235170975E0,6.658431143E-2,5.299255997E-2,-2.193006277E-1
4.237407303E0,5.345070735E-2,8.399397135E-3,-2.196060568E-1
4.239645157E0,3.497203439E-2,-4.703662544E-2,-2.115120888E-1
4.241880936E0,1.206458826E-2,-8.552113175E-2,-2.105957866E-1
4.244117996E0,-2.397646010E-2,-1.053742543E-1,-2.109012306E-1
4.246354874E0,-4.413501546E-2,-1.232420653E-1,-2.148718536E-1
4.248592362E0,-3.313944116E-2,-1.319468915E-1,-2.099849284E-1
4.250829544E0,3.054326167E-3,-1.094975919E-1,-2.131919712E-1
4.253067520E0,3.481931984E-2,-6.047565863E-2,-2.163990140E-1
4.255303482E0,4.810563847E-2,-1.343903504E-2,-2.173153162E-1
4.257541153E0,3.359758854E-2,2.748893574E-3,-2.186897546E-1
4.259777481E0,7.483099122E-3,-1.007927675E-2,-2.188424766E-1
4.262012650E0,-1.893682219E-2,-4.001167417E-2,-2.180788964E-1
4.264238907E0,-2.947424725E-2,-7.620543987E-2,-2.182316035E-1
4.266488297E0,-2.031126991E-2,-1.043052375E-1,-2.145664245E-1
4.268725113E0,-9.315694682E-3,-1.105666086E-1,-2.121229619E-1
4.270966507E0,-2.901609987E-3,-9.239336848E-2,-2.095267773E-1
4.273199539E0,3.817907767E-3,-6.597344577E-2,-2.154827118E-1
4.275437393E0,1.282817032E-2,-5.513058975E-2,-2.238821089E-1
4.277673111E0,2.733621933E-2,-6.154467165E-2,-2.202169150E-1
4.279910294E0,3.313944116E-2,-8.109235764E-2,-2.153300047E-1
4.282147294E0,3.054326214E-2,-8.460483700E-2,-2.189951837E-1
4.284384354E0,2.229658142E-2,-7.467827946E-2,-2.251038402E-1
4.286621719E0,2.901609987E-3,-5.864306539E-2,-2.191479057E-1
4.288859452E0,-1.084285788E-2,-6.322455406E-2,-2.156354338E-1
4.291095841E0,-1.618792862E-2,-8.368854225E-2,-2.170098722E-1
4.293333634E0,-2.901609987E-3,-9.605856240E-2,-2.217440903E-1
4.295569413E0,2.092213556E-2,-8.078692853E-2,-2.251038402E-1
4.297807572E0,3.894266114E-2,-3.741549700E-2,-2.174680233E-1
4.300045243E0,3.481931984E-2,3.817907767E-3,-2.075414658E-1
4.302270768E0,2.504547499E-2,6.566801574E-3,-2.174680233E-1
4.304517655E0,2.703078650E-2,-2.504547499E-2,-2.347249687E-1
4.306754350E0,4.108068720E-2,-5.818491429E-2,-2.347249687E-1
4.308994218E0,4.184427112E-2,-7.880161703E-2,-2.163990140E-1
4.311229630E0,2.565634064E-2,-8.445212245E-2,-2.116648108E-1
4.313465348E0,1.221730490E-3,-7.681630552E-2,-2.215913683E-1
4.315702225E0,-8.399397135E-3,-6.566801667E-2,-2.266310006E-1
4.317939225E0,-2.138028387E-3,-6.093380973E-2,-2.240348309E-1
4.320176346E0,2.015855350E-2,-5.650503561E-2,-2.214386463E-1
4.322412186E0,4.230241850E-2,-5.574145541E-2,-2.212859392E-1
4.324644364E0,4.734205827E-2,-5.222897977E-2,-2.211332172E-1
4.326887833E0,2.886338346E-2,-5.421429127E-2,-2.212859392E-1
4.329125565E0,1.145372353E-2,-6.001751125E-2,-2.226603776E-1
4.331363175E0,7.483099122E-3,-7.574728876E-2,-2.264782935E-1
4.333598465E0,1.343903504E-2,-8.063421398E-2,-2.215913683E-1
4.335835282E0,1.847867295E-2,-7.223481685E-2,-2.165517360E-1
4.338068497E0,1.740965992E-2,-6.612616032E-2,-2.202169150E-1
4.340292923E0,1.481348183E-2,-7.696902007E-2,-2.252565622E-1
4.342545059E0,1.206458826E-2,-8.796459436E-2,-2.264782935E-1
4.344784073E0,1.221730467E-2,-8.307767659E-2,-2.289217561E-1
4.347025956E0,1.603521220E-2,-7.941248268E-2,-2.289217561E-1
4.349255326E0,1.725694351E-2,-8.185594529E-2,-2.289217561E-1
4.351482743E0,3.665191587E-3,-8.292495459E-2,-2.278527319E-1
4.353731461E0,-1.374446787E-2,-8.979719132E-2,-2.218967974E-1
4.355968582E0,-2.519819140E-2,-1.053742543E-1,-2.220495194E-1
4.358206192E0,-2.275473066E-2,-1.090394482E-1,-2.244929820E-1
4.360432022E0,-2.901609987E-3,-1.009454802E-1,-2.241875380E-1
4.362680313E0,1.343903504E-2,-8.552113175E-2,-2.191479057E-1
4.364914994E0,2.351831272E-2,-6.994406879E-2,-2.251038402E-1
4.367145402E0,2.886338346E-2,-5.665775016E-2,-2.373211533E-1
4.369388139E0,2.046398632E-2,-4.444044828E-2,-2.312124968E-1
4.371616532E0,9.162978269E-3,-4.780020565E-2,-2.214386463E-1
4.373867631E0,3.970623948E-3,-6.352998316E-2,-2.289217561E-1
4.376102066E0,1.374446787E-3,-7.437284291E-2,-2.388483137E-1
4.378342423E0,2.443460980E-3,-8.292495459E-2,-2.302961946E-1
4.380576065E0,1.374446787E-3,-6.459899992E-2,-2.154827118E-1
4.382811112E0,5.650503561E-3,-4.046982154E-2,-2.238821089E-1
4.385035050E0,1.099557430E-2,-2.718350291E-2,-2.397646159E-1
4.387272355E0,2.092213556E-2,-2.611448988E-2,-2.383901626E-1
4.389509049E0,2.550362423E-2,-3.955352306E-2,-2.286163121E-1
4.391749039E0,1.893682219E-2,-5.528330430E-2,-2.238821089E-1
4.393986160E0,-3.359758761E-3,-5.849034712E-2,-2.240348309E-1
4.396224320E0,-1.802052557E-2,-5.696318299E-2,-2.229658216E-1
4.398461258E0,-9.468411095E-3,-5.955936015E-2,-2.254092693E-1
4.400699173E0,2.244929783E-2,-6.872233748E-2,-2.312124968E-1
4.402934342E0,5.940664560E-2,-6.337726861E-2,-2.296853364E-1
4.405172318E0,7.467827946E-2,-4.184427112E-2,-2.306016237E-1
4.407409806E0,6.261368841E-2,-2.580905706E-2,-2.331978083E-1
4.409645401E0,3.924809024E-2,-2.901609987E-2,-2.406809032E-1
4.411882767E0,1.069014147E-2,-4.169155285E-2,-2.397646159E-1
4.414120194E0,-9.315694682E-3,-5.467243865E-2,-2.264782935E-1
4.416357559E0,-1.435533352E-2,-5.818491429E-2,-2.180788964E-1
4.418594620E0,-5.650503561E-3,-5.238169432E-2,-2.264782935E-1
4.420830643E0,8.246680722E-3,-3.924809024E-2,-2.348776907E-1
4.423067276E0,2.443460934E-2,-2.626720630E-2,-2.286163121E-1
4.425306412E0,3.802636266E-2,-2.290744707E-2,-2.284636050E-1
4.427549942E0,4.428773001E-2,-2.061670274E-2,-2.345722616E-1
4.429780289E0,4.184427112E-2,-2.168571576E-2,-2.431243658E-1
4.432025406E0,2.840523422E-2,-1.786780916E-2,-2.394591719E-1
4.434256241E0,4.734205548E-3,-2.580905706E-2,-2.299907655E-1
4.436490677E0,-5.497787148E-3,-4.993823543E-2,-2.264782935E-1
4.438724503E0,-7.024950348E-3,-6.322455406E-2,-2.302961946E-1
4.440962051E0,4.123340361E-3,-6.108652428E-2,-2.301434875E-1
4.443200211E0,1.542434748E-2,-4.673119262E-2,-2.238821089E-1
4.445437271E0,2.672535367E-2,-3.970624134E-2,-2.261728644E-1
