"Time (s)","Linear Acceleration x (m/s^2)","Linear Acceleration y (m/s^2)","Linear Acceleration z (m/s^2)"
1.436800090E-1,-7.114017010E-1,-5.112600327E-1,-4.551429749E-1
1.615614780E-1,7.954883575E-2,4.148714542E-1,8.569698334E-1
1.794692540E-1,-2.022922039E-1,2.015947580E0,1.781888008E0
1.973652500E-1,-1.293469191E0,-1.046357632E0,4.650020599E-2
2.152511750E-1,-8.970301151E-1,2.598788738E-1,1.993616104E0
2.331575470E-1,-1.955990314E0,7.166361809E-2,2.544332504E0
2.510535440E-1,-1.500412941E0,-1.923862934E0,1.441674232E0
2.689497840E-1,-1.066934109E0,1.103770733E-1,2.842490196E0
2.868457190E-1,-1.516601324E0,-2.140922070E0,9.109220505E-1
3.047298740E-1,1.535136700E-1,4.552736282E-1,1.025362968E0
3.226380770E-1,-4.288594723E-1,-4.216086864E-1,-5.789051056E-1
3.405313270E-1,1.231228590E0,1.892473936E0,6.274461746E-1
3.584302520E-1,2.929110527E-1,1.366202831E0,-5.522565842E-1
3.763262490E-1,5.907313824E-1,8.494005203E-1,-1.505641937E-1
3.942224890E-1,9.429225922E-1,9.999873638E-1,-5.565786362E-1
4.121095730E-1,9.398574829E-1,1.542997837E0,7.117052078E-1
4.300147860E-1,3.791091442E-1,-2.996053696E-1,-4.379024506E-1
4.479106600E-1,3.204002380E-1,-3.319566250E-1,-6.336593628E-2
4.658067170E-1,3.328108788E-2,2.189910412E-1,1.240793228E0
4.837029580E-1,-4.963881969E-1,-1.031201601E0,-9.400272369E-2
5.015991980E-1,-2.310705185E-2,-1.618013382E-1,6.113672256E-1
5.194950720E-1,-3.644592762E-1,-6.067378521E-1,-4.371643066E-3
5.373911900E-1,7.708840370E-1,5.751304626E-1,4.077968597E-1
5.552899940E-1,-3.986120224E-2,5.633783340E-1,-8.965082169E-1
5.731834260E-1,-1.128118038E-1,-1.777067184E-1,-6.142845154E-1
5.910767370E-1,2.071685791E-1,1.065328121E-1,4.811306000E-1
6.089756630E-1,-1.718261242E-1,-6.771328449E-1,-1.618185043E-1
6.268716590E-1,1.338646412E-1,-7.907559872E-1,-2.085638046E-1
6.447676550E-1,-7.010436058E-2,-1.200859547E-1,-5.723342896E-1
6.626640780E-1,2.762334347E-1,6.501035690E-1,4.421548843E-1
6.805605630E-1,3.141741753E-1,2.524352074E-2,-7.280387878E-1
6.984558260E-1,8.821635246E-1,1.132204771E0,1.910018921E-2
7.163518830E-1,3.581423759E-1,2.118139267E-1,1.920585632E-1
7.342481240E-1,7.710146904E-2,-7.894098759E-1,2.540664673E-1
7.521441200E-1,3.826181889E-1,-9.666161537E-1,6.015529633E-1
7.700403600E-1,4.962604046E-1,-6.206977367E-1,9.327745438E-1
7.879243930E-1,5.480153561E-1,5.889463425E-2,6.299333572E-1
8.058325350E-1,1.663784981E-1,-5.986685753E-1,3.665924072E-1
8.237166290E-1,7.290222645E-1,-5.823392868E-1,9.354648590E-1
8.416248330E-1,1.079318523E0,8.658881187E-1,6.148376465E-1
8.595207680E-1,1.276470423E0,1.217667103E0,6.228704453E-1
8.774170690E-1,1.062550068E0,8.478677273E-1,3.232316971E-1
8.953132480E-1,1.503238559E0,8.596942425E-1,1.209720612E0
9.132121740E-1,1.386798263E0,-4.479908943E-1,8.481273651E-1
9.311051180E-1,1.380660892E0,-1.848893166E-1,9.793443680E-1
9.489970250E-1,1.325027466E0,-2.287480831E-1,8.229045868E-1
9.668972940E-1,1.038869619E0,-8.372657299E-1,1.010447502E0
9.847905430E-1,1.362079144E0,3.702981472E-1,8.211021423E-1
1.002689469E0,1.767970443E0,-1.704759598E-1,1.174100876E0
1.020582535E0,1.691167235E0,2.354004383E-1,3.526096344E-1
1.038484940E0,1.448745489E0,-5.871772766E-2,2.897891998E-1
1.056377945E0,1.873230696E0,1.056034088E0,4.037485123E-1
1.074259110E0,1.985679150E0,1.252301216E0,1.054847717E0
1.092170182E0,1.395055294E0,3.631877899E-2,6.180057526E-1
1.110066300E0,1.223910809E0,-8.274252415E-1,7.456922531E-1
1.127962174E0,1.341149569E0,-1.281022429E0,6.660346985E-1
1.145858231E0,1.090955257E0,-1.251370549E0,5.957794189E-1
1.163757340E0,1.412243009E0,-3.470559120E-1,1.871809959E0
1.181638993E0,1.057380199E0,-3.176326752E-1,7.207517624E-1
1.199540665E0,1.013376236E0,-5.740413666E-1,9.473495483E-1
1.217434403E0,1.738549471E0,4.309501648E-1,1.232853889E0
1.235338639E0,1.255904913E0,-3.400814533E-1,2.787294388E-1
1.253234696E0,1.888085246E0,1.340365410E-2,-3.306198120E-2
1.271130936E0,1.925200462E0,-7.296183109E-1,7.307434082E-2
1.289026871E0,1.922841072E0,5.742900372E-1,3.198108673E-1
1.306923172E0,1.606040597E0,-6.558046341E-1,-4.099941254E-2
1.324811234E0,1.817110777E0,-2.809767723E-1,1.552963257E-2
1.342715348E0,1.471436024E0,4.158542156E-1,8.187217712E-1
1.360611100E0,1.483155370E0,-2.101588249E-1,-1.243839264E-1
1.378507584E0,1.824328065E0,2.775533199E-1,6.007547379E-1
1.396403824E0,1.535157442E0,-4.179511070E-1,-3.125362396E-1
1.414299576E0,1.773343086E0,-2.570002079E-1,5.634479523E-1
1.432192703E0,1.560108185E0,6.175394058E-1,5.798435211E-1
1.450091874E0,1.850780010E0,3.552632332E-1,6.153907776E-1
1.467987870E0,1.610942960E0,-3.716981411E-1,1.489133835E-1
1.485883866E0,1.560460329E0,-5.077629089E-1,8.899631500E-1
1.503780106E0,1.818838000E0,2.955412865E-2,1.641570091E0
1.521676285E0,1.838020802E0,-1.552767754E-1,-6.651878357E-3
1.539572281E0,2.197269201E0,-2.820425034E-1,1.121332169E0
1.557468094E0,1.985913873E0,-3.718781471E-2,6.293277740E-1
1.575364274E0,2.195869923E0,-1.838102341E-1,5.728502274E-1
1.593260270E0,1.820429802E0,-5.979120731E-1,3.430671692E-1
1.611156510E0,1.917252541E0,-4.934859276E-2,1.334192276E0
1.629052628E0,1.656182766E0,-2.645010948E-1,-1.609792709E-1
1.646949539E0,2.147855282E0,-1.554615498E-1,1.099652290E0
1.664835465E0,2.047795296E0,-2.639293671E-1,2.135257721E-1
1.682745561E0,1.909219503E0,1.390750408E-1,1.082203865E0
1.700636795E0,2.221528292E0,-2.256913185E-1,-1.036415100E-1
1.718533097E0,2.459148169E0,5.009963512E-1,9.473686218E-1
1.736429276E0,1.995842814E0,-4.599432945E-1,-2.702016830E-1
1.754323990E0,2.227783203E0,3.537304401E-1,2.030726433E0
1.772221268E0,1.925110817E0,1.789116859E-2,-9.522047043E-1
1.790120377E0,2.672929287E0,2.030313015E-1,1.967231750E0
1.808009720E0,2.345615625E0,1.956071854E-1,4.686431885E-1
1.825909195E0,2.445045948E0,2.461659908E-1,6.126432419E-1
1.843805741E0,2.532153368E0,-9.416954517E-1,7.389602661E-1
1.861697037E0,1.960435748E0,4.431390762E-2,1.072505951E0
1.879597672E0,1.471382022E0,-1.497883797E0,4.681692123E-1
1.897493668E0,1.420912623E0,1.456105709E-1,3.586196899E-1
1.915389908E0,2.507302999E0,1.033076525E0,1.473568916E0
1.933285965E0,1.770302653E0,-1.964921951E-1,-1.024190426E0
1.951181656E0,2.778592110E0,8.484110832E-1,3.013566017E0
1.969078141E0,1.685115814E0,-1.878032684E-1,-1.404533386E-1
1.986970841E0,1.382994175E0,-2.034769535E0,2.089023590E-1
2.004871109E0,2.321449518E0,5.381162167E-1,1.488747597E0
2.022766434E0,2.222700119E0,-6.661832333E-1,1.453883171E0
2.040662186E0,3.724725246E0,5.202038288E-1,2.777385712E-2
2.058558426E0,3.471339464E0,1.818122864E-1,1.300728798E0
2.076454606E0,2.711980104E0,-6.471426487E-1,2.854347229E-3
2.094350663E0,2.716576815E0,-5.980792046E-1,2.021388054E0
2.112246659E0,2.280969858E0,-1.491871357E0,-9.757952690E-1
2.130142960E0,2.853529930E0,7.905046940E-1,1.425858498E0
2.148039139E0,1.234061480E0,-1.502060890E-2,-1.456213474E0
2.165934769E0,2.247168064E0,9.046604633E-1,2.954427719E0
2.183831192E0,1.571543336E0,1.723039150E-1,-1.204049110E0
2.201730363E0,2.665235281E0,7.213447094E-1,1.154371262E0
2.219623124E0,2.754697323E0,-2.877621651E-1,-6.622600555E-2
2.237513932E0,2.774762630E0,-3.875613213E-1,3.007221222E-1
2.255415299E0,3.107634068E0,-1.737091541E-1,-4.290113449E-1
2.273311295E0,3.636632681E0,3.801925182E-1,6.627893448E-1
2.291210404E0,2.940390110E0,-6.655716896E-1,-4.856958389E-1
2.309103897E0,2.975508451E0,2.035131454E-1,5.458335876E-1
2.327003860E0,2.827510834E0,-4.048454762E-1,-2.819576263E-1
2.344895524E0,2.690999508E0,-1.367056370E-1,8.285789490E-1
2.362791520E0,2.575572491E0,-9.045832157E-1,5.833339691E-1
2.380687577E0,2.447485209E0,-8.266768456E-1,4.085025787E-1
2.398584061E0,2.428805351E0,-5.553817749E-2,1.471452713E-1
2.416480057E0,2.929026365E0,3.446025848E-1,1.198894501E0
2.434376297E0,2.971060991E0,-2.820999622E-1,2.812385559E-1
2.452272294E0,2.069438457E0,1.749644279E-1,6.746759415E-1
2.470168229E0,1.498431683E0,-7.969582081E-1,-2.716293335E-1
2.488048050E0,2.907129288E0,1.256278515E0,2.357865334E0
2.505960160E0,1.845613599E0,1.199173927E-1,-4.811944962E-1
2.523856400E0,2.898597717E0,-4.905333519E-1,1.433335304E0
2.541752701E0,1.833089590E0,-3.306269646E-2,-1.009368896E-2
2.559648758E0,3.289401531E0,3.139379025E-1,1.545546532E0
2.577544938E0,3.110012054E0,-6.492137909E-2,1.393699646E-1
2.595440751E0,2.861771584E0,-1.357793808E-3,5.663213730E-1
2.613334061E0,3.188347340E0,-1.674768925E-1,6.316671371E-1
2.631233048E0,3.117609978E0,2.915742397E-1,1.366554260E0
2.649129166E0,2.792176008E0,-1.038154125E0,-1.037223339E0
2.667028397E0,4.620809555E0,-3.035302162E-1,1.761297226E0
2.684921158E0,3.120640278E0,2.345483303E-1,3.099260330E-1
2.702817154E0,3.045742273E0,-6.408402920E-1,6.228437424E-1
2.720713089E0,3.228829622E0,7.462501526E-3,6.275730133E-1
2.738609452E0,2.210826635E0,-4.947130680E-1,6.208429337E-1
2.756505387E0,3.503730536E0,4.568147659E-1,2.840036392E0
2.774401688E0,2.136002064E0,-7.557454109E-1,-6.583743095E-1
2.792297623E0,2.888792753E0,-3.354668617E-2,2.451798439E0
2.810179031E0,2.861342430E0,4.887578487E-1,9.074029922E-1
2.828088822E0,2.700775385E0,-8.597273827E-1,6.627340317E-1
2.845985917E0,3.344616652E0,8.126139641E-2,2.219214439E0
2.863881852E0,2.965568304E0,-4.553420544E-1,1.125809669E0
2.881778153E0,2.953205585E0,-2.194864750E-1,1.998774529E0
2.899674210E0,3.274658442E0,-4.484055042E-1,1.429841995E0
2.917570023E0,3.031610489E0,-1.393947244E0,2.605590820E-1
2.935466263E0,3.378088236E0,-4.290707111E-1,1.090105057E0
2.953362381E0,3.410457611E0,-9.183671474E-1,1.497335434E-1
2.971258561E0,3.168717861E0,-7.398037910E-1,1.872568130E0
2.989151810E0,2.816748619E0,-1.019398689E0,7.417974472E-1
3.007053849E0,2.427933216E0,-8.226926327E-1,9.785327911E-1
3.024946061E0,2.842092991E0,-6.673877239E-1,2.907546997E0
3.042843094E0,2.394780159E0,-1.056737185E0,-4.637174606E-1
3.060738846E0,4.544950008E0,-1.411330462E0,2.897053719E0
3.078635086E0,2.319374084E0,-1.561017036E0,-9.717922211E-1
3.096531144E0,3.929566383E0,-1.367061615E0,2.115833282E0
3.114422318E0,3.298647404E0,-4.343981743E-1,6.053686142E-1
3.132323258E0,3.213605404E0,-5.711178780E-1,-3.940496445E-1
3.150216324E0,5.010086060E0,-1.158003330E0,1.447620392E0
3.168112625E0,3.515257359E0,-1.277258396E0,-1.294991493E0
3.186011185E0,5.040354729E0,-3.702862263E-1,2.325024605E0
3.203907792E0,4.112370014E0,-1.420220017E0,-7.049255371E-1
3.221803727E0,3.663776875E0,-7.206206322E-1,1.651067734E-1
3.239699723E0,3.369200706E0,1.774075031E-1,6.414880753E-1
3.257595963E0,3.281481743E0,-1.267962456E0,5.419206619E-1
3.275492020E0,3.109697104E0,-1.345627069E0,4.338951111E-1
3.293387894E0,4.346204281E0,-4.575285912E-1,1.904846191E0
3.311284256E0,2.958826542E0,-1.197423458E0,-1.461334229E-1
3.329179642E0,4.369993687E0,-1.119307041E0,1.205334663E0
3.347079423E0,4.026080132E0,-8.877263069E-1,9.317502975E-1
3.364974625E0,3.806891203E0,-1.093483686E0,1.721785545E0
3.382868485E0,4.130123615E0,-2.161580563E0,7.424440384E-1
3.400764359E0,5.351548672E0,-1.308538556E0,2.034816742E-1
3.418660721E0,5.354018211E0,-1.280025244E0,2.137846947E0
3.436561478E0,3.320645332E0,-2.164692879E0,-1.184860229E0
3.454452713E0,5.855656624E0,-5.925161839E-1,1.498158455E0
3.472348893E0,3.999276161E0,-9.690608978E-1,1.891326904E-2
3.490234879E0,3.783695936E0,-1.391244054E0,8.826322556E-1
3.508125992E0,3.638313770E0,-1.394986153E0,1.320633888E0
3.526037186E0,3.912263393E0,-3.788397312E-1,1.924649239E0
3.543933365E0,3.365930080E0,-1.276532888E0,-4.771680832E-1
3.561829361E0,4.053981304E0,-2.088372707E-1,1.364703178E0
3.579711075E0,3.605875969E0,-2.028985023E-1,8.975286484E-1
3.597621415E0,4.389636517E0,-5.523679256E-1,9.368581772E-1
3.615517533E0,3.991709948E0,-2.054324389E0,1.500044823E0
3.633413041E0,4.073576450E0,-9.784185886E-1,1.243176460E0
3.651295242E0,3.567128420E0,-6.909997463E-1,1.535506248E0
3.669191850E0,3.102524281E0,-1.948464990E0,1.664733887E-1
3.687105118E0,4.281518936E0,-1.310690880E0,2.293676376E0
3.704998124E0,3.679083109E0,-1.361254692E0,9.232225418E-1
3.722894303E0,4.749925137E0,-8.441636562E-1,8.466529846E-1
3.740790116E0,4.307280540E0,-1.111203909E0,7.979774475E-2
3.758686600E0,4.203931332E0,-1.126839519E0,5.699367523E-1
3.776582596E0,4.176720142E0,-5.424273014E-1,-3.522787094E-1
3.794478470E0,4.818595409E0,-8.984034061E-1,1.835597038E0
3.812374833E0,4.536300659E0,-7.812862396E-1,-2.271556854E-1
3.830265152E0,4.962202549E0,-1.269340754E0,1.403746605E0
3.848163285E0,4.596920967E0,-8.246212006E-1,5.516653061E-1
3.866062821E0,5.825476170E0,-1.022722721E0,9.419441223E-2
3.883961746E0,4.980595112E0,-1.369796395E0,-1.002773762E0
3.901854935E0,5.853461742E0,-6.110277176E-1,1.811200142E0
3.919751236E0,3.704220295E0,-9.132621288E-1,-7.027645111E-1
3.937647294E0,5.557029724E0,-7.617397308E-1,2.764263153E0
3.955543534E0,3.590849876E0,-9.137253761E-1,-8.620843887E-1
3.973439469E0,5.173236847E0,-1.316241860E0,1.216205597E0
3.991335526E0,4.565198898E0,-6.139979362E-1,4.003047943E-1
4.009218888E0,4.954169750E0,-9.916769266E-1,2.076482773E-1
4.027130509E0,5.279193878E0,-4.440455437E-1,2.119621277E0
4.045023697E0,4.548574448E0,-8.834979534E-1,1.221485138E-1
4.062919877E0,5.208122253E0,-6.726949215E-1,2.043046951E-1
4.080815995E0,4.574932098E0,-1.308044314E0,4.329814911E-1
4.098711930E0,4.693790436E0,-9.754149914E-1,9.125680923E-1
4.116608170E0,4.312049389E0,-1.454303503E0,1.240387917E0
4.134504227E0,4.749648571E0,-6.019558907E-1,1.430392265E0
4.152388809E0,4.156741142E0,-8.327028751E-1,8.905191422E-1
4.170289627E0,4.005701542E0,-1.542001963E0,1.057720184E-1
4.188189713E0,4.906260490E0,-8.686772585E-1,1.638001442E0
4.206088700E0,4.739969730E0,-1.147810221E0,1.459188461E-1
4.223987686E0,5.917182446E0,-9.147121906E-1,1.438580513E0
4.241880936E0,4.932833195E0,-3.715877533E-1,4.077243805E-2
4.259777481E0,5.505856514E0,-8.363775015E-1,5.102367401E-1
4.277673111E0,5.031690598E0,-1.283199549E0,3.121109009E-1
4.295569413E0,5.315637589E0,-9.589450359E-1,1.221435547E0
4.313465348E0,5.456189156E0,-7.867653370E-1,7.584228516E-1
4.331363175E0,5.300643921E0,-7.573962212E-1,8.118553162E-1
4.349255326E0,5.282932758E0,-4.250702858E-1,7.785549164E-1
4.367145402E0,4.958184242E0,-7.988436222E-1,5.558185577E-1
4.385035050E0,5.202543736E0,-7.235946655E-1,1.207932472E0
4.402934342E0,4.578395844E0,-1.059787273E0,1.008478165E0
4.420830643E0,4.947299957E0,-1.016786695E0,1.434051514E0
4.438724503E0,5.138953686E0,-8.489137888E-1,1.082813263E0
4.456636918E0,4.896514893E0,-7.667024136E-1,1.063597679E0
4.474533341E0,4.862821579E0,-9.814417362E-1,1.103293419E0
4.492426102E0,4.742799282E0,-7.990829945E-1,1.637762070E0
4.510323807E0,4.668483734E0,-9.693396091E-1,1.715764046E0
4.528215531E0,4.880820274E0,-9.984021187E-1,9.685297012E-1
4.546114579E0,5.014204979E0,-9.200226068E-1,9.351844788E-1
4.564010514E0,4.933072567E0,-7.043402195E-1,7.880258560E-1
4.581906815E0,4.982055187E0,-9.529671669E-1,9.651641846E-1
4.599802994E0,4.410815239E0,-4.721276760E-1,1.228052139E0
4.617698746E0,4.376420021E0,-7.416551113E-1,8.631830215E-1
4.635595108E0,4.429382801E0,-4.538447857E-1,9.837408066E-1
4.653479386E0,4.636145115E0,-3.188006878E-1,1.098398209E0
4.671380143E0,4.844318390E0,-6.303286552E-1,8.228502274E-1
4.689280289E0,5.047383308E0,-4.482522011E-1,8.763303757E-1
4.707182450E0,4.989686966E0,-3.673133850E-1,1.212938309E0
4.725075516E0,4.804754257E0,-2.637650967E-1,1.120697975E0
4.742971512E0,4.955469131E0,2.273123264E-1,6.029930115E-1
4.760863724E0,4.549518585E0,3.024160862E-1,-4.738731384E-1
4.778763932E0,4.583372593E0,1.129112244E-1,2.603549957E-1
4.796659745E0,4.393083096E0,8.227348328E-1,9.366817474E-1
4.814555985E0,4.317163467E0,9.014954567E-1,2.485799789E-1
4.832451859E0,4.735094547E0,4.220192432E-1,1.517858505E-1
4.850336014E0,4.562076092E0,7.147822380E-1,4.934530258E-1
4.868241348E0,4.508948803E0,5.323791504E-1,1.354242325E0
4.886140213E0,4.304410934E0,5.688662529E-1,4.303512573E-1
4.904036454E0,4.311197281E0,4.168407917E-1,1.154688835E0
4.921932694E0,4.299640656E0,2.483310699E-1,1.633788109E0
4.939828629E0,4.369218349E0,5.980634689E-1,1.187843323E0
4.957727127E0,4.570676804E0,4.199326038E-1,1.219744682E0
4.975620926E0,4.237090588E0,6.051793098E-1,7.780208588E-1
4.993505204E0,4.659395218E0,5.249390602E-1,1.459760666E0
5.011400956E0,4.267454624E0,3.999757767E-2,7.167758942E-1
5.029306107E0,4.267594814E0,5.264606476E-1,5.139961243E-1
5.047205399E0,4.064749241E0,6.501812935E-1,1.649007797E-1
5.065101090E0,4.325469017E0,8.374061584E-1,5.027828217E-1
5.082997391E0,4.297123909E0,5.095319748E-1,3.611049652E-1
5.100893143E0,4.369594574E0,9.529256821E-1,3.073492050E-1
5.118789627E0,4.298123360E0,8.967330456E-1,5.078001022E-1
5.136685563E0,4.060116291E0,5.416548252E-1,7.147026062E-1
5.154569901E0,4.021744251E0,5.223433971E-1,6.099462509E-1
5.172480729E0,3.981187582E0,7.269043922E-1,7.165098190E-1
5.190361893E0,3.928993702E0,6.381347179E-1,7.647514343E-2
5.208267044E0,4.177711010E0,6.103792191E-1,2.687406540E-1
5.226166092E0,3.770549774E0,6.949865818E-1,6.042194366E-1
5.244059037E0,3.779117346E0,3.413548470E-1,8.783817291E-2
5.261958329E0,3.563186646E0,8.158457279E-1,4.589338303E-1
5.279853348E0,3.609621048E0,8.256967068E-1,5.015602112E-1
5.297750504E0,3.454906464E0,5.425648689E-1,1.336860657E-1
5.315646561E0,3.315651655E0,4.649922848E-1,-4.626846313E-2
5.333542496E0,3.645117998E0,6.257131100E-1,5.140409470E-1
5.351427018E0,3.332089186E0,6.907687187E-1,-2.194213867E-1
5.369331803E0,3.486228228E0,7.636528015E-1,3.380460739E-1
5.387230729E0,3.123108625E0,3.260641098E-1,-7.237424850E-1
5.405127091E0,3.496194601E0,5.688333511E-1,6.784238815E-1
5.423023270E0,3.438013315E0,5.410161018E-1,-2.851295471E-1
5.440919022E0,3.190474272E0,5.802419186E-1,-4.180431366E-2
5.458815262E0,3.289766312E0,1.063668728E0,3.059720993E-1
5.476711441E0,3.057316303E0,8.022854328E-1,6.964035034E-1
5.494607987E0,3.232532978E0,8.391544819E-1,6.505775452E-1
5.512503739E0,3.390049458E0,5.597698689E-1,2.624263763E-1
5.530387772E0,3.436655283E0,8.864176273E-1,-3.944578171E-1
5.548292740E0,3.217086315E0,6.475186348E-2,1.113195419E-1
5.566191666E0,3.168514252E0,4.734108448E-1,1.824235916E-1
5.584087906E0,3.123216867E0,6.905701160E-1,2.287416458E-1
5.601983841E0,3.291967154E0,5.531601906E-1,1.951675415E-1
5.619879899E0,3.023417950E0,9.107537270E-1,1.760768890E-1
5.637775895E0,3.073812485E0,7.840881348E-1,2.245435715E-1
5.655666275E0,3.222072124E0,1.031581402E0,5.262403488E-1
5.673568070E0,3.117650032E0,9.647674561E-1,4.997177124E-1
5.691452225E0,3.339299679E0,1.499876976E-1,-3.249616623E-1
5.709357559E0,3.653359413E0,1.405418634E0,7.486896515E-1
5.727256424E0,3.552745819E0,5.977559090E-1,2.949762344E-1
5.745152359E0,3.300987720E0,8.483061790E-1,-1.706380844E-1
5.763048600E0,3.257264853E0,1.149704933E0,1.295550346E0
5.780943192E0,3.273119450E0,1.004442453E0,8.636932373E-1
5.798840775E0,3.195729494E0,1.054098606E0,9.026556015E-1
5.816736893E0,3.276458979E0,1.327852726E0,1.170440674E0
5.834633377E0,2.766413212E0,9.507532120E-1,1.149719238E0
5.852529068E0,3.009638309E0,6.197583675E-1,4.237880707E-1
5.870413407E0,2.994792461E0,1.265733480E0,1.277606964E0
5.888318253E0,2.808024883E0,5.581820011E-1,2.653303146E-1
5.906214493E0,3.114424706E0,1.085714102E0,1.094248772E0
5.924113358E0,2.954649448E0,1.211652279E0,8.353843689E-1
5.942009598E0,3.085072994E0,1.015283823E0,6.007604599E-1
5.959905777E0,2.993634462E0,5.734353065E-1,2.805309296E-1
5.977801896E0,2.952114344E0,5.212588310E-1,4.723653793E-1
5.995700394E0,3.227581501E0,8.058609962E-1,5.322141647E-1
6.013593827E0,3.049724817E0,3.684425354E-1,-1.597948074E-1
6.031477799E0,3.015356541E0,7.722227573E-1,2.811756134E-1
6.049383194E0,2.682022572E0,3.923480511E-1,9.264039993E-1
6.067282303E0,2.823672533E0,6.637692451E-1,5.397834778E-1
6.085178055E0,2.959640741E0,6.500513554E-1,3.911886215E-1
6.103074540E0,2.979170799E0,8.131456375E-1,4.620666504E-1
6.120972916E0,2.843908072E0,9.009711742E-1,6.611156464E-1
6.138866227E0,2.785636902E0,5.318503380E-1,5.193176270E-1
6.156753495E0,3.013595581E0,9.242918491E-1,2.937068939E-1
6.174658768E0,2.791190863E0,8.215825558E-1,3.401927948E-1
6.192554764E0,2.586323977E0,3.424880505E-1,-3.055095673E-1
6.210439042E0,2.688782930E0,8.032596111E-1,4.427537918E-1
6.228348405E0,2.618365526E0,7.324154377E-1,7.851600647E-1
6.246242936E0,2.482673168E0,9.025950432E-1,-8.320426941E-2
6.264139237E0,2.979144573E0,8.780665398E-1,5.753183365E-1
6.282034989E0,3.318728924E0,9.753050804E-1,7.332315445E-1
6.299931168E0,3.434933901E0,8.654234409E-1,8.144531250E-1
6.317827103E0,3.639583349E0,8.880045414E-1,-4.972743988E-2
6.335723465E0,3.794144154E0,8.751704693E-1,3.474321365E-1
6.353619400E0,4.142571449E0,1.266467810E0,1.224851608E-1
6.371503434E0,4.150190830E0,8.426437378E-1,-2.265529633E-1
6.389408463E0,3.866955519E0,7.960906029E-1,-7.792186737E-2
6.407303788E0,4.405396461E0,1.108130932E0,9.070043564E-1
6.425203690E0,3.652599335E0,7.065403461E-1,-2.860012054E-1
6.443099869E0,4.595565796E0,7.076208591E-1,5.032234192E-1
6.460996109E0,4.522113323E0,1.066390276E0,3.286905289E-1
6.478892167E0,4.891225815E0,9.295175076E-1,1.006590843E0
6.496788163E0,4.690887928E0,7.686967850E-1,6.571063995E-1
6.514684098E0,4.850775719E0,6.400496960E-1,1.478319168E-1
6.532580155E0,5.370975494E0,6.550681591E-1,4.171304703E-1
6.550465165E0,5.528877258E0,8.713929653E-1,7.689828873E-1
6.568372330E0,5.261195660E0,3.794693947E-1,8.210039139E-1
6.586268387E0,5.423393250E0,6.812438965E-1,2.878456116E-1
6.604164627E0,5.156758308E0,1.432709694E-1,5.077295303E-1
6.622060624E0,5.166537762E0,6.047773361E-1,1.307061195E0
6.639956742E0,4.887370110E0,1.107325554E-1,1.075594902E0
6.657844071E0,4.876609802E0,3.977138996E-1,1.181857109E0
6.675748795E0,4.973488808E0,2.232172489E-1,2.509937286E-1
6.693641800E0,5.277725220E0,-4.553792477E-1,6.113872528E-1
6.711532120E0,5.028905869E0,1.074733734E-1,9.249153137E-1
6.729434464E0,4.887039185E0,4.120078087E-1,7.601299286E-1
6.747333451E0,5.258031368E0,-7.383370399E-2,6.288785934E-1
6.765229325E0,5.449481964E0,2.680418491E-1,9.546384811E-1
6.783125016E0,5.092951775E0,-3.178882599E-2,-7.287654877E-1
6.801021012E0,5.797505856E0,-4.935455322E-2,9.360198975E-1
6.818914261E0,4.885577202E0,3.358213902E-1,-1.018991470E-1
6.836813553E0,5.314085007E0,4.525160789E-2,3.880739212E-1
6.854709794E0,5.271332741E0,5.594334602E-1,3.520832062E-1
6.872605484E0,4.971183777E0,9.371900558E-2,2.650165558E-1
6.890490006E0,5.241182804E0,4.041292667E-1,-7.068252563E-2
6.908397843E0,4.766946793E0,-1.359601021E-1,-2.871465683E-1
6.926294022E0,4.883787632E0,-5.157169104E-1,-1.624298096E-1
6.944190079E0,4.785684586E0,-3.370761871E-3,4.232149124E-1
6.962086014E0,5.095155239E0,1.319043636E-1,7.081136703E-1
6.979984940E0,4.741441727E0,-1.011500359E-1,9.755563736E-1
6.997878190E0,5.245771408E0,4.375712872E-1,1.294365883E0
7.015774247E0,5.266640663E0,7.613801956E-2,1.300498962E0
7.033670182E0,5.381322861E0,2.638199329E-1,1.075835228E0
7.051557267E0,5.136657715E0,-6.106750965E-1,3.216094971E-1
7.069462723E0,5.426343918E0,-1.796374321E-1,1.416276932E0
7.087358414E0,5.166793823E0,-2.231107950E-1,1.220258713E0
7.105254654E0,5.222330093E0,-3.666136265E-1,8.337430954E-1
7.123150711E0,5.258689404E0,-7.502790689E-1,1.537405014E0
7.141046341E0,5.264018059E0,-2.071790695E-1,1.689888954E0
7.158939957E0,5.175355911E0,-1.909462214E-1,2.169208527E-1
7.176835953E0,5.247958660E0,-3.874976635E-1,8.644847870E-1
7.194734879E0,4.880337715E0,1.014573574E-1,1.536098480E0
7.212630997E0,5.056458473E0,2.458095551E-4,1.242848396E0
7.230518204E0,5.251698017E0,8.029544353E-1,1.052097321E0
7.248423233E0,4.737067223E0,2.096288204E-1,-4.598131180E-1
7.266319413E0,5.527529240E0,-4.365210533E-1,2.927713394E-1
7.284215165E0,5.024337769E0,3.117990494E-2,5.090837479E-1
7.302099137E0,5.248658657E0,2.567148209E-1,7.360162735E-1
7.320007340E0,5.124592304E0,5.941700935E-2,4.690132141E-1
7.337903519E0,5.287558556E0,-2.777137756E-1,7.939033508E-1
7.355799637E0,4.418569565E0,-4.520757198E-1,-2.668228149E-1
7.373695572E0,4.376226425E0,-3.055661917E-1,5.217428207E-1
7.391580155E0,4.481237411E0,3.362469673E-1,1.243829727E0
7.409487626E0,4.720517159E0,-6.279951334E-1,-8.134841919E-4
7.427384110E0,4.786222458E0,3.082084656E-1,8.138017654E-1
7.445279862E0,4.381813049E0,2.885885239E-1,2.243061066E-1
7.463175858E0,4.549316406E0,3.628664017E-1,6.757688522E-1
7.481071854E0,5.331728935E0,2.684254646E-1,4.252338409E-2
7.498968033E0,4.534826279E0,-1.390606165E-1,-3.488616943E-1
7.516864151E0,4.921625137E0,3.869156837E-1,7.453660965E-1
7.534760025E0,4.723042488E0,1.490998268E-2,-1.282758713E-1
7.552656327E0,4.855301857E0,6.861037016E-1,-4.929113388E-1
7.570540421E0,4.743060112E0,6.490471363E-1,-6.704187393E-1
7.588448380E0,4.672372818E0,-1.545131207E-2,-8.666734695E-1
7.606344559E0,4.019717693E0,8.917723894E-1,-1.226786613E0
7.624228775E0,4.346743584E0,1.505703449E0,1.610250473E-1
7.642127152E0,4.296800613E0,1.323498249E0,-8.406352997E-1
7.660020829E0,4.230525970E0,1.416180253E0,-1.202392578E-1
7.677916459E0,4.264391899E0,8.263628483E-1,-3.148937225E-1
7.695827592E0,4.442696571E0,7.255315781E-1,1.844444275E-1
7.713720841E0,4.847981930E0,5.674773455E-1,1.145420074E-1
7.731605240E0,4.515560150E0,9.110985994E-1,2.923679352E-2
7.749513016E0,4.606408119E0,1.157730699E0,7.269706726E-1
7.767411942E0,4.659748077E0,9.747533798E-1,1.179952621E-1
7.785305008E0,4.421997547E0,1.072737932E0,1.035426140E0
7.803201249E0,4.267806530E0,6.085456610E-1,-5.114583969E-1
7.821097001E0,4.156124115E0,8.441526890E-1,8.676481247E-1
7.838993241E0,4.108252048E0,9.696885347E-1,-3.307819366E-2
7.856889298E0,3.835551262E0,1.157653809E0,-3.206996918E-1
7.874777909E0,4.169732094E0,5.271863937E-1,-1.353740692E-1
7.892681473E0,4.570125580E0,1.172558546E0,1.615925789E0
7.910565995E0,3.867329597E0,1.019806385E0,-6.130218506E-2
7.928473771E0,4.331338882E0,1.161575317E0,1.082211494E0
7.946369706E0,3.379652977E0,1.304734945E0,9.100122452E-1
7.964265702E0,3.784603596E0,1.544434071E0,1.041755676E0
7.982161698E0,3.801270485E0,1.246006489E0,4.273042679E-1
8.000057816E0,4.143292427E0,1.186273098E0,8.283500671E-1
8.017953629E0,3.530650139E0,1.242530346E0,1.501350403E-1
8.035846939E0,3.724748135E0,1.342695236E0,2.166728973E-1
8.053745865E0,3.740674973E0,1.570781469E0,8.959436417E-1
8.071630021E0,3.496421099E0,1.267525554E0,3.908252716E-2
8.089538163E0,3.796800137E0,6.119509935E-1,3.874130249E-1
8.107434403E0,3.300491095E0,9.636074305E-1,-1.038419724E0
8.125333085E0,3.812200069E0,6.239923239E-1,2.791099548E-1
8.143226090E0,3.493978977E0,1.004484892E0,-6.832008362E-1
8.161118485E0,3.048211813E0,1.105693221E0,-1.314794540E0
8.179018265E0,3.689247608E0,7.389693260E-1,-2.605266571E-1
8.196914627E0,3.493124962E0,8.598186970E-1,-3.430747986E-1
8.214810440E0,2.887614250E0,1.018393517E0,-1.008893013E0
8.232706620E0,2.967931747E0,9.223210812E-1,-9.255800247E-1
8.250602555E0,2.673150539E0,8.053832054E-1,-3.831558228E-1
8.268498368E0,2.208949566E0,1.054410577E0,-8.761873245E-1
8.286394608E0,2.670300722E0,1.346275091E0,3.800201416E-2
8.304290604E0,2.821536064E0,9.513518810E-1,-7.992916107E-1
8.322186844E0,2.555003405E0,1.180861831E0,-3.153018951E-1
8.340082718E0,2.536865711E0,8.902045488E-1,-4.348907471E-1
8.357978531E0,2.518560410E0,1.500649214E0,-2.610168457E-1
8.375875138E0,2.115158319E0,8.675565720E-1,2.107629776E-1
8.393770524E0,2.059421539E0,1.209276199E0,1.228208542E-1
8.411655045E0,1.934924245E0,9.627668858E-1,4.406995773E-1
8.429563004E0,2.348295212E0,1.598362684E0,3.771018982E-2
8.447459000E0,2.036305428E0,8.634243011E-1,8.029937744E-4
8.465354996E0,2.473468781E0,1.178832769E0,7.222709656E-1
8.483251297E0,2.500084162E0,9.803934097E-1,-1.985473633E-1
8.501144730E0,2.115536690E0,1.620300293E0,5.199909210E-1
8.519040177E0,1.928605795E0,1.396938324E0,7.587070465E-1
8.536939286E0,1.600756168E0,1.198324203E0,3.874874115E-1
8.554835526E0,1.840855598E0,1.675867319E0,1.054328918E0
8.572731583E0,1.458312869E0,1.313168287E0,1.849603653E-1
8.590627518E0,1.526597500E0,1.401939631E0,1.218451500E0
8.608523819E0,1.472918272E0,9.872055054E-1,8.535375595E-1
8.626419510E0,1.442459345E0,9.012341499E-1,-3.622894287E-1
8.644307938E0,1.799943447E0,9.879348278E-1,3.893957138E-1
8.662211747E0,1.559232235E0,6.941173077E-1,-1.761531830E-1
8.680107682E0,1.511588335E0,1.276900291E0,5.157146454E-1
8.698002274E0,1.412631512E0,1.328283787E0,-5.289888382E-1
8.715899979E0,1.507360697E0,9.829163551E-1,-5.928325653E-1
8.733798966E0,1.595612645E0,1.400112867E0,5.515384674E-1
8.751691788E0,1.311844349E0,1.578754663E0,-3.005475998E-1
8.769576310E0,1.587927699E0,1.215722561E0,2.316741943E-1
8.787483963E0,8.910447359E-1,1.187090158E0,-1.284408569E-1
8.805379899E0,3.646394610E-1,5.281002522E-1,-6.182508469E-1
8.823275956E0,1.127865672E0,1.051208973E0,8.293828964E-1
8.841171891E0,1.302334309E0,1.359521866E0,-1.448529243E0
8.859068131E0,1.478410363E0,1.465407372E0,2.580509186E-1
8.876961380E0,1.419206858E0,8.860094547E-1,-4.154253006E-1
8.894860428E0,9.465873241E-1,8.995702267E-1,-2.503156662E-1
8.912753433E0,1.566008568E0,7.446048260E-1,-8.443899155E-1
8.930653213E0,9.644577503E-1,9.010102749E-1,-1.665448189E0
8.948548417E0,1.047195315E0,7.962670326E-1,3.036308289E-1
8.966444657E0,-1.203476191E-1,1.461435080E0,1.178846359E-1
8.984340592E0,1.373429894E-1,1.075573921E0,9.937257767E-1
9.002236649E0,1.431042552E-1,1.162403107E0,2.002925873E-1
9.020114945E0,9.733622074E-1,7.742002010E-1,1.239315033E0
9.038028580E0,1.095162153E0,2.148823738E-1,-4.575567245E-1
9.055924942E0,1.399798751E0,1.117328644E0,5.452518463E-1
9.073820877E0,6.204693317E-1,7.618989944E-1,-4.944715500E-1
9.091716629E0,8.714395761E-1,1.277289391E0,1.123673439E0
9.109612626E0,4.678590298E-1,1.043659210E0,-3.042078018E-1
9.127508866E0,6.644681692E-1,1.101273775E0,9.883308411E-2
9.145390213E0,8.766393065E-1,9.832499027E-1,-3.922376633E-1
9.163303910E0,9.432358742E-1,1.423709869E0,2.231864929E-1
9.181196854E0,8.887302279E-1,1.332132816E0,-1.128340721E0
9.199093033E0,9.781360030E-1,9.734058380E-1,1.556177139E-1
9.216991959E0,7.800894976E-1,1.521851778E0,-4.782772064E-2
9.234885025E0,8.428220153E-1,9.767539501E-1,4.065446854E-1
9.252769181E0,9.065410495E-1,1.374660015E0,-3.528394699E-1
9.270677323E0,9.217724800E-1,1.158431292E0,1.034420967E0
9.288573380E0,5.951061249E-1,6.215898991E-1,-1.495058060E0
9.306469315E0,1.324680209E0,1.167156696E0,6.059370041E-1
9.324365311E0,1.177449703E0,1.109479189E0,-9.248876572E-1
9.342264664E0,1.312271237E0,1.031055689E0,-3.506250381E-1
9.360157547E0,1.252434015E0,8.789317608E-1,-2.524452209E-1
9.378050552E0,7.861742377E-1,9.877083302E-1,-3.751573563E-1
9.395949540E0,1.040556550E0,1.077649355E0,3.341445923E-1
9.413842606E0,5.242986083E-1,1.013627529E0,-3.014450073E-1
9.431741532E0,6.600789428E-1,1.163404465E0,4.747486115E-2
9.449637711E0,1.128790140E0,1.095849991E0,-1.071434021E-1
9.467533768E0,8.909257650E-1,1.332404137E0,-6.049871445E-1
9.485429520E0,1.219252110E0,1.347268343E0,3.954391479E-1
9.503319535E0,1.059481859E0,8.648300171E-1,-7.852458954E-1
9.521221756E0,1.200150609E0,9.781153202E-1,-2.799873352E-1
9.539114761E0,1.155858994E0,1.434016943E0,-1.054615021E0
9.557014481E0,1.252099156E0,1.689483643E0,4.785108566E-1
9.574909989E0,1.111204147E0,1.636874199E0,-5.912952423E-1
9.592805741E0,1.367381930E0,1.158207655E0,3.353853226E-1
9.610701981E0,1.205509305E0,1.177551031E0,-1.053283691E0
9.628597977E0,1.438270569E0,8.784494400E-1,3.513975143E-1
9.646481949E0,9.262006283E-1,7.256171703E-1,-5.706634521E-1
9.664389908E0,9.492169619E-1,7.631988525E-1,4.660892487E-1
9.682286210E0,6.716934443E-1,5.583484173E-1,-4.625234604E-1
9.700181839E0,4.022732675E-1,1.284837484E0,2.797603607E-1
9.718074601E0,9.624119997E-1,8.791615963E-1,-3.354177475E-1
9.735974381E0,1.249050379E0,1.487137556E0,3.017253876E-1
9.753870255E0,1.288394690E0,8.828022480E-1,-7.146120071E-1
9.771766129E0,1.552527428E0,1.065929174E0,-8.609762192E-1
9.789662430E0,1.098707795E0,8.906090260E-1,-7.990074158E-1
9.807558304E0,9.790569544E-1,5.544443130E-1,-1.106901169E-1
9.825454239E0,8.744614720E-1,1.283996105E0,-1.444625854E-1
9.843353410E0,6.853793859E-1,1.005103588E0,2.707443237E-1
9.861246170E0,7.140309215E-1,7.007915974E-1,-2.125730515E-1
9.879142350E0,7.024886012E-1,1.068508148E0,1.766681671E-1
9.897040116E0,9.611758590E-1,9.991877079E-1,-2.775135040E-1
9.914919205E0,6.748530269E-1,9.119000435E-1,-4.607696533E-1
9.932830399E0,8.463557959E-1,8.837823868E-1,-1.112279892E-1
9.950726700E0,8.587304354E-1,1.144472837E0,-2.337856293E-1
9.968622757E0,9.861276150E-1,1.171903133E0,-2.759618759E-1
9.986518631E0,8.322140574E-1,1.106765270E0,-4.436492920E-3
1.000440273E1,8.070161939E-1,1.339855433E0,7.697257996E-1
1.002231093E1,5.129679441E-1,1.138145447E0,2.470855713E-1
1.004020650E1,2.634876668E-1,7.894849777E-1,-1.648902893E-1
1.005810304E1,1.445144415E-1,1.052927732E0,-2.469072342E-1
1.007599880E1,6.741818786E-1,1.007251024E0,5.743474960E-1
1.009389485E1,4.586767852E-1,1.266046047E0,3.342676163E-1
1.011179067E1,5.653448105E-1,1.163475752E0,-9.633541107E-2
1.012967500E1,5.154654384E-1,1.269502401E0,-1.841106415E-1
1.014758284E1,3.523605764E-1,1.318011522E0,4.940452576E-1
1.016547640E1,6.824484468E-2,7.043900490E-1,8.295059204E-3
1.018337508E1,6.276056170E-1,8.475615978E-1,-1.849079132E-2
1.020127107E1,6.216078997E-1,1.130336761E0,-3.458585739E-1
1.021916689E1,3.962556720E-1,1.037644386E0,1.141738892E-2
1.023706630E1,3.629105389E-1,9.326822758E-1,-5.394773483E-1
1.025495888E1,3.161028624E-1,1.238125563E0,-5.343017578E-1
1.027285500E1,-1.957046986E-1,1.313775539E0,2.440614700E-1
1.029075105E1,1.592882872E-1,1.201268196E0,3.834609985E-1
1.030864736E1,-9.004652500E-2,9.043889046E-1,-8.632841110E-1
1.032654305E1,3.955395222E-1,1.164453983E0,2.349424362E-1
1.034443929E1,-6.081005931E-2,5.873658657E-1,-3.419599533E-1
1.036233504E1,-1.794769764E-1,8.937385082E-1,-1.837825775E-1
1.038023427E1,-6.583714485E-2,7.644777298E-1,-3.518238068E-1
1.039812514E1,1.417206526E-1,1.138781309E0,-5.168857574E-1
1.041602290E1,4.174298048E-2,1.097413063E0,-1.609058380E-1
1.043391927E1,2.280348539E-2,1.354208708E0,-1.394329071E-1
1.045181526E1,1.439658552E-1,1.442385197E0,-1.377763748E-1
1.046971120E1,3.434118629E-2,8.489761353E-1,-5.952825546E-1
1.048760744E1,1.645594537E-1,1.150580168E0,1.685676575E-1
1.050549135E1,8.984839916E-2,8.896155357E-1,1.828546524E-1
1.052339919E1,-1.129813194E-1,6.487095356E-1,-1.863393784E-1
1.054128328E1,1.744565368E-2,1.053310871E0,3.033075333E-1
1.055919142E1,4.824364185E-2,1.026990175E0,-2.132186890E-1
1.057708803E1,8.844581246E-2,1.049685001E0,-6.074714661E-2
1.059498354E1,2.594898939E-1,1.223655224E0,-5.445098877E-1
1.061287947E1,6.709682941E-1,1.152540207E0,1.458215714E-1
1.063077577E1,3.317818344E-1,1.265867233E0,-8.455171585E-1
1.064867464E1,7.079280615E-1,9.113059044E-1,-7.511234283E-2
1.066654982E1,4.346700609E-1,1.245734215E0,-5.633487701E-1
1.068446370E1,5.016165376E-1,1.269332886E0,-1.536836624E-1
1.070235964E1,3.607130647E-1,9.506776333E-1,-7.896194458E-1
1.072026521E1,7.067024112E-1,1.191244841E0,-2.073183060E-1
1.073815218E1,3.585945964E-1,1.054735184E0,-8.076581955E-1
1.075604768E1,3.372432292E-1,9.372088909E-1,-3.337993622E-1
1.077394392E1,1.599831879E-2,1.095097065E0,3.730211258E-1
1.079182802E1,3.553262353E-1,1.111469507E0,3.699607849E-1
1.080973592E1,2.355660498E-2,1.144448996E0,-1.183710098E-1
1.082763191E1,4.186418056E-1,1.555763721E0,9.994354248E-1
1.084551326E1,3.795268834E-1,1.403900385E0,-1.635837555E-1
1.086341219E1,5.396143198E-1,6.764304638E-1,-3.037643433E-1
1.088131642E1,8.229608536E-1,1.564796448E0,3.874893188E-1
1.089920467E1,7.040374875E-1,1.201781511E0,5.410518646E-1
1.091711476E1,4.122566879E-1,9.699301720E-1,-2.849683762E-1
1.093500813E1,7.915953994E-1,1.197160959E0,4.142274857E-1
1.095290205E1,5.551893711E-1,1.401816130E0,-7.234086990E-1
1.097080013E1,4.825333059E-1,8.811078072E-1,5.430126190E-1
1.098869618E1,1.544323564E-1,1.589738131E0,-5.982303619E-2
1.100659486E1,4.097316861E-1,1.513593912E0,1.054195404E0
1.102448787E1,2.622672319E-1,1.252471924E0,-6.007289886E-2
1.104238405E1,5.792244077E-1,1.089122057E0,-1.945829391E-1
1.106026784E1,2.556967139E-1,1.328249693E0,4.592475891E-1
1.107816804E1,-2.126470208E-3,1.175889492E0,9.750871658E-1
1.109607234E1,3.701509535E-1,1.600373507E0,6.944541931E-1
1.111396834E1,-5.158299208E-2,5.429687500E-1,-1.366672516E-1
1.113186403E1,1.086815745E-1,1.160708189E0,5.891790390E-1
1.114976009E1,-2.429054677E-2,9.597313404E-1,-1.997947693E-3
1.116765657E1,4.573558569E-1,8.455145359E-1,9.807434082E-1
1.118555202E1,-1.258702576E-1,1.245924234E0,-3.826141357E-2
1.120344783E1,5.793858767E-1,7.755749226E-1,5.560131073E-1
1.122134407E1,-1.403119266E-1,6.418759823E-1,-1.010374069E0
1.123924001E1,-2.345743626E-1,8.097133636E-1,-7.804651260E-1
1.125713918E1,-2.592025101E-1,6.507132053E-1,3.610591888E-1
1.127503255E1,-1.339624971E-1,1.742397785E0,3.049764633E-1
1.129292824E1,-1.564617753E-1,1.041310310E0,-1.259666443E0
1.131082430E1,8.927428722E-1,1.309763908E0,1.501682281E0
1.132871767E1,-9.295541048E-1,5.790138245E-1,-1.882939339E0
1.134661623E1,3.103418052E-1,9.310624599E-1,2.357790947E0
1.136451228E1,-4.029259086E-1,9.704294205E-1,-2.552240372E0
1.138240791E1,-4.995107353E-1,1.221552610E0,6.499967575E-1
1.140030110E1,-6.033004820E-2,9.352152348E-1,-4.820938110E-1
1.141819936E1,-7.223224044E-1,1.016162872E0,-8.532047272E-1
1.143609651E1,4.537597895E-1,1.106283426E0,7.882604599E-1
1.145399788E1,-5.093926191E-2,5.512185097E-1,-1.725469589E0
1.147188826E1,-4.754403830E-1,1.996600628E-1,-3.801040649E-1
1.148978536E1,-5.954575539E-1,8.240900040E-1,3.659067154E-1
1.150768068E1,-1.022328138E0,1.463097334E0,-3.978500366E-1
1.152557643E1,5.265207291E-1,9.052906036E-1,9.563026428E-1
1.154347218E1,4.624913633E-2,3.140840530E-1,-1.696737289E0
1.156135188E1,8.793086410E-1,4.006493092E-1,5.258436203E-1
1.157926466E1,-3.635668755E-1,-1.369187832E-1,-1.156393051E0
1.159716335E1,-8.347737789E-2,9.042215347E-1,5.209159851E-1
1.161505672E1,2.908129096E-1,2.417712212E-1,-5.908966064E-2
1.163295247E1,6.551609933E-2,4.811680317E-1,-1.545958519E0
1.165083681E1,7.619754672E-1,7.661461830E-1,1.350688934E-2
1.166874471E1,4.317595065E-1,8.613882065E-1,-5.233249664E-1
1.168664046E1,1.070633158E-1,8.683333397E-1,-4.517917633E-1
1.170453383E1,1.818912476E-1,7.113714218E-1,2.914276123E-1
1.172243349E1,4.479056895E-1,7.667524815E-1,-1.430625916E-1
1.174032179E1,-1.482573301E-1,1.227843761E-1,-9.353342056E-1
1.175822163E1,1.823318005E-1,5.509674549E-1,2.485589981E-1
1.177612062E1,-6.035780907E-2,9.500634670E-1,2.777204514E-1
1.179401692E1,5.852022767E-2,8.331186771E-1,1.884346008E-1
1.181191267E1,-4.676420987E-2,3.790259361E-1,-5.284786224E-1
1.182980885E1,1.985618770E-1,3.592236042E-1,-5.674648285E-2
1.184770766E1,1.864280999E-1,4.674715996E-1,-4.190273285E-1
1.186560060E1,4.715284705E-1,2.739834785E-1,-2.855014801E-2
1.188349684E1,2.291223258E-1,5.161955357E-1,-6.161985397E-1
1.190139266E1,1.472108066E-2,1.626801491E-1,-6.105413437E-1
1.191928890E1,4.284334779E-1,5.137879848E-1,-4.302682877E-1
1.193718770E1,2.393441200E-1,5.831193924E-1,-6.835842133E-2
1.195506850E1,4.399644732E-1,4.238088131E-1,-2.770996094E-1
1.197297688E1,3.700582385E-1,4.034693241E-1,-9.779233932E-1
1.199087294E1,2.692030668E-1,6.050279140E-1,-3.680038452E-2
1.200876894E1,9.907534719E-2,3.433952332E-1,-1.058197021E-1
1.202666487E1,2.013587654E-1,4.446110725E-1,-9.094142914E-2
1.204456215E1,1.830959320E-2,7.973287106E-1,-1.976642609E-1
1.206245381E1,2.173751891E-1,7.109093666E-2,1.875925064E-1
1.208034084E1,-2.710951865E-2,4.501376152E-1,-7.790679932E-1
1.209825179E1,2.730578482E-1,4.730622768E-1,2.469196320E-1
1.211614485E1,1.298443675E-1,2.546341419E-1,-5.187950134E-1
1.213404115E1,-3.768167496E-1,6.096723080E-1,5.167913437E-1
1.215192519E1,6.878338754E-2,1.072161198E-1,-3.858051300E-1
1.216983760E1,-1.377078593E-1,1.636757851E-1,-2.958536148E-1
1.218772902E1,-5.249357820E-1,7.104372978E-2,-2.872152328E-1
1.220562483E1,-1.436594874E-1,2.731800079E-2,4.334115982E-1
1.222352107E1,-1.042501092E0,3.217055798E-1,-8.656091690E-1
1.224141420E1,-4.835639298E-1,2.553682327E-1,1.098825455E0
1.225931300E1,-3.911992908E-2,4.309725761E-1,-1.971244812E-3
1.227721175E1,-2.908704877E-1,3.761074543E-1,-2.618703842E-1
1.229510500E1,1.495566964E-2,1.729633808E-1,3.129682541E-1
1.231300099E1,-2.200912833E-1,3.525347710E-1,-3.171939850E-1
1.233089113E1,-9.546905756E-3,1.672036648E-1,-4.808044434E-1
1.234879012E1,1.194946319E-1,5.695886612E-1,1.715936661E-1
1.236668874E1,-2.609464526E-2,2.183218002E-1,-7.325592041E-1
1.238458498E1,4.630842805E-2,1.183166504E-1,5.057687759E-1
1.240247835E1,-1.709789932E-1,4.844963551E-1,6.369781494E-2
1.242036623E1,-6.956556439E-2,-2.503664494E-1,-4.101943970E-2
1.243827565E1,-1.289137602E-1,1.279168129E-1,2.536497116E-1
1.245616920E1,7.489094138E-2,-5.705618858E-2,2.296257019E-1
1.247406502E1,-7.742851973E-2,1.854217052E-1,2.116546631E-1
1.249196095E1,-3.462706804E-1,-8.030056953E-2,-1.223487854E-1
1.250985701E1,-4.685568810E-2,2.481427193E-1,2.232551575E-2
1.252775020E1,-1.267481148E-1,2.321045399E-1,8.003139496E-2
1.254564900E1,-3.718462586E-2,1.699800491E-1,-1.665973663E-2
1.256354524E1,-2.569317520E-1,3.257513046E-2,-3.864583969E-1
1.258144124E1,-1.710889935E-1,5.991823673E-1,5.529212952E-1
1.259933717E1,-4.145717621E-1,1.759128571E-1,-2.843685150E-1
1.261723616E1,-7.862070203E-2,3.525838852E-1,6.156730652E-1
1.263512636E1,-3.414532542E-1,1.152818203E-1,-3.213186264E-1
1.265302522E1,-8.306285739E-2,7.946085930E-2,-5.473613739E-2
1.267092122E1,-1.418327093E-1,-2.282619476E-2,-6.179141998E-2
1.268881752E1,6.398224831E-2,6.676077843E-2,2.210788727E-1
1.270671340E1,-3.806859255E-2,-1.008322239E-1,-3.846378326E-1
1.272460933E1,2.709993720E-2,4.487712383E-1,2.373924255E-1
1.274250520E1,-6.380611658E-2,3.542177677E-1,-3.879137039E-1
1.276038918E1,-4.815861583E-2,1.417214870E-1,-3.295240402E-1
1.277828792E1,2.193266749E-1,9.339737892E-2,-2.398023605E-1
1.279619313E1,-9.462064505E-2,2.049844265E-1,-2.304267883E-1
1.281408943E1,1.367890239E-1,1.536841393E-1,1.418590546E-2
1.283198518E1,-2.091381848E-1,2.320876122E-1,-1.980495453E-1
1.284988142E1,-3.306796849E-1,-2.810811996E-2,-3.456048965E-1
1.286778029E1,-5.238461494E-2,1.281900406E-1,-1.412105560E-1
1.288567311E1,-2.194503546E-1,4.288101196E-2,-6.363782883E-1
1.290356923E1,9.991478920E-2,2.216463089E-1,7.711458206E-1
1.292146541E1,-5.107685328E-1,-3.290934563E-1,-1.008631706E0
1.293935939E1,1.646740437E-1,2.387092113E-1,6.900215149E-1
1.295726033E1,-4.287197292E-1,-1.914730072E-1,-1.110045433E0
1.297515328E1,-9.152659774E-2,2.831454277E-1,1.074702263E0
1.299305238E1,-2.730034590E-1,-1.218352318E-1,-7.116708755E-1
1.301094539E1,-2.944951057E-1,-1.909852028E-1,-4.875907898E-1
1.302884120E1,8.220398426E-2,-1.860601902E-1,4.689407349E-2
1.304673708E1,-3.547668159E-1,-2.865600586E-2,-5.451974869E-1
1.306463338E1,-6.356367469E-2,1.777217388E-1,5.812997818E-1
1.308252931E1,-3.458145261E-2,-3.251028061E-2,-2.346687317E-1
1.310041365E1,-3.275156617E-1,9.347987175E-2,-3.737831116E-2
1.311832130E1,-5.327221751E-2,3.622775078E-1,5.654067993E-1
1.313620357E1,-1.110770702E-1,1.008157730E-1,-3.766689301E-1
1.315411623E1,9.806069732E-2,4.713041782E-1,3.992891312E-1
1.317200935E1,3.139320016E-2,-4.563546181E-2,-1.287078857E-2
1.318990535E1,3.041734397E-1,-2.109313011E-2,-4.473276138E-1
1.320780135E1,3.281408548E-2,1.483428478E-1,3.045578003E-1
1.322569704E1,5.421090126E-2,2.415013313E-2,1.942329407E-1
1.324359358E1,-1.379871666E-1,3.791227341E-1,-5.498600006E-2
1.326148927E1,2.391646653E-1,2.072060108E-1,-4.332342148E-1
1.327938527E1,7.560086250E-2,1.764466763E-1,-4.184865952E-1
1.329727992E1,3.559182286E-1,1.988244057E-2,3.070220947E-1
1.331517757E1,3.360092640E-3,2.901093960E-1,6.450080872E-2
1.333307326E1,1.391127557E-1,-1.799988747E-1,5.012035370E-2
1.335096950E1,1.421609968E-1,3.154339790E-1,-5.381107330E-1
1.336886714E1,3.540030122E-1,1.280863285E-1,8.843326569E-2
1.338676155E1,2.535763383E-1,5.972714424E-1,-3.040428162E-1
1.340464382E1,3.193190098E-1,-3.877825737E-1,-1.022230148E0
1.342255324E1,7.009756565E-1,4.071934223E-1,1.813707352E-1
1.344043782E1,4.149216712E-1,6.265854836E-2,-6.629533768E-1
1.345834822E1,4.579556882E-1,5.707597733E-2,-4.802131653E-1
1.347624129E1,3.745716810E-1,1.234114170E-1,-4.773235321E-2
1.349413747E1,3.298060000E-1,1.384961605E-1,-1.211595535E-1
1.351202223E1,-1.548491120E-1,-9.993982315E-2,-2.415676117E-1
1.352992506E1,1.192104816E-1,1.976480484E-1,9.255819321E-1
1.354782546E1,-1.598603725E-1,-2.016332150E-1,-6.385278702E-1
1.356571852E1,1.531970799E-1,3.507637978E-1,2.585096359E-1
1.358361751E1,2.742630243E-1,-1.833932400E-1,-4.799757004E-1
1.360151350E1,5.369918346E-1,6.683468819E-2,-5.800266266E-1
1.361940950E1,2.841068506E-1,1.382629871E-1,-3.450012207E-2
1.363729347E1,5.100431442E-1,1.532618999E-1,-3.835897446E-1
1.365520436E1,1.636566520E-1,3.854017258E-1,6.685256958E-4
1.367309749E1,3.758921325E-1,2.654790878E-1,-1.250638962E-1
1.369099349E1,4.427666068E-1,3.265240192E-1,-2.486257553E-1
1.370888954E1,3.697422743E-1,1.483194828E-1,-3.749752045E-1
1.372678523E1,5.652039647E-1,6.430077553E-2,1.035394669E-1
1.374467317E1,3.352914453E-1,1.652376652E-1,-7.401294708E-1
1.376257655E1,6.930187941E-1,-2.805418968E-1,-4.077186584E-1
1.378046553E1,3.778347969E-1,5.561382771E-1,-2.442255020E-1
1.379837202E1,3.175138235E-1,-6.139540672E-2,-1.205844879E-1
1.381626466E1,4.362663329E-1,-1.520392895E-1,-4.662294388E-1
1.383416145E1,1.791809201E-1,1.459581852E-1,-4.846658707E-1
1.385205739E1,4.720474482E-1,1.682066917E-2,-2.446365356E-2
1.386995345E1,3.160127103E-1,2.251145840E-1,-1.648225784E-1
1.388785201E1,5.130018592E-1,8.575940132E-2,-1.013584137E-1
1.390574727E1,8.199548721E-1,3.056049347E-1,-5.902481079E-2
1.392364113E1,1.785821319E-1,-7.096695900E-2,-5.011386871E-1
1.394152547E1,5.562346578E-1,1.297955513E-1,2.178716660E-1
1.395943330E1,3.902791142E-1,-5.402970314E-2,-9.069194794E-1
1.397732936E1,3.865675926E-1,-2.800178528E-2,7.148838043E-2
1.399522566E1,3.103322685E-1,6.743884087E-2,-2.288970947E-1
1.401312111E1,5.351530910E-1,1.307227612E-1,-4.300651550E-1
1.403101741E1,2.509365678E-1,2.109308243E-1,4.817485809E-2
1.404891036E1,3.308131993E-1,2.737998962E-2,1.671981812E-1
1.406679469E1,2.766413689E-1,1.301357746E-1,2.173042297E-2
1.408469362E1,4.812521935E-1,1.265323162E-1,-5.309677124E-2
1.410258711E1,4.790584445E-1,2.146873474E-1,7.903099060E-2
1.412048488E1,8.109021187E-1,3.198671341E-2,1.041088104E-1
1.413838136E1,7.254555225E-1,1.771004200E-1,-1.674194336E-1
1.415629079E1,6.191619039E-1,-1.679630280E-1,-1.130984306E0
1.417418263E1,1.174962521E0,2.594835758E-1,4.260034561E-1
1.419208138E1,6.598728895E-1,1.855347157E-1,-7.448329926E-1
1.420997707E1,1.061815023E0,2.644782066E-1,2.351503372E-1
1.422787337E1,1.076647997E0,2.734830379E-1,-4.999513626E-1
1.424576912E1,9.908875227E-1,2.639839649E-1,-2.921361923E-1
1.426366725E1,1.116771936E0,-1.459126472E-1,-2.437343597E-1
1.428156136E1,1.069092035E0,-1.223206520E-2,-7.613277435E-1
1.429945705E1,1.215016842E0,-2.675580978E-1,3.301429749E-2
1.431735329E1,9.203387499E-1,2.666473389E-1,-9.575748444E-2
1.433525203E1,1.024586678E0,-6.275892258E-3,8.166503906E-2
1.435313338E1,8.431848288E-1,-3.237676620E-2,-4.142112732E-1
1.437104134E1,9.221529961E-1,-8.375906944E-2,-9.195899963E-2
1.438893446E1,8.757396936E-1,9.995794296E-2,-4.813423157E-1
1.440682112E1,1.073975086E0,-5.058932304E-2,5.773973465E-1
1.442473055E1,6.838728786E-1,-5.464315414E-3,-7.081680298E-1
1.444262599E1,1.227251291E0,-4.809474945E-2,4.774150848E-1
1.446052107E1,9.098126292E-1,-1.029186249E-1,-3.330039978E-1
1.447841719E1,9.413645864E-1,3.520021439E-1,2.264204025E-1
1.449631306E1,1.025116205E0,2.347455025E-1,-1.235389709E-1
1.451420931E1,9.114007354E-1,1.826949120E-1,-3.351764679E-1
1.453210506E1,1.072688580E0,2.145149708E-1,1.508493423E-1
1.455000130E1,9.198442101E-1,-2.023482323E-1,-5.204916000E-1
1.456789723E1,1.312449455E0,1.199135780E-1,1.322441101E-1
1.458579304E1,1.099314332E0,1.597595215E-2,-3.788127899E-1
1.460368929E1,1.156908751E0,-1.008343697E-2,2.042751312E-1
1.462158821E1,9.706240892E-1,-3.720998764E-2,-4.555835724E-1
1.463948122E1,1.138868213E0,4.318809509E-2,6.614398956E-2
1.465737422E1,9.317127466E-1,7.535314560E-2,2.501888275E-1
1.467527327E1,1.075290918E0,-3.049135208E-2,-1.234531403E-2
1.469316896E1,1.147345424E0,-7.925033569E-4,8.197784424E-2
1.471106526E1,1.145424843E0,-5.252170563E-2,3.789329529E-2
1.472896120E1,1.395629525E0,3.549175262E-1,2.732086182E-2
1.474686031E1,1.389691591E0,3.155331612E-1,2.696943283E-1
1.476475301E1,1.159867287E0,3.618848324E-1,2.416763306E-1
1.478264876E1,1.204084992E0,3.838968277E-1,4.406213760E-1
1.480054494E1,1.037893057E0,3.367495537E-1,1.840467453E-1
1.481844093E1,1.260899067E0,6.512045860E-2,1.718959808E-1
1.483633699E1,1.329026341E0,1.546945572E-1,4.072942734E-1
1.485423323E1,1.232602119E0,7.872676849E-2,3.774433136E-1
1.487213197E1,1.262011409E0,-6.975340843E-2,5.606698990E-1
1.489002528E1,9.583979845E-1,4.676508904E-2,-8.179569244E-2
1.490791164E1,1.083911419E0,1.989433765E-1,7.620677948E-1
1.492581722E1,1.148403645E0,1.194150448E-1,-2.110204697E-1
1.494371291E1,1.014201164E0,-1.938962936E-2,2.230758667E-1
1.496160640E1,9.250493050E-1,6.368803978E-2,5.856075287E-1
1.497950484E1,8.688722253E-1,6.415367126E-3,5.005826950E-1
1.499740090E1,1.064201474E0,-1.038970947E-1,4.948549271E-1
1.501529689E1,8.278118968E-1,-1.783514023E-2,2.354984283E-1
1.503319283E1,9.189424515E-1,4.602122307E-2,3.953647614E-1
1.505108650E1,9.747328758E-1,3.098678589E-2,6.290845871E-1
1.506898415E1,1.001902938E0,1.622669697E-1,3.085298538E-1
1.508688063E1,1.294540882E0,5.088543892E-2,2.762002945E-1
1.510477669E1,1.220161676E0,1.678018570E-1,3.468513489E-3
1.512267293E1,1.364465356E0,7.099747658E-2,6.909084320E-1
1.514056874E1,8.255022764E-1,-9.763073921E-2,3.235759735E-1
1.515846754E1,1.325437784E0,6.015729904E-2,1.237764359E0
1.517636092E1,6.578515172E-1,2.326378822E-1,-4.621133804E-1
1.519425600E1,7.754933834E-1,7.133841515E-2,9.764986038E-1
1.521215297E1,8.808154464E-1,-2.784330845E-1,2.312164307E-1
1.523004890E1,9.085729718E-1,-2.501378059E-1,-3.834819794E-2
1.524794454E1,1.377098203E0,6.260251999E-2,1.058845520E0
1.526584059E1,1.057706594E0,2.753593922E-1,5.002670288E-1
1.528373665E1,1.265500426E0,-8.295798302E-2,6.260490417E-2
1.530163283E1,9.569044709E-1,-1.055746078E-1,-9.484128952E-1
1.531952864E1,1.097717047E0,-2.341020107E-1,-5.161952972E-1
1.533742452E1,8.848872781E-1,3.098249435E-2,7.331457138E-1
1.535532057E1,8.723356128E-1,1.259095669E-1,2.789583206E-1
1.537321632E1,1.077521324E0,3.785634041E-2,3.003664017E-1
1.539111263E1,1.190581918E0,9.357213974E-3,-2.723112106E-1
1.540900856E1,1.207796931E0,-2.152998447E-1,-1.748657227E-1
1.542690456E1,1.379644513E0,-1.072297096E-1,-3.534078598E-1
1.544479054E1,1.310680509E0,3.161101341E-1,5.248908997E-1
1.546269655E1,9.730149508E-1,-5.165171623E-2,-4.462490082E-1
1.548059535E1,1.010909796E0,-9.118580818E-2,2.146825790E-1
1.549848854E1,1.119893551E0,-2.770726681E-1,-7.885169983E-2
1.551638460E1,1.223556638E0,-3.459084034E-1,-2.762794495E-2
1.553428053E1,1.272899389E0,-1.825537682E-1,-4.234790802E-2
1.555217903E1,1.110005140E0,-1.208386421E-1,2.632446289E-1
1.557007252E1,1.466575742E0,-2.703626156E-1,2.918787003E-1
1.558796858E1,1.082176208E0,-7.999849319E-2,-2.894449234E-1
1.560586427E1,1.323686004E0,3.938603401E-2,6.193237305E-1
1.562375441E1,4.831530154E-1,-4.511473179E-1,-2.121362686E-1
1.564164186E1,1.374816895E0,1.031785011E-1,9.461688995E-1
1.565955385E1,1.277829409E0,4.752054214E-1,1.319561005E-1
1.567744826E1,1.809212685E0,1.114244461E-1,9.199171066E-1
1.569534450E1,1.518298388E0,-5.206489563E-1,-1.889152527E-1
1.571324025E1,1.622676373E0,-2.121758461E-2,4.551391602E-1
1.573113631E1,1.293669343E0,-1.317188740E-1,3.998355865E-1
1.574903236E1,9.359354973E-1,-1.871366501E-1,-7.497787476E-2
1.576692824E1,1.073539853E0,-6.632375717E-2,1.144575119E0
1.578481209E1,1.129644871E0,1.506757736E-2,7.882299423E-1
1.580272023E1,1.217636824E0,-8.320856094E-2,1.306209564E-1
1.582061598E1,1.548163772E0,4.707598686E-2,9.574089050E-1
1.583851222E1,1.559383035E0,-7.780790329E-3,2.508325577E-1
1.585640798E1,1.460644841E0,3.897595406E-2,4.387760162E-1
1.587430403E1,1.753832579E0,-1.484744549E-1,-1.754865646E-1
1.589218886E1,1.393956065E0,1.743435860E-2,6.373682022E-1
1.591009633E1,1.353659034E0,-7.700395584E-2,8.543519974E-1
1.592799196E1,1.099569559E0,-7.338523865E-2,-4.691123962E-2
1.594588820E1,1.383701682E0,-3.048722744E-1,3.028583527E-2
1.596378694E1,1.651319146E0,-1.303756237E-1,6.809711456E-1
1.598168007E1,1.202226877E0,-3.971600533E-1,-1.632184982E-1
1.599957594E1,1.506087303E0,-1.055717468E-3,7.634429932E-1
1.601747218E1,1.425225019E0,-9.140133858E-2,4.565763474E-1
1.603536269E1,1.204169512E0,1.113312244E-1,2.907199860E-1
1.605326375E1,1.438026547E0,4.952788353E-2,4.167623520E-1
1.607115999E1,1.596623778E0,-1.610505581E-1,-8.229351044E-2
1.608905598E1,1.639874816E0,-1.871137619E-1,2.096462250E-1
1.610695338E1,1.640383720E0,-6.870436668E-2,4.890632629E-2
1.612483553E1,1.650468826E0,-1.427719593E-1,7.233104706E-1
1.614273219E1,1.395758629E0,-1.412901878E-1,1.882839203E-2
1.616063966E1,1.670629978E0,-9.406137466E-2,5.094099045E-1
1.617853566E1,1.440946102E0,1.004934311E-1,5.303068161E-1
1.619643190E1,9.540168047E-1,-2.379450798E-1,4.297056198E-1
1.621432765E1,1.613352180E0,-1.072409153E-1,-1.425552368E-1
1.623222365E1,1.720916271E0,-6.070775986E-1,-2.324724197E-1
1.625011964E1,1.686831236E0,-3.099522591E-1,2.436952591E-1
1.626801131E1,1.661768794E0,-2.620577812E-1,2.932090759E-1
1.628591121E1,1.424427509E0,-3.121790886E-1,-1.289863586E-1
1.630380769E1,1.756859541E0,-8.698463440E-3,4.108772278E-1
1.632170363E1,1.328492761E0,1.982212067E-3,-7.537937164E-2
1.633959962E1,1.499543786E0,-2.351567745E-1,2.686996460E-1
1.635749599E1,1.530242443E0,-1.438951492E-2,6.463336945E-2
1.637539278E1,1.573757529E0,-4.857721329E-1,2.562160492E-1
1.639328737E1,1.648615360E0,-2.146165371E-1,3.005609512E-1
1.641117165E1,1.451305151E0,-3.212096691E-1,4.535293579E-2
1.642907967E1,1.614658952E0,-4.124808311E-2,-5.036993027E-1
1.644697548E1,1.587927341E0,-2.883577347E-1,4.926824570E-1
1.646487135E1,1.096428037E0,-8.830833435E-2,1.818132401E-1
1.648276735E1,1.131183267E0,-6.195356846E-1,-5.098819733E-2
1.650066316E1,1.347481489E0,-2.780945301E-1,-4.243850708E-1
1.651855910E1,1.509113908E0,-3.193080425E-1,-5.396842957E-3
1.653644270E1,1.442795038E0,-4.778337479E-1,-1.093320847E-1
1.655435115E1,1.483292460E0,-4.165751934E-1,3.499221802E-1
1.657224709E1,1.283435106E0,-1.248741150E-1,1.424026489E-2
1.659014339E1,8.771119118E-1,-7.321281433E-1,-7.368335724E-1
1.660803658E1,1.158137321E0,-2.611105442E-1,5.617494583E-1
1.662593220E1,9.282329679E-1,-4.153225422E-1,-5.065345764E-1
1.664383107E1,1.243766308E0,-5.482227802E-1,1.291532516E-1
1.666171486E1,9.153982997E-1,-1.785819530E-1,1.613063812E-1
1.667962306E1,1.087208271E0,-4.739270210E-1,-6.573772430E-1
1.669751930E1,1.226035833E0,-8.168411255E-2,4.233341217E-1
1.671541512E1,1.087448716E0,-9.486317635E-2,2.420082092E-1
1.673331087E1,5.928848386E-1,-4.596583843E-1,-1.408996582E0
1.675120692E1,6.575905085E-1,-1.220760345E-1,2.522346497E0
1.676910176E1,5.113857985E-1,8.825850487E-2,1.941080093E-1
1.678700185E1,5.921882391E-1,-8.414020538E-1,-3.451547623E-1
1.680489455E1,1.147610784E0,-7.831985950E-1,2.812480927E-1
1.682279079E1,8.341854215E-1,-1.752200127E-1,6.735124588E-1
1.684068678E1,1.102694869E0,-4.552485943E-1,3.086614609E-1
1.685858351E1,1.280753255E0,1.321794987E-1,1.487968445E0
1.687647878E1,1.504760265E0,1.387615204E-1,5.528841019E-1
1.689436256E1,2.013923168E0,-7.217705250E-1,-2.162557602E0
1.691225942E1,1.281265974E0,-4.460158348E-1,3.687639236E-1
1.693016682E1,1.313889623E0,-4.265234470E-1,-4.402923584E-2
1.694806215E1,1.168518066E0,6.602768898E-1,5.369606018E-1
1.696595851E1,9.876401424E-1,4.261171818E-1,4.783229828E-1
1.698385756E1,1.276595116E0,3.218734264E-1,1.534537315E0
1.700175075E1,6.242977381E-1,-6.193103790E-1,-3.345174789E-1
1.701963460E1,1.371851921E0,-3.202564716E-1,1.450542450E0
1.703754250E1,2.100923955E-1,-7.345020771E-1,-1.293126106E0
1.705543849E1,6.284405589E-1,-5.557878017E-1,2.041612625E0
1.707333455E1,-2.540600300E-1,-4.106204510E-1,4.710903168E-1
1.709123055E1,3.969130218E-1,-5.932404995E-1,1.168856621E0
1.710912630E1,1.113649964E0,2.857971191E-1,-7.118320465E-2
1.712701088E1,3.647314012E-1,-4.019665718E-1,-8.358039856E-1
1.714490920E1,2.264482021E0,-1.086428165E-1,2.978685379E0
1.716281422E1,-5.550776124E-1,1.101210117E-1,-1.700713158E0
1.718070674E1,2.176290005E-1,-8.418488503E-1,9.343681335E-1
1.719860622E1,-5.337162614E-1,2.939748764E-1,4.095678329E-1
1.721650227E1,6.605991721E-2,-4.200332165E-1,5.255508423E-1
1.723439845E1,7.642921805E-1,-3.808803558E-1,2.341880798E-1
1.725229427E1,5.945565104E-1,-2.022218704E-1,9.584960938E-1
1.727018977E1,9.608423710E-1,-7.335002422E-1,-3.749551773E-1
1.728808565E1,9.131256342E-1,-5.875859261E-1,5.560026169E-1
1.730597023E1,1.103242159E0,-3.366732597E-1,9.913082123E-1
1.732386629E1,9.194009900E-1,-1.010941982E0,-1.334750175E0
1.734177797E1,1.928383112E-1,-7.940092087E-1,-1.333596230E0
1.735965840E1,1.495981455E0,6.046822071E-1,2.487448692E0
1.737756593E1,-2.743801475E-1,1.952769756E-1,-1.386052608E0
1.739546175E1,8.714028597E-1,-5.735282898E-1,1.549616814E0
1.741335823E1,-2.831354141E-1,-1.213612556E-1,-1.599922180E-1
1.743125398E1,7.846950293E-1,-4.254708290E-1,9.653882980E-1
1.744914815E1,1.602578640E0,2.951123714E-1,2.898273468E-1
1.746704866E1,1.558215857E0,1.853106022E-1,8.516311646E-1
1.748494173E1,1.486475468E0,8.034968376E-2,-8.640241623E-1
1.750283766E1,1.066826582E0,1.309764385E-1,-6.573200226E-2
1.752073372E1,1.796199799E0,-4.233362675E-1,5.096454620E-1
1.753862941E1,2.291680574E0,-5.440669060E-1,-3.612957001E-1
1.755652290E1,2.293350458E0,1.156859398E-1,1.449651718E-1
1.757442171E1,7.340120077E-1,-5.380582809E-1,-7.998752594E-1
1.759231740E1,2.846244574E-1,-7.907595634E-1,1.510164261E0
1.761021645E1,1.337417066E-1,-3.100423813E-1,6.278734207E-1
1.762809468E1,-1.162689179E-1,-6.310207844E-1,-2.893724442E-1
1.764600832E1,2.333677858E-1,-3.903100491E-1,6.891746521E-1
1.766390144E1,-6.373901367E-1,-2.583439350E-1,3.304672241E-1
1.768178700E1,6.005083025E-2,-6.650686264E-1,2.902593613E-1
1.769969338E1,4.588165581E-1,1.406354904E-1,5.935363770E-1
1.771758949E1,1.043813348E0,-2.977521420E-1,-5.341968536E-1
1.773548537E1,1.459648728E0,9.324312210E-3,1.991662979E-1
1.775338118E1,1.914377451E0,-3.645336628E-1,4.000148773E-1
1.777127638E1,8.287625313E-1,-5.650565624E-1,-2.236728668E0
1.778917043E1,2.321220160E0,-2.089505196E-1,-2.050971985E-2
1.780707210E1,1.239341974E0,-6.490921974E-2,-1.186485291E0
1.782496468E1,1.303986073E0,-2.017734051E-1,1.895484924E-1
1.784286086E1,1.029683113E0,-1.226422787E-1,-2.042179108E-1
1.786075685E1,1.124022722E0,-2.969467640E-1,-1.122150421E-1
1.787865285E1,1.298607588E0,-6.045143604E-1,2.160692215E-1
1.789654890E1,9.756990671E-1,-1.576893330E-1,1.291341782E-1
1.791444484E1,5.611532927E-1,-4.320282936E-1,-6.247720718E-1
1.793234090E1,1.006791711E0,-1.257755756E-1,1.124350548E0
1.795023543E1,6.191427112E-1,-5.107574463E-1,-5.715093613E-1
1.796812965E1,6.226342320E-1,-5.274868011E-1,3.577394485E-1
1.798602864E1,6.527465582E-1,-3.468613625E-1,3.932905197E-1
1.800392482E1,1.083133936E0,-6.088919640E-1,1.791105270E-1
1.802182356E1,1.152860522E0,-1.853444576E-1,2.907571793E-1
1.803971657E1,1.080288291E0,-3.217239380E-1,1.435279846E-3
1.805760036E1,8.083589077E-1,-2.862071991E-2,1.554059982E-1
1.807550862E1,7.434237003E-1,-5.866162777E-1,6.343240738E-1
1.809340437E1,8.943646550E-1,6.495618820E-2,6.741952896E-1
1.811130037E1,5.845702291E-1,-1.293087006E-2,1.978530884E-1
1.812919472E1,7.593152523E-1,-5.116987228E-1,-1.935958862E-4
1.814709529E1,8.587217331E-1,-4.775681496E-1,-1.440744400E-1
1.816498811E1,6.876251698E-1,-7.324464321E-1,-6.636428833E-2
1.818288411E1,6.433745027E-1,-3.345024586E-1,1.296501160E-1
1.820078005E1,5.374270678E-1,-4.285178185E-1,7.981586456E-2
1.821867628E1,3.831799626E-1,-3.772566319E-1,1.148090363E-1
1.823657204E1,3.249904811E-1,-7.637650967E-1,-5.811595917E-1
1.825446809E1,4.267562628E-1,-4.280889034E-1,-2.818222046E-1
1.827235457E1,4.077198505E-1,-3.975629807E-1,-5.778312683E-2
1.829026527E1,3.333399296E-1,-3.534655571E-1,4.549703598E-1
1.830815291E1,7.380130887E-1,-3.342316151E-1,6.837282181E-1
1.832605177E1,7.600407600E-1,-4.380195141E-1,-3.339748383E-1
1.834394777E1,7.828918695E-1,-3.366858959E-1,-6.339635849E-1
1.836184383E1,8.327935934E-1,-3.703825474E-1,-3.592786789E-1
1.837973976E1,4.207549393E-1,-2.487199306E-1,-1.855039597E-1
1.839763570E1,3.224668503E-1,-1.735658646E-1,8.771991730E-2
1.841553182E1,2.975714207E-1,-2.623763084E-1,1.354904175E-1
1.843342470E1,2.525674403E-1,-3.989894390E-1,4.148836136E-1
1.845132381E1,4.075226188E-2,-2.309069633E-1,5.284786224E-1
1.846921639E1,1.451539099E-1,-2.640686035E-1,8.669691086E-1
1.848711855E1,-1.918351650E-2,-5.577633381E-1,1.329784393E-1
1.850501125E1,-2.284334451E-1,3.443717957E-2,-6.181621552E-2
1.852290755E1,5.422437191E-1,-3.876280785E-1,1.292501450E0
1.854080306E1,1.363663673E-1,-3.704781532E-1,2.671718597E-1
1.855869923E1,2.598161697E-1,-4.074785709E-1,3.211412430E-1
1.857659523E1,-3.760260344E-2,-3.367779255E-1,7.020406723E-1
1.859449129E1,1.141643524E-2,-1.301329136E-1,8.754281998E-1
1.861238722E1,-1.263001859E-1,-7.774624825E-1,2.946290970E-1
1.863027394E1,1.197909415E-1,-4.176793098E-1,7.075309753E-2
1.864817934E1,-1.454803050E-1,-2.055048943E-2,9.566316605E-1
1.866607497E1,-5.712374449E-1,-1.512310505E-1,4.519777298E-1
1.868397072E1,-2.136325687E-1,1.450395584E-2,1.479117393E0
1.870186696E1,-6.186518669E-1,-5.933349133E-1,4.834175110E-1
1.871976265E1,-5.816226602E-1,1.372134686E-1,-1.016621590E0
1.873765895E1,9.485980868E-2,3.162133694E-1,2.691200256E0
1.875555501E1,-7.801636457E-1,-5.801839828E-1,-4.160156250E-1
1.877345100E1,3.796415925E-1,-2.613997459E-1,1.639657021E0
1.879134676E1,-2.127631009E-1,-8.905141354E-1,-4.951868057E-1
1.880923970E1,-2.113895863E-1,-6.565892696E-1,4.048728943E-2
1.882714162E1,-9.638369083E-2,-6.039159298E-1,1.277952194E-1
1.884502986E1,-4.779035449E-1,-7.223923206E-1,8.270034790E-1
1.886293074E1,-6.706527472E-1,-2.618510723E-1,7.697162628E-1
1.888082607E1,-3.051413894E-1,-3.397121429E-1,5.106620789E-1
1.889872218E1,-4.415438175E-1,-7.850353718E-1,-6.792163849E-2
1.891661842E1,-4.502559900E-1,-4.823687077E-1,-1.052083969E-1
1.893451448E1,-2.530211806E-1,-7.884161472E-1,-5.286397934E-1
1.895241017E1,-2.555750608E-1,-1.785645485E-1,2.325439453E-2
1.897030135E1,-5.275789499E-1,-1.761486530E-1,-4.239339828E-1
1.898819923E1,-6.320171356E-1,1.336956024E-1,-3.567171097E-1
1.900610115E1,-4.940066040E-1,1.184439659E-1,-2.906198502E-1
1.902399422E1,-3.665584922E-1,-1.643669605E-1,-2.674922943E-1
1.904189021E1,-4.373235703E-1,-6.721496582E-2,-5.861721039E-1
1.905978621E1,-4.510098696E-1,-1.321718693E-1,2.107591629E-1
1.907768184E1,-4.048432410E-1,-4.683494568E-2,-3.250217438E-2
1.909557790E1,-6.474068761E-1,-1.508588791E-1,1.642103195E-1
1.911347395E1,-6.247382164E-1,-4.293591976E-1,7.610940933E-1
1.913135268E1,-8.185724020E-1,-1.943941116E-1,4.382839203E-1
1.914926247E1,-1.155642629E0,-5.673577785E-1,-2.240037918E-1
1.916716481E1,-9.502611160E-1,-1.269412041E-1,4.443235397E-1
1.918505739E1,-8.956750631E-1,-3.992507458E-1,4.818372726E-1
1.920295369E1,-7.195382118E-1,8.466267586E-2,5.000686646E-1
1.922084938E1,-5.387271643E-1,-4.797861576E-1,3.467645645E-1
1.923874562E1,-5.805075765E-1,-4.292221069E-1,-2.589168549E-1
1.925664150E1,-7.200515866E-1,-9.460997581E-2,3.980522156E-1
1.927453749E1,-7.857816219E-1,1.308274269E-2,-3.871030807E-1
1.929243196E1,-7.441117764E-1,1.926741600E-1,5.712451935E-1
1.931031886E1,-1.068368435E0,-1.640963554E-1,-5.769062042E-1
1.932822261E1,-7.129366398E-1,-2.877688408E-2,1.018838882E-1
1.934612111E1,-8.115125895E-1,9.793114662E-2,-4.147300720E-1
1.936401711E1,-5.892893672E-1,-3.870439529E-1,-2.003469467E-1
1.938190114E1,-7.979744673E-1,-3.729150295E-1,1.766586304E-1
1.939979360E1,-6.414454579E-1,-4.700567722E-1,-2.047443390E-1
1.941770485E1,-7.695126534E-1,-1.769447327E-1,-5.657711029E-1
1.943560109E1,-5.040712953E-1,1.187181473E-2,4.040060043E-1
1.945349678E1,-1.143730044E0,-3.020539284E-1,-9.135780334E-1
1.947138246E1,-7.641907930E-1,1.806831360E-1,5.583076477E-1
1.948928590E1,-1.017886162E0,2.807674408E-1,-6.133899689E-1
1.950718715E1,-6.952556968E-1,1.351609230E-1,4.453334808E-1
1.952508058E1,-5.143404007E-1,1.538958549E-1,-4.274673462E-1
1.954297658E1,-5.902294517E-1,1.057937145E-1,2.851047516E-1
1.956087233E1,-5.003474355E-1,-8.257460594E-2,-1.441774368E-1
1.957876857E1,-6.830419302E-1,-4.748654366E-2,-4.513330460E-1
1.959666457E1,-5.663630962E-1,-2.474732399E-1,-4.102458954E-1
1.961456032E1,-7.725356817E-1,6.562328339E-2,-2.154245377E-1
1.963244167E1,-5.567114353E-1,3.144795895E-1,8.200454712E-1
1.965034004E1,-6.293808222E-1,-2.991838455E-1,-7.883024216E-1
1.966824562E1,-9.108435512E-1,-7.517194748E-2,-9.101772308E-2
1.968614131E1,-6.105357409E-2,1.097745895E-1,4.136610031E-1
1.970404006E1,-1.031940937E0,-5.013263226E-1,-1.254984856E0
1.972193611E1,-2.219473124E-1,3.522419930E-2,9.379816055E-1
1.973983229E1,-7.738213539E-1,8.813667297E-2,-9.494590759E-1
1.975772780E1,-7.887004614E-1,-5.305099487E-2,7.298946381E-2
1.977562410E1,-5.968168974E-1,-2.778291702E-3,2.158737183E-2
1.979351686E1,-5.323730707E-1,-2.308132648E-1,-5.849123001E-1
1.981140077E1,-3.736861944E-1,-4.137110710E-2,3.147306442E-1
1.982930885E1,-3.817487955E-1,2.319259644E-1,-3.746223450E-1
1.984720754E1,-1.568319499E-1,-3.895044327E-3,2.277793884E-1
1.986510329E1,-4.989485741E-1,2.211928368E-2,-1.247463226E-1
1.988299953E1,-8.016911149E-1,1.028156281E-1,3.184261322E-1
1.990089534E1,-7.393694520E-1,-1.961100101E-1,3.164825439E-1
1.991879128E1,-1.052178860E0,-4.232907295E-2,-8.611631393E-1
1.993668752E1,-4.993439913E-1,-1.079938412E-1,1.046606064E0
1.995458327E1,-1.071813107E0,3.117895126E-2,-6.639976501E-1
1.997247926E1,-7.209538221E-1,-3.755867481E-1,4.547452927E-1
1.999036336E1,-6.589633226E-1,-2.881748676E-1,-3.323459625E-1
2.000826833E1,-1.001691580E0,-1.885080338E-1,8.362770081E-2
2.002616713E1,-9.985953569E-1,-2.256298065E-2,2.649211884E-2
2.004406300E1,-1.043073893E0,2.207827568E-2,4.443359375E-2
2.006195906E1,-9.021834731E-1,1.235494614E-1,1.348829269E-1
2.007985475E1,-8.134815693E-1,1.283240318E-2,-5.883703232E-1
2.009775069E1,-7.316082716E-1,1.304476261E-1,2.718276978E-1
2.011563216E1,-4.341902435E-1,2.346239090E-1,3.030300140E-1
2.013353267E1,-3.190956712E-1,5.421814919E-1,4.111680984E-1
2.015142726E1,-5.649570823E-1,-1.021993160E-1,-8.213281631E-1
2.016933156E1,-4.644521177E-1,-3.383107185E-1,-4.873781204E-1
2.018723341E1,-9.597827792E-1,-1.966118813E-1,3.552980423E-1
2.020512648E1,-1.169531822E0,-2.796003819E-1,-8.051071167E-1
2.022302217E1,-1.197431326E0,-1.221044064E-1,-1.664505005E-1
2.024091841E1,-8.970189095E-1,5.187370777E-1,5.916185379E-1
2.025881014E1,-1.363309503E0,2.304861546E-1,-9.264469147E-2
2.027671028E1,-6.543540955E-1,2.172565460E-2,1.162739754E0
2.029460628E1,-9.137538671E-1,-1.086354256E-1,-5.352983475E-1
2.031249037E1,-7.540621161E-1,-4.852771759E-1,-8.428096771E-2
2.033038631E1,-7.366116047E-1,1.216566563E-1,-8.906555176E-2
2.034829567E1,-4.837299585E-1,-2.742846012E-1,-7.053756714E-1
2.036618996E1,2.773030400E-1,2.798624039E-1,4.480895996E-1
2.038408370E1,-6.256402731E-1,1.318311691E-2,-1.309854507E0
2.040198195E1,-1.000073910E0,-4.600408077E-1,-2.028560638E-2
2.041987764E1,-1.519148111E0,-2.164208889E-1,-1.882715225E-1
2.043777370E1,-1.253507853E0,-3.102545738E-1,8.824853897E-1
2.045566975E1,-2.357110023E0,-3.738284111E-1,1.227178574E-1
2.047356551E1,-1.445052385E0,4.294991493E-2,1.395158768E0
2.049144954E1,-9.486559033E-1,-4.869389534E-2,4.811573029E-1
2.050935451E1,-1.051738501E0,3.659689426E-1,-4.396076202E-1
2.052723885E1,-3.713478446E-1,1.809909344E-1,4.087533951E-1
2.054513741E1,-1.107277393E0,1.571018696E-1,-8.364868164E-2
2.056303523E1,-7.566303611E-1,4.776914120E-1,1.002783775E0
2.058092928E1,-9.096671939E-1,-2.979469299E-2,-4.940690994E-1
2.059884035E1,-9.482743740E-1,1.731324196E-2,-1.141462326E-1
2.061673317E1,-9.333339334E-1,8.731269836E-2,5.170097351E-1
2.063461745E1,-1.229567170E0,8.548069000E-2,6.958961487E-2
2.065252498E1,-1.203326344E0,2.600624561E-1,2.212467194E-1
2.067041200E1,-9.233770370E-1,-7.798385620E-2,-3.269500732E-1
2.068831398E1,-7.795071602E-1,5.171887875E-1,-5.059814453E-2
2.070621297E1,-4.123163819E-1,7.612657547E-2,1.182441711E-1
2.072410872E1,-8.059316874E-1,-1.923084259E-1,-3.236103058E-2
2.074199538E1,-7.001265883E-1,-3.600385189E-1,-1.222867966E-1
2.075990065E1,-9.052928686E-1,-3.252301216E-1,-2.366199493E-1
2.077779659E1,-8.030322790E-1,-3.833985329E-2,2.833642960E-1
2.079569246E1,-9.920973778E-1,-1.378531456E-1,-3.173780441E-1
2.081358840E1,-7.621557117E-1,-7.281970978E-2,2.853765488E-1
2.083147810E1,-9.961123466E-1,-1.568832397E-1,-8.591299057E-1
2.084937746E1,-7.131497264E-1,6.958937645E-2,5.120086670E-1
2.086727614E1,-1.058191538E0,-3.654325008E-1,-7.391443253E-1
2.088517214E1,-5.124010444E-1,1.401209831E-1,7.245321274E-1
2.090306807E1,-1.034254551E0,-2.527251244E-1,-3.646459579E-1
2.092096388E1,-6.653344035E-1,-1.118156910E-1,5.879144669E-1
2.093886012E1,-1.102936506E0,-2.032074928E-1,-4.812660217E-1
2.095675618E1,-8.655235171E-1,2.197046280E-1,6.681432724E-1
2.097465193E1,-1.033388615E0,-2.722384930E-1,-4.717340469E-1
2.099254768E1,-9.611474276E-1,-2.903151512E-2,7.222929001E-1
2.101043172E1,-8.978948593E-1,-2.096850872E-1,2.174816132E-1
2.102833919E1,-9.348469973E-1,-5.417823792E-1,1.289558411E-2
2.104623537E1,-1.165588856E0,-2.444689274E-1,-3.942527771E-1
2.106413142E1,-9.305591583E-1,-3.267717361E-1,7.173776627E-1
2.108203163E1,-1.481323957E0,-1.956665516E-1,1.198434830E-1
2.109992336E1,-1.521129966E0,-3.149509430E-1,4.087266922E-1
2.111780489E1,-1.712140441E0,-5.001471043E-1,-1.443681717E-1
2.113571510E1,-1.381421685E0,1.722242832E-1,8.138141632E-1
2.115361141E1,-1.486608267E0,-2.192261219E-1,-2.795162201E-1
2.117149489E1,-1.164439440E0,-4.280188084E-1,5.871381760E-1
2.118940010E1,-1.287986994E0,-2.340576649E-1,-7.206716537E-1
2.120729909E1,-1.254036546E0,-2.731461525E-1,5.007333755E-1
2.122519490E1,-1.386828661E0,6.186103821E-2,2.460927963E-1
2.124307539E1,-1.383968830E0,-1.114311218E-1,7.201290131E-2
2.126098640E1,-1.419430494E0,-1.196846962E-1,-4.126262665E-1
2.127888258E1,-1.523771644E0,2.982997894E-2,-3.326139450E-1
2.129677864E1,-1.125676513E0,-2.229933739E-1,3.990411758E-1
2.131465651E1,-7.200256586E-1,3.228712082E-2,-4.100599289E-1
2.133257039E1,-5.621166825E-1,-2.572526932E-1,-5.866613388E-1
2.135045137E1,-7.613040209E-1,-3.285136223E-1,-5.885896683E-1
2.136836263E1,-1.070280313E0,5.661368370E-2,-4.929113388E-1
2.138625801E1,-1.405949593E0,-4.703278542E-1,-4.000825882E-1
2.140415407E1,-1.634383082E0,-1.846854687E-1,-8.319778442E-1
2.142205006E1,-1.805286646E0,-4.641237259E-1,1.219406128E-1
2.143994612E1,-1.958055377E0,4.657983780E-2,-4.643583298E-1
2.145784175E1,-1.691052437E0,1.109902859E-1,8.213844299E-1
2.147573811E1,-1.646103740E0,-5.054402351E-2,-6.760463715E-1
2.149363380E1,-1.194441557E0,3.627014160E-1,-4.609174728E-1
2.151151985E1,-1.316041231E0,-1.942496300E-1,-2.939167023E-1
2.152942690E1,-1.808281422E0,1.264002323E-1,-6.938066483E-1
2.154732600E1,-1.295352101E0,2.159192562E-1,2.540235519E-1
2.156521755E1,-1.791272879E0,-4.618089199E-1,-9.477529526E-1
2.158311195E1,-1.964569330E0,3.134238720E-1,-4.077816010E-2
2.160100929E1,-1.111954212E0,1.122069359E-1,-1.546039581E-1
2.161890529E1,-1.136428118E0,-1.066462994E-1,-7.027177811E-1
2.163680422E1,-1.440271378E0,-8.921885490E-2,-3.481674194E-2
2.165469728E1,-1.812348604E0,-5.758602619E-1,-5.380086899E-1
2.167259303E1,-2.022586823E0,1.953768730E-2,7.232179642E-1
2.169047768E1,-2.223415375E0,-3.517627716E-2,-1.727075577E-1
2.170838509E1,-2.094466209E0,3.026604652E-2,5.449171066E-1
2.172626882E1,-1.854957342E0,2.246186733E-1,3.102254868E-1
2.174417677E1,-1.582722902E0,-3.356146812E-2,-1.410779953E-1
2.176207277E1,-1.511487126E0,3.395080566E-3,2.099790573E-1
2.177996877E1,-1.221420646E0,4.929423332E-2,-3.464546204E-1
2.179786458E1,-1.194427371E0,-2.571392059E-2,2.007122040E-1
2.181576058E1,-1.583651781E0,4.439210892E-2,-7.300548553E-1
2.183365657E1,-1.500667095E0,-2.131044865E-1,-1.215162277E-1
2.185154750E1,-1.749341130E0,-7.960438728E-2,-6.106691360E-1
2.186944832E1,-1.715588093E0,3.843517303E-1,6.987781525E-1
2.188734566E1,-1.626600266E0,8.004856110E-2,1.793384552E-2
2.190524007E1,-1.500495315E0,1.060378551E-1,-1.633796692E-1
2.192313631E1,-1.395049334E0,-3.768272400E-1,-2.275333405E-1
2.194103652E1,-9.807506800E-1,4.557490349E-2,-6.250953674E-2
2.195892799E1,-1.544460297E0,-3.761434555E-2,-1.127478600E0
2.197682405E1,-1.116637826E0,9.315919876E-2,4.988985062E-1
2.199471974E1,-1.678925753E0,2.379562855E-1,-5.698871613E-1
2.201261562E1,-1.449122906E0,3.835160732E-1,4.081449509E-1
2.203049959E1,-1.631800294E0,-1.248044968E-1,-5.404243469E-1
2.204841048E1,-1.437683821E0,-2.475266457E-1,-2.745504379E-1
2.206630330E1,-1.519611001E0,-9.445142746E-2,-2.751903534E-1
2.208418733E1,-1.508978367E0,1.747264862E-1,3.366603851E-1
2.210209523E1,-2.026084185E0,-1.612727642E-1,-2.058649063E-1
2.211998915E1,-1.779754162E0,1.144490242E-1,1.865434647E-1
2.213789046E1,-1.526948452E0,2.665665150E-1,4.740648270E-1
2.215578328E1,-1.698669076E0,1.877524853E-1,-1.228082657E0
2.217367897E1,-1.286021233E0,-2.362012863E-2,-2.985334396E-1
2.219156288E1,-1.796692133E0,9.173345566E-2,-1.414184570E-1
2.220947096E1,-1.717380643E0,-3.096482754E-1,3.972644806E-1
2.222736708E1,-1.865525365E0,1.204466820E-2,4.049091339E-1
2.224526271E1,-1.821570158E0,1.517260075E-1,2.349929810E-1
2.226315846E1,-1.672643900E0,4.782104492E-2,-1.671304703E-1
2.228105446E1,-1.746480227E0,1.515669823E-1,-3.694410324E-1
2.229893819E1,-1.629555821E0,1.339631081E-1,-4.692754745E-1
2.231684645E1,-1.104466915E0,4.185097218E-1,5.206918716E-1
2.233474245E1,-1.578700304E0,2.013955116E-1,-2.082881927E-1
2.235263820E1,-1.363198280E0,-3.803651333E-1,-5.782804489E-1
2.237052217E1,-1.126651287E0,-2.406868935E-1,-1.006384850E0
2.238843031E1,-1.701219320E0,4.358510971E-1,8.774738312E-1
2.240632600E1,-1.564521790E0,-3.103785515E-1,-7.744836807E-1
2.242422524E1,-9.247535467E-1,1.128827810E0,8.288917542E-1
2.244212062E1,-1.627806067E0,-3.348488808E-1,-1.134757042E0
2.246001393E1,-9.130331874E-1,7.200956345E-2,-8.925266266E-1
2.247790993E1,-1.305493951E0,1.460316181E-1,-5.642795563E-1
2.249580544E1,-1.018213034E0,1.325128078E-1,2.949848175E-1
2.251370479E1,-1.444389343E0,-2.451632023E-1,-1.145914078E0
2.253158559E1,-1.185694098E0,-9.354829788E-3,-5.206727982E-1
2.254949349E1,-1.445030928E0,1.455864906E-1,-6.028928757E-1
2.256738948E1,-1.581612468E0,1.304063797E-1,2.264032364E-1
2.258528523E1,-1.782691598E0,1.489412785E-1,-5.947561264E-1
2.260318117E1,-1.474485278E0,3.847229481E-1,6.988248825E-1
2.262106258E1,-1.979498982E0,-2.485003471E-1,-1.029129028E0
2.263897615E1,-1.440987110E0,-6.603288651E-2,-4.885482788E-2
2.265686903E1,-1.561490417E0,3.950152397E-1,8.993339539E-2
2.267476497E1,-1.666698217E0,-3.954188824E-1,-7.749300003E-1
2.269266103E1,-1.337885380E0,-6.944251060E-2,-2.714147568E-1
2.271054500E1,-1.372962117E0,2.812800407E-1,4.651927948E-2
2.272845296E1,-1.709130287E0,1.598668098E-2,-5.303316116E-1
2.274634846E1,-1.786368728E0,-1.662707329E-2,-7.069110870E-2
2.276424440E1,-1.768218160E0,3.550269604E-1,4.926786423E-1
2.278214040E1,-1.460067272E0,-1.286220551E-2,-1.940002441E-1
2.280003621E1,-1.162221193E0,2.168376446E-1,6.397151947E-2
2.281793208E1,-1.525983095E0,-9.881019592E-3,1.378593445E-1
2.283582698E1,-1.634787560E0,1.453471184E-2,-4.779195786E-1
2.285372389E1,-1.736647725E0,2.745513916E-1,2.978515625E-1
2.287160841E1,-2.007819414E0,3.603572845E-1,-1.111135483E-1
2.288951601E1,-1.533946276E0,5.133104324E-1,2.112312317E-1
2.290741200E1,-1.824241281E0,-3.268909454E-2,-6.634321213E-1
2.292530629E1,-1.328792810E0,4.250211716E-1,1.773128510E-1
2.294320357E1,-1.248205304E0,2.587745190E-1,-5.683164597E-1
2.296109944E1,-1.246769547E0,5.043768883E-2,3.223609924E-2
2.297899556E1,-1.248373032E0,4.430918694E-1,3.623008728E-2
2.299689137E1,-1.778140664E0,-8.890390396E-3,-3.135519028E-1
2.301478749E1,-1.673016191E0,2.252769470E-1,7.774734497E-2
2.303268318E1,-1.939789653E0,1.733341217E-1,1.364192963E-1
2.305057912E1,-1.673903823E0,2.371580601E-1,1.576557159E-1
2.306847517E1,-1.608342052E0,1.251673698E-1,-2.854328156E-1
2.308637117E1,-1.500422955E0,2.144875526E-1,8.215045929E-2
2.310426692E1,-1.481711268E0,-1.724505424E-2,-3.042802811E-1
2.312214821E1,-1.472433805E0,4.416704178E-2,-1.095628738E-1
2.314005879E1,-1.940550327E0,1.790196896E-1,-6.241884232E-1
2.315795467E1,-1.884339690E0,2.310643196E-1,-8.953094482E-3
2.317585066E1,-2.156850576E0,7.034897804E-2,1.125612259E-1
2.319374660E1,-1.975562215E0,6.843280792E-2,1.037721634E-1
2.321163033E1,-1.829125047E0,7.740640640E-2,-2.416248322E-1
2.322953865E1,-1.676258802E0,6.958580017E-2,-3.153162003E-1
2.324743434E1,-1.505358458E0,2.152311802E-1,1.784677505E-1
2.326533034E1,-1.556365967E0,-8.811330795E-2,-4.008178711E-1
2.328322609E1,-2.010418415E0,1.132757664E-1,-1.235573769E0
2.330111903E1,-2.085691452E0,-7.895708084E-2,-2.882556915E-1
2.331901552E1,-2.207358599E0,5.693769455E-2,-1.343936920E-1
2.333691383E1,-2.120548487E0,3.994143009E-1,5.008134842E-1
2.335480983E1,-2.187055588E0,-2.298176289E-1,-1.001168251E0
2.337270570E1,-2.260304928E0,-1.949622631E-1,-2.474870682E-1
2.339060188E1,-2.215270996E0,-1.781678200E-2,-3.629999161E-1
2.340850124E1,-2.050122023E0,1.895771027E-1,-5.844173431E-1
2.342639339E1,-2.470073223E0,1.021203995E-1,-8.684997559E-1
2.344428957E1,-2.044175625E0,1.300523281E-1,-2.872648239E-1
2.346218556E1,-2.238797665E0,1.137328148E-2,-9.921646118E-1
2.348008138E1,-2.005359411E0,3.515701294E-1,-3.967008591E-1
2.349797731E1,-2.111918211E0,-3.086614609E-2,-7.620897293E-1
2.351587312E1,-2.052682400E0,6.408884525E-1,-2.205514908E-1
2.353376882E1,-2.088323116E0,-6.453466415E-2,-4.958257675E-1
2.355166780E1,-2.106638432E0,-2.927494049E-2,-9.934864044E-1
2.356956087E1,-2.529409885E0,1.156198978E-1,-1.449375153E0
2.358745692E1,-2.380150080E0,3.431632519E-1,8.492565155E-2
2.360535262E1,-2.442798853E0,4.047768116E-1,-5.633649826E-1
2.362323396E1,-2.371491432E0,2.603120804E-1,-1.928358078E-1
2.364114430E1,-2.211041451E0,2.276687622E-1,-5.725774765E-1
2.365904048E1,-2.598862171E0,1.157970428E-1,-9.394559860E-1
2.367693642E1,-2.255636930E0,8.396434784E-2,-1.461591721E-1
2.369482924E1,-2.179793119E0,-1.708757877E-1,-8.082151413E-1
2.371272835E1,-2.271932602E0,4.373228550E-1,-6.916999817E-1
2.373062434E1,-2.151360750E0,-4.041194916E-3,-8.799619675E-1
2.374852016E1,-2.451220274E0,1.665303707E-1,-1.267385483E-1
2.376640413E1,-2.155858517E0,6.278705597E-1,-8.578300476E-3
2.378430006E1,-2.333239794E0,6.865024567E-3,-3.616895676E-1
2.380219618E1,-2.066038609E0,6.088240147E-1,-1.158943176E-1
2.382009267E1,-2.347366810E0,1.149344444E-2,-3.745460510E-1
2.383799947E1,-2.383416414E0,-1.285166740E-1,-3.980617523E-1
2.385589552E1,-2.212505341E0,6.824731827E-1,3.502264023E-1
2.387378798E1,-2.330542326E0,-2.487304211E-1,-1.032367706E0
2.389168727E1,-2.050502777E0,6.419012547E-1,5.226640701E-1
2.390958333E1,-2.359490871E0,-2.448797226E-2,-3.478174210E-1
2.392747932E1,-2.135745525E0,2.259001732E-1,-3.812923431E-1
2.394537514E1,-1.852042675E0,4.962680340E-1,-1.581192017E-1
2.396327101E1,-1.921329379E0,-2.105782032E-1,-1.080616951E0
2.398116689E1,-2.004142284E0,2.901711464E-1,4.078779221E-1
2.399905989E1,-2.371336937E0,8.071994781E-2,-5.990409851E-1
2.401696224E1,-2.353903294E0,-6.183743477E-2,-6.879062653E-1
2.403485475E1,-2.106720209E0,6.297540665E-1,-2.241411209E-1
2.405275056E1,-2.485372066E0,-3.225510120E-1,-7.757434845E-1
2.407064955E1,-1.875594258E0,3.586101532E-2,-2.501487732E-3
2.408854256E1,-2.155651331E0,1.210181713E-1,-7.165946960E-1
2.410643825E1,-1.816015124E0,3.533315659E-1,-3.838243484E-1
2.412431966E1,-1.978274703E0,2.304744720E-1,-4.894361496E-1
2.414223024E1,-1.939049721E0,2.113440037E-1,-6.498270035E-1
2.416012648E1,-2.030553818E0,2.325444221E-1,-1.408345222E0
2.417802345E1,-1.729227543E0,6.500191689E-1,6.155776978E-2
2.419591896E1,-1.920372725E0,3.949828148E-1,-6.466550827E-1
2.421381398E1,-1.640707731E0,3.969922066E-1,1.881599426E-2
2.423170979E1,-1.595725298E0,2.032384872E-1,-8.686609268E-1
2.424960274E1,-1.542980194E0,4.270243645E-2,-4.872150421E-1
2.426749880E1,-1.842563152E0,-2.584052086E-1,-8.508119583E-1
2.428539748E1,-1.940162182E0,4.026775360E-1,8.181285858E-2
2.430329323E1,-2.182935953E0,-1.383140087E-1,-8.805189133E-1
2.432118892E1,-2.189555645E0,3.462519646E-1,1.246986389E-1
2.433907423E1,-2.035543680E0,3.820848465E-2,-4.183263779E-1
2.435697108E1,-1.817070127E0,1.903803349E-1,-5.648059845E-1
2.437487727E1,-1.562978864E0,4.314301014E-1,-1.848325729E-1
2.439277297E1,-1.791478872E0,3.409147263E-3,-3.344202042E-1
2.441066896E1,-2.021301985E0,1.774230003E-1,-1.827049255E-2
2.442856502E1,-2.115275383E0,2.353260517E-1,-5.461616516E-1
2.444646071E1,-2.422482729E0,-1.399285793E-1,-2.921380997E-1
2.446435670E1,-2.484897614E0,4.249565601E-1,5.023059845E-1
2.448225246E1,-2.412512541E0,2.219069004E-1,1.262235641E-1
2.450014851E1,-2.647987127E0,-1.189811230E-1,-3.473205566E-1
2.451804439E1,-2.285713196E0,2.927229404E-1,7.900915146E-1
2.453594051E1,-2.314572334E0,1.352493763E-1,5.591869354E-2
2.455383632E1,-2.280895710E0,1.787295341E-1,9.279346466E-2
2.457173195E1,-2.356321573E0,2.825906277E-1,-3.435201645E-1
2.458962794E1,-2.284946442E0,3.523962498E-1,1.575374603E-1
2.460752419E1,-2.328501463E0,1.020653248E-1,9.651660919E-2
2.462541091E1,-2.183401346E0,-2.195160389E-1,-3.742866516E-1
2.464331593E1,-1.662448406E0,4.332458973E-1,-3.518371582E-1
2.466121175E1,-1.943905950E0,1.912305355E-1,1.839704514E-1
2.467910768E1,-1.781944036E0,2.275640965E-1,2.595596313E-1
2.469700673E1,-1.728969932E0,4.490911961E-1,7.700920105E-2
2.471489943E1,-1.875881672E0,6.399679184E-2,-2.712907791E-1
2.473279543E1,-1.935150862E0,4.230022430E-2,-2.119407654E-1
2.475068776E1,-1.881941915E0,5.195820332E-1,1.594676971E-1
2.476858717E1,-2.072450161E0,5.762362480E-2,-1.402330399E-1
2.478648293E1,-1.790776134E0,3.226511478E-1,-3.733539581E-2
2.480437917E1,-1.678975582E0,3.745746613E-2,-4.949426651E-1
2.482225917E1,-1.876129389E0,2.573854923E-1,3.609962463E-1
2.484017091E1,-2.005108595E0,2.358765602E-1,-5.009088516E-1
2.485806484E1,-1.858999491E0,4.520032406E-1,2.705307007E-1
2.487596297E1,-2.271357298E0,6.407132149E-1,4.534816742E-2
2.489385848E1,-2.277583122E0,-1.971132755E-1,-6.328020096E-1
2.491175465E1,-2.132962227E0,-2.039322853E-1,-5.757017136E-1
2.492965071E1,-2.191923380E0,2.203476429E-1,6.696329117E-1
2.494754628E1,-2.509928703E0,-3.577971458E-1,-4.387102127E-1
2.496544222E1,-2.363015890E0,-2.456068993E-2,-1.900310516E-1
2.498333809E1,-2.473895311E0,3.046925068E-1,2.659130096E-2
2.500123396E1,-2.533087492E0,-2.621409893E-1,-7.405023575E-1
2.501913026E1,-2.030744553E0,3.217816353E-1,-2.887001038E-1
2.503702992E1,-2.396134138E0,6.320381165E-2,-9.723148346E-1
2.505492171E1,-2.001117706E0,1.939456463E-1,-3.981304169E-1
2.507281764E1,-2.155713558E0,2.517838478E-1,-2.749309540E-1
2.509071388E1,-2.160373211E0,-6.164336205E-2,-4.640722275E-1
2.510860970E1,-2.524534941E0,2.594342232E-1,-7.739038467E-1
2.512649666E1,-2.789590359E0,2.544155121E-1,-1.621437073E-1
2.514440138E1,-2.534319401E0,1.846930981E-1,2.393159866E-1
2.516229744E1,-2.662721872E0,4.717357159E-1,-5.719099045E-1
2.518019307E1,-2.525063753E0,-3.896303177E-1,-1.229125023E0
2.519809200E1,-2.313468933E0,2.653338909E-1,1.635246277E-1
2.521598256E1,-2.478546619E0,-4.918169975E-2,-9.401292801E-1
2.523388112E1,-2.308086157E0,8.807754517E-2,-6.533546448E-1
2.525177687E1,-2.632095814E0,2.647933960E-1,-2.680015564E-1
2.526967287E1,-2.587063789E0,4.707281590E-1,-3.506660461E-3
2.528756844E1,-2.536449194E0,-4.174947739E-2,-1.367228508E0
2.530545259E1,-2.601547003E0,-5.486345291E-2,-5.866584778E-1
2.532336067E1,-2.537749290E0,-7.782649994E-2,-5.624465942E-1
2.534125331E1,-2.211168289E0,5.357561111E-1,-1.266527176E-1
2.535915230E1,-2.415720463E0,-1.680772305E-1,-7.801275253E-1
2.537705147E1,-2.172026634E0,4.289684296E-1,-3.002119064E-1
2.539494435E1,-2.190814257E0,2.599236965E-1,-4.099254608E-1
2.541283992E1,-2.204735279E0,1.865954399E-1,-7.824974060E-1
2.543073616E1,-2.467527390E0,2.618834972E-1,-2.973814011E-1
2.544863210E1,-2.642579794E0,-3.050613403E-1,-7.895793915E-1
2.546652760E1,-2.144915104E0,-2.884650230E-2,-1.361684799E-1
2.548442366E1,-2.168477058E0,-4.363036156E-2,-6.222820282E-1
2.550231984E1,-2.394258738E0,9.202623367E-2,-2.619342804E-1
2.552021571E1,-2.221252918E0,6.487035751E-1,-3.345212936E-1
2.553810994E1,-2.617773056E0,1.088715553E0,5.270996094E-1
2.555600740E1,-3.003345728E0,-1.909534931E-1,-1.639566422E-1
2.557390340E1,-2.677521467E0,3.973004818E-1,4.705257416E-1
2.559179726E1,-2.437186241E0,2.422428131E-2,1.325225830E-1
2.560969508E1,-1.877109766E0,5.839388371E-1,-3.254594803E-1
2.562759407E1,-1.932401180E0,5.518674850E-3,-3.252458572E-1
2.564548689E1,-1.680483818E0,-1.588776112E-1,-2.055511475E-1
2.566338283E1,-1.680205464E0,3.576111794E-1,6.772041321E-3
2.568127858E1,-1.792691946E0,1.399221420E-1,1.884050369E-1
2.569917458E1,-1.704975009E0,2.760457993E-1,4.499540329E-1
2.571707405E1,-1.738798618E0,2.488629818E-1,2.230482101E-1
2.573496663E1,-1.471010327E0,1.674056053E-1,1.386089325E-1
2.575286232E1,-1.531207561E0,2.877337933E-1,3.357954025E-1
2.577075832E1,-1.683757544E0,1.620388031E-2,1.728019714E-1
2.578865444E1,-1.550688028E0,4.444620609E-1,4.362745285E-1
2.580655007E1,-1.807081699E0,4.789266586E-1,4.406738281E-2
2.582444606E1,-1.831574678E0,3.150844574E-2,4.888048172E-1
2.584234370E1,-1.802495956E0,3.265161514E-1,-8.510398865E-2
2.586023531E1,-1.561044574E0,4.931826591E-1,5.477333069E-1
2.587813344E1,-1.352091312E0,6.715726852E-2,-1.228046417E-1
2.589602986E1,-1.281491637E0,3.080611229E-1,-7.394504547E-2
2.591392561E1,-1.345979691E0,-4.533290863E-3,-5.334825516E-1
2.593182430E1,-1.411392450E0,2.734136581E-1,-1.959047318E-1
2.594971736E1,-1.570830822E0,9.175896645E-2,-7.370185852E-2
2.596761354E1,-1.556075215E0,4.129624367E-2,-5.917930603E-1
2.598550911E1,-1.826254129E0,6.658053398E-2,-5.701885223E-1
2.600340517E1,-1.607016325E0,6.394386292E-2,-2.113800049E-1
2.602130110E1,-1.851325035E0,1.536536217E-2,-2.743368149E-1
2.603920033E1,-1.700433731E0,-7.943630219E-3,-8.998966217E-2
2.605709608E1,-1.744181156E0,-6.180524826E-3,-1.005373001E-1
2.607498879E1,-1.710306168E0,1.669499874E-1,-4.393911362E-1
2.609287105E1,-1.869365573E0,-3.226580620E-1,-9.059753418E-1
2.611078084E1,-1.753389120E0,2.878570557E-1,2.951049805E-2
2.612867952E1,-1.788880348E0,-7.705879211E-2,-8.290128708E-1
2.614657228E1,-1.604839444E0,1.033256054E-1,-1.826477051E-1
2.616446852E1,-1.720781803E0,-1.810939312E-1,-8.476972580E-1
2.618236452E1,-1.754637003E0,-8.557820320E-2,-7.301044464E-1
2.620026521E1,-1.854089379E0,-2.589058876E-2,-2.130260468E-1
2.621815346E1,-1.743587494E0,5.799269676E-2,-3.407058716E-1
2.623605232E1,-1.816275954E0,2.911295891E-1,-4.045524597E-1
2.625394808E1,-1.571417093E0,1.802380085E-1,-4.520654678E-1
2.627184383E1,-1.522270679E0,-5.143547058E-2,-3.302917480E-1
2.628973982E1,-1.722935677E0,2.241320610E-1,-4.435691833E-1
2.630763588E1,-1.539653063E0,4.512248039E-1,5.804309845E-1
2.632553151E1,-1.871087670E0,3.383426666E-1,8.090620041E-1
2.634342726E1,-1.947506666E0,2.115654945E-2,-5.229511261E-1
2.636132332E1,-1.895217538E0,1.650359631E-1,2.798194885E-1
2.637922243E1,-2.019467115E0,1.804621220E-1,3.730840683E-1
2.639711848E1,-2.019942999E0,-4.748535156E-2,1.472349167E-1
2.641501131E1,-1.845394731E0,-5.512785912E-2,2.407073975E-3
2.643290700E1,-1.902647138E0,2.034554482E-1,8.395919800E-1
2.645080293E1,-2.172893047E0,3.393578529E-2,-1.944084167E-1
2.646869673E1,-1.884974599E0,2.361888885E-1,5.641374588E-1
2.648659456E1,-2.059485674E0,-3.187792301E-1,-7.048339844E-1
2.650449074E1,-1.913586736E0,4.499664307E-1,2.866287231E-1
2.652238649E1,-2.149812698E0,1.956269741E-1,3.496713638E-1
2.654027022E1,-2.071516752E0,1.335129738E-1,-3.378639221E-1
2.655818019E1,-1.999583960E0,1.274604797E-1,-6.930932999E-1
2.657607454E1,-1.973091364E0,3.793857098E-1,6.085538864E-1
2.659397029E1,-2.294409513E0,-3.131127357E-2,-1.250591278E-1
2.661186311E1,-2.034285545E0,3.824946880E-1,5.977630615E-2
2.662976198E1,-2.333905697E0,-7.412679195E-1,-1.487247467E0
2.664765804E1,-1.876290321E0,7.798418999E-1,4.137363434E-1
2.666555373E1,-2.175854921E0,-4.081423283E-1,-6.666193008E-1
2.668344972E1,-1.578408241E0,2.800915241E-1,-1.432371140E-1
2.670134578E1,-2.269884348E0,3.529427052E-1,3.327274323E-2
2.671924172E1,-1.680449963E0,1.551103592E-2,6.898975372E-2
2.673714052E1,-1.756380439E0,4.134404659E-1,1.841545105E-2
2.675502956E1,-2.092752695E0,-2.863817215E-1,-8.215732574E-1
2.677292922E1,-1.924312830E0,8.463859558E-2,-4.641866684E-1
2.679082527E1,-2.070782185E0,4.214382172E-2,9.648609161E-2
2.680872426E1,-2.046633244E0,7.454299927E-2,-7.883777618E-1
2.682661672E1,-1.710970879E0,-1.383111477E-1,1.046447754E-1
2.684451302E1,-1.834647059E0,2.432560921E-2,-5.170907974E-1
2.686240852E1,-1.523123145E0,5.948264599E-1,3.685827255E-1
2.688028688E1,-1.679193497E0,-4.193005562E-1,-8.895130157E-1
2.689820155E1,-1.573673606E0,3.281521797E-1,3.186569214E-1
2.691609670E1,-1.831401825E0,-3.486073017E-1,-1.022349358E0
2.693399245E1,-1.465968490E0,-3.433704376E-3,1.965217590E-1
2.695188820E1,-1.803089380E0,-1.215827465E-1,-4.115028381E-1
2.696977223E1,-1.388901949E0,4.618489742E-1,5.038118362E-1
2.698767732E1,-1.422182560E0,-3.441350460E-1,-8.225603104E-1
2.700556282E1,-1.218627691E0,3.852164745E-1,2.739744186E-1
2.702346065E1,-1.356679797E0,-1.118967533E-1,-9.274387360E-1
2.704135530E1,-1.372999907E0,9.542441368E-2,-3.786182404E-1
2.705925594E1,-1.350332260E0,4.356780052E-1,2.723579407E-1
2.707716261E1,-1.191990972E0,2.359366417E-1,-1.510868073E-1
2.709505574E1,-1.268674374E0,5.153322220E-2,-2.174301147E-1
2.711293733E1,-1.402958632E0,2.694478035E-1,4.548416138E-1
2.713084743E1,-1.311011791E0,5.258047581E-1,6.207332611E-1
2.714874342E1,-1.603562951E0,2.706241608E-2,-7.933616638E-3
2.716663924E1,-1.605201840E0,1.133916378E-1,1.947374344E-1
2.718453517E1,-1.416819096E0,4.328954220E-1,4.179754257E-1
2.720243245E1,-1.725181103E0,-1.432895660E-4,9.864997864E-2
2.722032619E1,-1.560755491E0,3.583712578E-1,5.257148743E-1
2.723822298E1,-1.709056377E0,-1.137599945E-1,1.415338516E-1
2.725611873E1,-1.502409458E0,3.171362877E-1,6.954898834E-1
2.727401485E1,-1.795607924E0,1.967942715E-1,-2.013807297E-1
2.729190169E1,-1.902182102E0,-3.067276478E-1,2.069473267E-4
2.730980647E1,-1.713741899E0,-2.818536758E-2,3.666400909E-1
2.732770241E1,-1.629047275E0,1.436958313E-1,-2.806062698E-1
2.734559816E1,-1.667113066E0,-5.315279961E-2,-8.512687683E-2
2.736348134E1,-1.857360125E0,-1.244876385E-1,-8.403301239E-2
2.738138997E1,-1.840252519E0,-2.627894878E-1,-2.215776443E-1
2.739928615E1,-1.752148867E0,1.209578514E-1,-1.696586609E-2
2.741718495E1,-1.820019722E0,-8.976864815E-2,-1.319723129E-1
2.743507765E1,-1.758379698E0,-1.542472839E-2,-3.889017105E-1
2.745295851E1,-1.771515727E0,-6.846976280E-2,-1.317834854E-1
2.747086971E1,-1.918919444E0,-7.472705841E-2,-8.602695465E-1
2.748876460E1,-1.906997442E0,3.204846382E-2,6.996326447E-1
2.750666139E1,-1.836186290E0,-1.335999966E-1,-3.019895554E-1
2.752455745E1,-1.830277324E0,-7.565546036E-2,2.881278992E-1
2.754245027E1,-1.992749214E0,-3.773169518E-1,-7.654218674E-1
2.756033693E1,-1.958278060E0,1.640458107E-1,-3.065690994E-1
2.757824715E1,-2.145035505E0,2.644491196E-2,-8.642864227E-2
2.759614119E1,-1.995024323E0,1.093487740E-1,2.109718323E-1
2.761402223E1,-1.970782042E0,3.047742844E-1,-3.020629883E-1
2.763192098E1,-1.954258680E0,1.756863594E-1,-4.176025391E-1
2.764982863E1,-1.819188476E0,-1.226799488E-1,-1.423320770E-1
2.766772475E1,-1.748248816E0,-6.439208984E-3,-2.275047302E-1
2.768562062E1,-1.855209947E0,-3.204197884E-1,-1.021122932E0
2.770351936E1,-1.937844157E0,1.357648373E-1,5.656242371E-3
2.772141219E1,-1.963343501E0,-1.761286259E-1,-7.954835892E-1
2.773929591E1,-1.810516000E0,-3.113460541E-2,-5.795011520E-1
2.775720699E1,-1.708274961E0,3.155565262E-2,-7.293071747E-1
2.777510024E1,-1.627766967E0,2.403984070E-1,-1.157274246E-1
2.779299586E1,-1.779142022E0,-3.525156975E-1,-1.114820480E0
2.781089186E1,-1.636267424E0,1.456251144E-1,-4.061594009E-1
2.782879231E1,-1.782323599E0,-3.715229034E-2,-8.886871338E-1
2.784668336E1,-1.611124516E0,1.616117954E-1,3.915557861E-1
2.786457936E1,-1.773654819E0,-7.019472122E-2,-5.271482468E-1
2.788247237E1,-1.489883780E0,-1.961357594E-1,-5.527925491E-1
2.790035933E1,-1.623108268E0,5.357336998E-2,6.185150146E-2
2.791826735E1,-1.824295163E0,-3.405714035E-2,-1.318359375E-1
2.793616310E1,-1.813907027E0,-3.292577267E-1,-7.097597122E-1
2.795405605E1,-1.727641702E0,3.628015518E-2,-7.584009171E-1
2.797195485E1,-1.856162190E0,2.956590652E-1,4.233827591E-1
2.798985323E1,-1.887132168E0,5.077838898E-3,-1.196441650E-1
2.800774684E1,-2.114379883E0,2.203717232E-1,3.728961945E-1
2.802564266E1,-1.710010052E0,3.115229607E-1,3.564453125E-1
2.804353865E1,-1.923371434E0,-4.699211121E-1,-1.004186630E0
2.806142116E1,-1.626725316E0,1.255383492E-1,2.861833572E-1
2.807933034E1,-1.622511029E0,3.050599098E-1,-1.782627106E-1
2.809722914E1,-2.004559755E0,-3.247401714E-1,-1.699562073E-1
2.811510750E1,-1.926258087E0,-2.450394630E-2,4.995460510E-1
2.813301814E1,-2.115098715E0,2.967596054E-2,-8.828716278E-1
2.815089851E1,-1.581280231E0,2.298266888E-1,1.150446892E0
2.816881007E1,-1.746573448E0,5.487062931E-1,3.873367310E-1
2.818670558E1,-1.439958572E0,4.842138290E-2,8.604049683E-2
2.820460182E1,-1.771564603E0,-4.818210602E-1,-7.774648666E-1
2.822249648E1,-1.838404775E0,7.602484226E-1,1.142528534E0
2.824038142E1,-1.883119583E0,-4.636278152E-1,-4.731941223E-1
2.825829231E1,-1.830692887E0,-4.367756844E-2,7.222614288E-1
2.827618538E1,-1.846507549E0,5.249469280E-1,9.553413391E-1
2.829408113E1,-2.098675728E0,1.727437973E-2,1.807527542E-1
2.831197713E1,-1.688839316E0,2.567391396E-1,5.200185776E-1
2.832987306E1,-1.301414967E0,-4.592707157E-1,-1.167820454E0
2.834776888E1,-1.178558230E0,8.229906559E-1,8.375759125E-1
2.836566463E1,-1.577863216E0,-6.499719620E-2,1.845598221E-1
2.838356056E1,-2.025457382E0,2.749600410E-1,-3.857173920E-1
2.840145888E1,-1.539555907E0,-7.122087479E-2,8.602657318E-1
2.841935231E1,-1.527036071E0,9.885282516E-1,4.751138687E-1
2.843723903E1,-1.267492771E0,-1.785144806E-1,-3.746967316E-1
2.845514430E1,-1.084144950E0,-4.818234444E-1,-1.171970367E-1
2.847304006E1,-1.575578332E0,5.233602524E-1,-2.055616379E-1
2.849093678E1,-2.335101128E0,-1.513826489E0,-9.363250732E-1
2.850883211E1,-1.130478859E0,2.052757740E-1,1.171883583E0
2.852672786E1,-2.100615025E0,3.761291504E-3,-7.383794785E-1
2.854462386E1,-1.459205627E0,-3.045494556E-1,-2.731990814E-1
2.856250740E1,-1.779508710E0,-6.582093239E-2,-1.751871109E-1
2.858040358E1,-1.317285061E0,-4.074239731E-2,-5.356225967E-1
2.859831447E1,-1.636404514E0,-1.381685734E-1,-7.737960815E-1
2.861619264E1,-1.697994471E0,-1.549322605E-1,3.576936722E-1
2.863410304E1,-2.046372890E0,-1.650238037E-1,-2.098827362E-1
2.865199904E1,-1.615798116E0,-1.480484009E-2,4.207115173E-1
2.866989504E1,-1.659506321E0,-2.954919338E-1,-5.153274536E-1
2.868779109E1,-1.474358320E0,-1.848549843E-1,-5.710773468E-1
2.870568684E1,-1.592440963E0,-3.873269558E-1,-9.742746353E-1
2.872358284E1,-1.692532778E0,2.825782299E-1,3.171863556E-1
2.874147853E1,-1.638339758E0,-1.647911072E-1,-1.482400894E-1
2.875937453E1,-1.929548264E0,-4.698374271E-1,-6.201791763E-1
2.877727352E1,-1.599497080E0,1.048088074E-1,6.002798080E-1
2.879516628E1,-1.826966643E0,-1.825418472E-1,-1.767969131E-1
2.881306209E1,-1.700976491E0,-3.550765514E-1,-1.193189621E-1
2.883095802E1,-1.577115059E0,-5.082094669E-1,-1.227744102E0
2.884885408E1,-1.847607493E0,-1.602406502E-1,-2.647342682E-1
2.886675172E1,-2.102044106E0,-2.683765888E-1,3.268814087E-2
2.888464711E1,-2.084050417E0,-2.469730377E-2,1.579265594E-1
2.890254182E1,-1.977036238E0,-4.297964573E-1,3.345184326E-1
2.892042561E1,-1.844448090E0,-7.275819778E-2,8.479309082E-2
2.893833638E1,-1.573361278E0,2.365205288E-1,3.725051880E-1
2.895622963E1,-1.589479923E0,-4.577488899E-1,-7.575101852E-1
2.897412526E1,-1.548314095E0,-5.862307549E-2,-1.059703827E-1
2.899202113E1,-1.682930231E0,2.519426346E-1,4.227428436E-1
2.900992000E1,-1.830202818E0,-3.735859394E-1,-5.099458694E-1
2.902781306E1,-1.359647274E0,-1.098742485E-1,1.682090759E-1
2.904569801E1,-9.271378517E-1,1.837987900E-1,2.618103027E-1
2.906360487E1,-1.225439548E0,-2.924280167E-1,-7.352800369E-1
2.908150069E1,-5.237617493E-1,-1.122689247E-1,-5.533370972E-1
2.909939680E1,-8.414075375E-1,-2.198123932E-2,-4.367752075E-1
2.911727882E1,-9.315838814E-1,8.830070496E-3,-4.718236923E-1
2.913517659E1,-9.370901585E-1,-2.505087852E-2,-1.399650574E-1
2.915308400E1,-5.955635309E-1,-6.308698654E-2,6.421279907E-2
2.917096779E1,-5.123486519E-1,-4.807639122E-2,-3.723754883E-1
2.918887605E1,-2.591918707E-1,-4.787163734E-1,-7.523345947E-2
2.920677174E1,-7.839870453E-2,-2.657825947E-1,-4.895496368E-1
2.922467311E1,-3.946450949E-1,-1.953120232E-1,-4.159002304E-1
2.924256130E1,-2.590041161E-1,-1.106233597E-1,1.240224838E-1
2.926044954E1,-6.479886770E-1,-4.473853111E-1,-1.750164032E-1
2.927835524E1,-4.746309519E-1,-1.865684986E-1,7.850742340E-1
2.929625148E1,-3.789472580E-1,-2.864108086E-1,9.195327759E-3
2.931414754E1,-2.695564032E-1,-6.568553448E-1,3.250408173E-1
2.933204305E1,3.144812584E-1,-4.879882336E-1,-1.534290314E-1
2.934993904E1,3.630493879E-1,-2.260036469E-1,-4.278545380E-1
2.936783351E1,9.338963032E-2,1.502437592E-1,8.999052048E-1
2.938573079E1,1.072345972E-1,-1.268544197E-1,4.443254471E-1
2.940362654E1,-1.897351742E-1,-7.315807343E-1,-4.189443588E-1
2.942152278E1,1.256384850E-1,8.518695831E-3,8.538694382E-1
2.943941847E1,3.743636608E-2,-3.553121090E-1,-8.473396301E-3
2.945731746E1,2.206003666E-2,-8.304860592E-1,-6.095657349E-1
2.947521047E1,1.168473959E-1,-4.632732868E-1,2.013235092E-1
2.949310628E1,5.230665207E-2,4.283308983E-2,1.934089661E-1
2.951100227E1,-1.523351669E-2,-6.147546768E-1,5.095577240E-2
2.952889772E1,1.462401152E-1,-3.613207340E-1,-1.318178177E-1
2.954679420E1,3.738652468E-1,-1.330329180E0,-4.678850174E-1
2.956467775E1,4.273215532E-1,-5.324065685E-1,8.265590668E-2
2.958258290E1,1.959652901E-1,-1.073938847E0,-5.701770782E-1
2.960048219E1,2.433706522E-1,-7.327966690E-1,7.414140701E-1
2.961836610E1,-4.797995090E-2,-5.534205437E-1,7.081031799E-3
2.963627321E1,3.420363665E-1,-1.019725084E0,-3.021717072E-1
2.965416945E1,4.608690739E-1,-8.442587852E-1,5.434894562E-1
2.967206508E1,5.419225693E-1,-5.618510246E-1,3.726968765E-1
2.968996101E1,4.728088379E-1,-1.750776291E0,-8.523836136E-1
2.970785719E1,7.236559391E-1,-8.002164364E-1,3.658046722E-1
2.972574440E1,3.309961557E-1,-6.576132774E-1,4.688730240E-1
2.974364870E1,1.236879826E-2,-1.249799252E0,-5.819816589E-1
2.976154469E1,5.359519720E-1,-5.338134766E-1,3.455018997E-1
2.977944045E1,3.504050970E-1,-1.002597094E0,1.561775208E-1
2.979733614E1,8.371651173E-1,-6.259140968E-1,5.363092422E-1
2.981522017E1,5.410418510E-1,-9.241640568E-1,-5.054283142E-1
2.983312831E1,8.070625067E-1,-7.373716831E-1,6.116123199E-1
2.985101296E1,5.028662682E-1,-1.057451487E0,1.446456909E-1
2.986892024E1,7.882133722E-1,-4.711558819E-1,1.151347160E0
2.988681575E1,8.499049544E-1,-9.677798748E-1,2.987756729E-1
2.990469972E1,1.231188059E0,-5.631375313E-1,9.284048080E-1
2.992260469E1,1.256013632E0,-1.051177502E0,2.214202881E-1
2.994050343E1,1.297086358E0,-1.167562723E0,-2.487611771E-1
2.995839864E1,1.448790550E0,-1.085493803E0,1.215251923E0
2.997629549E1,1.096176386E0,-9.733984470E-1,3.073329926E-1
2.999419148E1,1.282477379E0,-9.308764935E-1,9.468259811E-1
3.001208699E1,1.114067197E0,-1.394827008E0,4.636898041E-1
3.002998323E1,1.579928279E0,-1.017526150E0,8.414096832E-1
3.004788197E1,1.530325174E0,-1.604052067E0,1.136779785E-3
3.006577773E1,1.634829640E0,-1.370563984E0,5.788326263E-2
3.008367067E1,1.722259402E0,-1.112944365E0,6.530694962E-1
3.010156642E1,1.479961872E0,-1.222495317E0,-7.150745392E-2
3.011944771E1,1.683125854E0,-1.179483891E0,-6.679630280E-2
3.013734676E1,1.625332952E0,-8.362245560E-1,5.223522186E-1
3.015525417E1,1.830970168E0,-9.642851353E-1,6.215238571E-1
3.017315004E1,1.790974259E0,-1.151186228E0,-1.221494675E-1
3.019104622E1,1.850252032E0,-1.288689613E0,2.252435684E-1
3.020894173E1,2.034230471E0,-1.009136200E0,1.688947678E-1
3.022682594E1,1.965808988E0,-9.744775295E-1,3.232784271E-1
3.024472182E1,1.794956088E0,-9.428565502E-1,2.328405380E-1
3.026261775E1,2.057040215E0,-9.098372459E-1,6.675729752E-1
3.028051643E1,1.978527784E0,-9.484202862E-1,2.995538712E-1
3.029842122E1,1.915316343E0,-1.163692236E0,-6.635475159E-2
3.031631728E1,2.089940071E0,-1.047374964E0,2.909326553E-1
3.033420100E1,1.924061060E0,-1.181513429E0,9.771347046E-3
3.035210896E1,1.826263309E0,-1.210913181E0,1.316928864E-2
3.037000490E1,1.733430266E0,-7.013263702E-1,9.661550522E-1
3.038790096E1,2.011682034E0,-7.574925423E-1,8.852024078E-1
3.040579665E1,2.269822836E0,-1.138512135E0,3.368244171E-1
3.042369490E1,2.473291397E0,-6.656858921E-1,4.431095123E-1
3.044158864E1,2.654780388E0,-1.173874497E0,-2.258987427E-1
3.045948158E1,2.420677185E0,-1.065435648E0,3.028869629E-3
3.047738008E1,2.500789642E0,-9.764690399E-1,9.863767624E-1
3.049527644E1,2.518896341E0,-7.758882046E-1,5.208139420E-1
3.051317189E1,2.539908648E0,-6.623060703E-1,8.550348282E-1
3.053106795E1,2.801520348E0,-7.855775356E-1,5.549888611E-1
3.054896700E1,3.077167034E0,-1.013357401E0,-1.491079330E-1
3.056685964E1,2.787016869E0,-1.291505814E0,-1.991252899E-1
3.058475563E1,3.182550907E0,-1.194438338E0,1.234566689E0
3.060265138E1,2.730348110E0,-9.799859524E-1,9.435968399E-1
3.062053218E1,2.717401028E0,-6.008262634E-1,1.175787926E0
3.063844313E1,2.708460808E0,-1.197088003E0,-2.856378555E-1
3.065633913E1,2.850276470E0,-1.216992855E0,3.939485550E-1
3.067423641E1,2.971473932E0,-1.227207184E0,7.136287689E-1
3.069213088E1,3.109231234E0,-9.739861488E-1,3.363952637E-1
3.071002828E1,2.875273705E0,-7.167203426E-1,-1.823234558E-2
3.072792268E1,3.009671688E0,-1.025336504E0,-2.915182114E-1
3.074581838E1,3.088910103E0,-9.339911938E-1,-1.585397720E-1
3.076371437E1,2.926514626E0,-8.175685406E-1,1.074831009E0
3.078161037E1,2.721308947E0,-1.110709429E0,9.811687469E-2
3.079950636E1,3.345777988E0,-8.402323723E-1,1.074722290E0
3.081740212E1,2.720785618E0,-1.266519666E0,-6.912822723E-1
3.083529787E1,2.919182539E0,-1.343677282E0,4.360542297E-1
3.085319362E1,2.926817417E0,-1.031626463E0,1.672148705E0
3.087108986E1,2.311839819E0,-1.306367278E0,-3.740577698E-1
3.088898561E1,2.982345104E0,-4.341297150E-1,6.248464584E-1
3.090688142E1,2.804984093E0,-6.359276772E-1,3.493852615E-1
3.092477736E1,2.526620865E0,-1.007059216E0,-3.156204224E-1
3.094267036E1,3.152116299E0,-1.391677499E0,8.865995407E-1
3.096056911E1,2.935363054E0,-8.966336250E-1,1.236763000E-1
3.097846510E1,2.758224487E0,-1.354780793E0,-2.964763641E-1
3.099636116E1,2.710138798E0,-9.958581924E-1,5.813884735E-2
3.101425685E1,2.391148806E0,-3.281486034E-1,1.491655350E0
3.103215523E1,2.691394329E0,-4.238560200E-1,1.073727608E0
3.105004866E1,2.145080090E0,-7.037575245E-1,-3.452749252E-1
3.106794441E1,3.096221924E0,-9.761679173E-1,8.462514877E-1
3.108584023E1,2.894360542E0,-6.859900951E-1,3.742227554E-1
3.110373616E1,2.589413881E0,-9.137268066E-1,-4.479694366E-2
3.112162337E1,2.655404091E0,-6.567976475E-1,7.054948807E-1
3.113952803E1,2.164085150E0,-5.731546879E-1,8.156270981E-1
3.115742378E1,2.427695036E0,-9.411706924E-1,6.301832199E-1
3.117531984E1,2.557960272E0,-6.793274879E-1,4.825401306E-1
3.119321559E1,3.252985477E0,-9.956777096E-1,1.146563530E0
3.121111159E1,3.291220665E0,-5.936248302E-1,6.340694427E-1
3.122900734E1,3.222909689E0,-1.053925991E0,1.366472244E-1
3.124690334E1,3.043194771E0,-8.722352982E-1,1.355981827E-1
3.126479304E1,3.442211866E0,-1.033324957E0,8.720970154E-1
3.128269508E1,2.986581802E0,-7.955307961E-1,6.142406464E-1
3.130059084E1,2.992785454E0,-6.072118282E-1,2.101087570E-1
3.131848775E1,3.035879612E0,-8.425893784E-1,1.133657455E0
3.133638277E1,3.176578283E0,-4.232020378E-1,1.069984436E0
3.135427864E1,3.123329639E0,-8.267555237E-1,-5.161285400E-2
3.137216383E1,3.490138292E0,-6.704256535E-1,7.265787125E-1
3.139006343E1,3.026129246E0,-1.081199884E0,8.990192413E-2
3.140796632E1,3.019792557E0,-8.889548779E-1,4.068708420E-1
3.142586208E1,3.217235565E0,-7.073931694E-1,1.079748154E0
3.144375807E1,3.008745432E0,-6.432480812E-1,1.311798096E-1
3.146164235E1,3.176451683E0,-9.162639380E-1,1.174062729E0
3.147954976E1,2.820026875E0,-1.114797592E0,5.830335617E-1
3.149744576E1,3.351951122E0,-1.186683416E0,7.686920166E-1
3.151534157E1,3.018142223E0,-1.113384843E0,7.033100128E-1
3.153323732E1,3.434463024E0,-6.075263023E-1,5.723981857E-1
3.155113362E1,3.102081776E0,-8.275961876E-1,-1.396999359E-1
3.156902651E1,3.748946667E0,-6.775259972E-1,1.165687561E0
3.158692238E1,3.202188730E0,-1.113460422E0,-9.541940689E-1
3.160481154E1,3.956945896E0,-2.867791653E-1,6.406879425E-1
3.162271993E1,3.605126858E0,-1.018286943E0,2.877712250E-1
3.164061287E1,3.640263081E0,-1.618485451E-1,8.145952225E-1
3.165850996E1,3.522115707E0,-8.797678947E-1,-5.996999741E-1
3.167640090E1,3.654296875E0,-7.225384712E-1,8.029661179E-1
3.169430055E1,3.787813663E0,-8.915525675E-1,-1.636800766E-1
3.171219637E1,4.075365543E0,-5.073366165E-1,6.545209885E-1
3.173009230E1,3.936873436E0,-5.798435211E-1,-1.735181808E-1
3.174798805E1,3.912154913E0,-5.998890400E-1,-4.289245605E-2
3.176588387E1,4.918247223E0,-9.649734497E-1,2.889041901E-1
3.178377980E1,4.600739479E0,-1.019048691E-2,-1.251811981E-1
3.180167580E1,4.319623470E0,-1.143040895E0,-1.584348679E-1
3.181957155E1,4.215546608E0,-6.506021023E-1,3.008451462E-1
3.183746748E1,3.800561428E0,-8.152046204E-1,1.924705505E-1
3.185536360E1,4.146759510E0,-6.274819374E-1,3.943319321E-1
3.187325929E1,3.919756413E0,-8.784943819E-1,2.870016098E-1
3.189115535E1,3.934850693E0,-7.556037903E-1,7.129869461E-1
3.190905116E1,3.827485323E0,-7.019755840E-1,4.610338211E-1
3.192694759E1,3.840509892E0,-6.360023022E-1,6.112823486E-1
3.194483083E1,3.619694710E0,-6.975295544E-1,7.888517380E-1
3.196273640E1,3.815083981E0,-5.896432400E-1,3.268051147E-1
3.198063429E1,3.577401638E0,-7.612233162E-1,4.511194229E-1
3.199853358E1,3.540330172E0,-8.036166430E-1,1.043140411E0
3.201642940E1,3.618371010E0,-5.631906986E-1,5.840692520E-1
3.203432234E1,3.657968760E0,-9.203029871E-1,5.648574829E-1
3.205221803E1,3.548601151E0,-8.038005829E-1,1.653518677E-1
3.207011409E1,3.653063059E0,-7.704756260E-1,7.334594727E-1
3.208799196E1,3.532442808E0,-7.654206753E-1,2.970428467E-1
3.210590578E1,3.507786274E0,-6.998670101E-1,3.616437912E-1
3.212380470E1,3.438239336E0,-7.667212486E-1,2.537260056E-1
3.214169759E1,3.572396040E0,-6.846544743E-1,7.977733612E-1
3.215959328E1,3.567568779E0,-6.281175613E-1,4.672088623E-1
3.217747853E1,3.906125069E0,-7.417641878E-1,-3.073215485E-2
3.219538533E1,3.857977390E0,-7.441759109E-1,4.003915787E-1
3.221326900E1,3.354745150E0,-8.310873508E-1,-1.486778259E-1
3.223117708E1,3.816997290E0,-4.288251400E-1,9.499244690E-1
3.224907301E1,3.452591896E0,-5.615131855E-1,-5.085201263E-1
3.226696724E1,3.732645512E0,-1.041117191E0,-1.760883331E-1
3.228486476E1,3.670898914E0,-6.929552555E-1,4.163055420E-1
3.230276051E1,3.594467640E0,-9.562940598E-1,5.207843781E-1
3.232065633E1,3.688780308E0,-7.325407267E-1,1.795768738E-2
3.233854994E1,3.331833363E0,-8.238204718E-1,5.915069580E-1
3.235644832E1,3.301633358E0,-4.907085896E-1,7.269554138E-1
3.237434425E1,3.162390232E0,-8.601056337E-1,5.128383636E-2
3.239224001E1,3.292995691E0,-3.195898533E-1,7.163839340E-1
3.241013698E1,3.195739031E0,-8.280527592E-1,-4.463882446E-1
3.242802998E1,3.628598213E0,-7.640134096E-1,1.235709190E0
3.244592751E1,3.226772070E0,-7.179672718E-1,5.376434326E-2
3.246382356E1,3.319746494E0,-8.593537807E-1,-6.384372711E-2
3.248171932E1,3.368775368E0,-7.764120102E-1,8.342103958E-1
3.249961549E1,2.994045734E0,-8.889529705E-1,7.969484329E-1
3.251751125E1,3.039098501E0,-8.241549730E-1,2.111949921E-1
3.253540730E1,2.904560089E0,-7.728035450E-1,5.706310272E-1
3.255330428E1,2.755357981E0,-7.980273962E-1,1.788473129E-1
3.257119881E1,2.870464087E0,-9.066653252E-1,1.076878548E0
3.258909157E1,2.902494907E0,-7.842328548E-1,4.764270782E-1
3.260699355E1,2.642089844E0,-1.013622761E0,-3.320350647E-1
3.262488924E1,3.022085667E0,-7.386029959E-1,1.590704918E0
3.264278255E1,2.230806589E0,-8.321619034E-1,-2.759838104E-2
3.266067806E1,2.697570562E0,-7.994594574E-1,7.577676773E-1
3.267857393E1,2.302644730E0,-5.931866169E-1,2.277679443E-1
3.269647023E1,2.402323246E0,-7.327908278E-1,9.659900665E-1
3.271435457E1,2.026553154E0,-7.570908070E-1,5.581550598E-1
3.273226173E1,2.228790760E0,-4.239680767E-1,1.028145790E0
3.275015773E1,1.961368561E0,-8.307406902E-1,3.032846451E-1
3.276805104E1,2.027805805E0,-5.911049843E-1,9.487323761E-1
3.278594923E1,1.825576305E0,-7.264192104E-1,4.672126770E-1
3.280384523E1,1.873193741E0,-5.865454674E-1,8.414812088E-1
3.282174013E1,1.475062251E0,-7.907141447E-1,3.339033127E-1
3.283963722E1,1.765830278E0,-7.436938286E-1,4.848899841E-1
3.285753298E1,1.810739398E0,-8.893483877E-1,3.294591904E-1
3.287542897E1,1.654779673E0,-6.131236553E-1,1.901473999E-1
3.289332472E1,1.870372176E0,-8.620793819E-1,-1.773834229E-2
3.291122511E1,1.527266741E0,-4.544394016E-1,4.157981873E-1
3.292911647E1,1.614489675E0,-5.356588364E-1,6.815042496E-1
3.294700026E1,1.417687654E0,-5.552954674E-1,4.941005707E-1
3.296490828E1,1.551217079E0,-8.259843588E-1,-2.922353745E-1
3.298280428E1,1.479495287E0,-5.145637989E-1,7.648496628E-1
3.300070198E1,1.613734961E0,-5.583641529E-1,3.679628372E-1
3.301859615E1,1.487601757E0,-6.681725979E-1,1.548862457E-1
3.303649452E1,1.771604896E0,-6.390597820E-1,3.095912933E-1
3.305438771E1,1.634279370E0,-1.005380511E0,-9.938526154E-2
3.307228352E1,1.420855761E0,-7.610509396E-1,3.397407532E-1
3.309017952E1,1.208636761E0,-5.458421707E-1,1.637973785E-1
3.310807552E1,1.287651300E0,-4.343960285E-1,6.668605804E-1
3.312597444E1,1.389064789E0,-6.627380848E-1,-8.390140533E-2
3.314386720E1,1.378880858E0,-4.252839088E-1,4.961118698E-1
3.316176320E1,1.459890842E0,-5.842738152E-1,2.103004456E-1
3.317965889E1,1.820057988E0,-7.307512760E-1,7.135238647E-1
3.319755446E1,1.225141406E0,-1.050691247E0,-3.961629868E-1
3.321545094E1,1.654121280E0,-6.787178516E-1,9.485988617E-1
3.323334261E1,1.234587073E0,-2.674040794E-1,5.923385620E-1
3.325124251E1,1.213828325E0,-9.187128544E-1,-2.189130783E-1
3.326913557E1,1.446282864E0,-5.150508881E-1,6.095552444E-1
3.328703505E1,1.366671562E0,-9.918525219E-1,3.307466507E-1
3.330493031E1,1.758367181E0,-3.268971443E-1,2.949066162E-1
3.332282533E1,1.547985673E0,-1.024881482E0,-1.908683777E-2
3.334072200E1,1.780152321E0,-4.187514782E-1,1.115741730E-1
3.335861794E1,1.514695883E0,-9.834786654E-1,8.858680725E-3
3.337651369E1,1.451263905E0,-4.899096489E-1,1.327190399E-1
3.339440981E1,1.522517681E0,-6.610958576E-1,1.961793900E-1
3.341230843E1,1.419754505E0,-6.678011417E-1,-1.500606537E-1
3.343020149E1,1.289084911E0,-5.547268391E-1,4.609355927E-1
3.344808278E1,1.248961449E0,-7.861216068E-1,5.253381729E-1
3.346598128E1,1.294535160E0,-4.876675606E-1,6.608495712E-1
3.348388026E1,1.445767879E0,-5.178575516E-1,5.029582977E-2
3.350177406E1,1.229903936E0,-2.763409615E-1,1.423597336E-1
3.351968349E1,1.172341108E0,-9.115253687E-1,-3.165502548E-1
3.353757662E1,1.196787357E0,-5.760028362E-1,5.061893463E-1
3.355547273E1,1.014923811E0,-3.130340576E-1,5.956554413E-1
3.357336842E1,1.765093327E0,-4.876286983E-1,1.179819107E-1
3.359126454E1,1.092049360E0,-5.213749409E-1,-9.088058472E-1
3.360915736E1,1.976562023E0,-4.082815647E-1,1.159300804E0
3.362705910E1,1.269287229E0,-2.489743233E-1,-1.170425415E-1
3.364495198E1,1.200032473E0,-5.490880013E-1,-1.176452637E-2
3.366285091E1,1.685643077E0,4.682996273E-1,-6.659221649E-2
3.368074367E1,1.323544979E0,-5.847647190E-1,-6.252155304E-1
3.369863960E1,1.453197241E0,4.145932198E-2,2.100372314E-2
3.371653548E1,1.429134846E0,1.164216995E-1,-4.585218430E-1
3.373443123E1,1.461004019E0,-3.503625393E-1,4.112815857E-1
3.375232716E1,1.653003931E0,-2.558376789E-1,-1.878004074E-1
3.377022292E1,1.801845789E0,1.551802158E-1,-4.560709000E-1
3.378811617E1,1.826584816E0,-4.228487015E-1,3.340024948E-1
3.380601491E1,1.874990225E0,-5.719995499E-2,-6.790695190E-1
3.382391072E1,1.695551157E0,-5.697147846E-1,-7.117176056E-2
3.384180666E1,1.562364340E0,4.469370842E-2,-1.004619598E-1
3.385970259E1,1.697794199E0,9.323191643E-2,-4.282331467E-1
3.387759865E1,1.878085375E0,-1.408267021E-2,-1.225318909E-1
3.389549446E1,2.053703785E0,1.599261761E-1,-3.488597870E-1
3.391339015E1,2.114760876E0,-6.805638075E-1,-7.415227890E-1
3.393128621E1,2.102525949E0,-1.723144054E-1,2.484703064E-1
3.394918098E1,1.857726574E0,-2.739963531E-1,-3.971548080E-1
3.396708089E1,1.778088212E0,3.521587849E-1,3.014402390E-1
3.398497371E1,1.735894561E0,-3.721532822E-1,-6.540660858E-1
3.400286965E1,1.864424348E0,-2.077753544E-1,1.004405975E0
3.402076546E1,1.717063189E0,-2.044017315E-1,6.056213379E-2
3.403866139E1,2.125826359E0,-3.173902035E-1,9.203615189E-1
3.405655739E1,2.305781364E0,-2.648386955E-1,-3.638677597E-1
3.407445686E1,2.311884165E0,4.345345497E-2,5.130519867E-1
3.409234914E1,2.283908844E0,-4.309005737E-1,3.003997803E-1
3.411023384E1,1.954765797E0,-4.409635067E-1,6.507396698E-1
3.412814095E1,1.676066875E0,-2.965726852E-1,5.761909485E-2
3.414603658E1,2.287013769E0,9.663701057E-2,1.570720673E0
3.416393276E1,1.626185298E0,-1.969075203E-2,7.403850555E-1
3.418182838E1,1.885049820E0,-1.789596081E-1,1.419307709E0
3.419972664E1,1.656822920E0,-6.168406010E-1,-1.305376053E0
3.421762007E1,2.742265463E0,-4.056730270E-1,1.799171448E0
3.423551589E1,1.479964256E0,-2.305316925E-1,-4.502887726E-1
3.425341188E1,2.456569672E0,-7.877683640E-2,1.995999336E0
3.427130794E1,1.673677325E0,1.087183952E-1,5.864238739E-2
3.428920046E1,2.014044285E0,-2.888622284E-1,1.149475098E0
3.430709071E1,1.555498004E0,-6.340003014E-2,4.041271210E-1
3.432499544E1,1.788023233E0,1.043190956E-1,1.806372643E0
3.434288606E1,1.949834585E0,-3.458309174E-2,3.995532990E-1
3.436078712E1,2.010573149E0,-2.416028976E-1,1.000291824E0
3.437868330E1,1.926280856E0,-4.764175415E-2,1.445198059E-2
3.439657936E1,2.242751837E0,-3.807258606E-1,9.871578217E-1
3.441447493E1,1.579080701E0,-1.218726635E-1,-3.042249680E-1
3.443237086E1,1.802175522E0,-1.054999828E-1,4.961519241E-1
3.445026521E1,1.347010016E0,1.298909187E-1,3.410015106E-1
3.446815962E1,1.690419912E0,8.579444885E-2,4.426212311E-1
3.448605861E1,1.424272418E0,4.292559624E-2,-1.226568222E-1
3.450395436E1,1.775338292E0,-6.729364395E-3,5.295209885E-1
3.452185042E1,2.066785812E0,-8.112192154E-2,-2.731962204E-1
3.453974611E1,2.519947290E0,-8.517909050E-2,-2.038002014E-1
3.455764571E1,2.628838062E0,1.376781464E-1,-2.022609711E-1
3.457553786E1,2.127217770E0,-2.790927887E-1,-9.818048477E-1
3.459343831E1,1.834373236E0,-3.692166805E-1,-4.819946289E-1
3.461131795E1,1.494754791E0,-1.169199944E-1,-5.095615387E-1
3.462922554E1,1.641231418E0,-4.426076412E-1,-2.264928818E-1
3.464712447E1,1.569018245E0,-4.373550415E-2,-3.011302948E-1
3.466501711E1,2.058533907E0,1.529178619E-1,7.332630157E-1
3.468291310E1,2.251768827E0,-2.423765659E-1,-4.791784286E-1
3.470080910E1,2.120981455E0,-3.917567730E-1,-1.873416901E-1
3.471870491E1,2.142933846E0,2.254788876E-1,-5.374813080E-2
3.473660085E1,2.052739143E0,-1.382110119E-1,-7.152433395E-1
3.475449684E1,1.800945044E0,-4.630494118E-2,-9.646482468E-1
3.477239259E1,2.045860052E0,1.726641655E-1,-1.082201004E-1
3.479027644E1,1.880551577E0,3.392968178E-1,-2.631444931E-1
3.480818141E1,1.778162956E0,-2.403938770E-1,-9.568071365E-1
3.482608003E1,2.215229511E0,1.309070587E-1,2.216835022E-1
3.484397249E1,2.028245449E0,2.207565308E-1,-5.087280273E-2
3.486187209E1,2.232230425E0,1.236119270E-1,9.610462189E-2
3.487976955E1,1.822347999E0,-1.030552387E-1,-7.110872269E-1
3.489766377E1,1.687445045E0,-1.468994617E-1,3.620958328E-1
3.491555959E1,1.362212062E0,3.784608841E-2,-3.386430740E-1
3.493345540E1,1.426090002E0,1.062512398E-1,-5.602836609E-3
3.495134804E1,1.242997050E0,1.868278980E-1,1.107120514E-1
3.496924837E1,1.511958718E0,1.926822662E-1,5.229234695E-1
3.498714626E1,1.313089132E0,3.759837151E-2,-1.713848114E-2
3.500503908E1,1.577568889E0,2.123749256E-1,-5.465507507E-3
3.502293514E1,1.121021867E0,-3.041267395E-2,-6.443481445E-1
3.504083357E1,1.186252594E0,3.772740364E-1,2.588300705E-1
3.505872652E1,8.611117601E-1,3.021919727E-1,-6.120119095E-1
3.507661012E1,6.394839287E-1,8.151292801E-3,-5.567111969E-1
3.509451833E1,9.549180269E-1,1.567196846E-1,-1.083660126E-2
3.511240340E1,6.859800220E-1,4.336059093E-1,1.401996613E-2
3.513031355E1,8.368082643E-1,1.842799187E-1,-1.040010452E-1
3.514820338E1,8.789960742E-1,2.031309605E-1,-3.049125671E-1
3.516610182E1,8.603740335E-1,-1.462459564E-2,2.102556229E-1
3.518399782E1,6.769958138E-1,3.830983639E-1,9.489727020E-2
3.520189382E1,4.353713095E-1,2.986350060E-1,-3.173780441E-1
3.521978950E1,3.538875580E-1,3.348829746E-1,2.914800644E-1
3.523768532E1,7.868264616E-2,1.895554066E-1,-5.014905930E-1
3.525558138E1,5.359537601E-1,2.733778954E-1,9.353733063E-2
3.527347731E1,3.313733339E-1,4.014835358E-1,-5.228137970E-2
3.529136067E1,4.482240975E-1,2.091555595E-1,-5.747690201E-1
3.530926607E1,3.401795626E-1,2.761933804E-1,-1.488065720E-1
3.532716774E1,4.069783390E-1,5.757763386E-1,7.442855835E-1
3.534506056E1,3.314790428E-1,1.691484451E-1,-2.793045044E-1
3.536295662E1,1.883478165E-1,3.886535168E-1,3.905105591E-1
3.538083919E1,7.443332672E-2,-3.497147560E-2,-3.397941589E-2
3.539874855E1,-2.517150640E-1,1.501922607E-1,-3.696002960E-1
3.541664430E1,1.619099081E-1,5.520749092E-1,-4.084224701E-1
3.543454036E1,9.825253487E-1,7.773737907E-1,-4.809188843E-2
3.545242415E1,3.154115975E-1,7.181000710E-2,-8.199701309E-1
3.547032277E1,4.331941605E-1,2.601683140E-1,-3.246774673E-1
3.548822493E1,1.470726430E-1,-5.475449562E-2,2.298717499E-1
3.550612355E1,-2.207055688E-1,2.123575211E-1,-8.706245422E-1
3.552401979E1,1.263211668E-1,8.070504665E-1,9.480152130E-1
3.554191554E1,-4.815001786E-1,-1.278851032E-1,-8.574476242E-1
3.555981148E1,4.189549387E-2,5.145637989E-1,5.463638306E-1
3.557770729E1,2.954876721E-1,-1.328196526E-1,-6.855363846E-1
3.559560304E1,-9.543201327E-2,8.286690712E-2,-9.048595428E-1
3.561349910E1,4.576489031E-1,4.130387306E-2,5.431909561E-1
3.563138149E1,-2.824808955E-1,1.292831898E-1,-9.453935623E-1
3.564928786E1,-1.737392992E-1,7.205617428E-1,8.305263519E-2
3.566718526E1,1.519725770E-1,7.433173656E-1,3.644943237E-2
3.568508260E1,-1.550551057E-1,6.370732784E-1,-5.382375717E-1
3.570297859E1,6.012819409E-1,5.671808720E-1,4.796981812E-4
3.572087703E1,-1.836973727E-1,2.338328362E-1,-1.423768997E0
3.573876997E1,3.215892315E-1,5.879359245E-1,6.290664673E-1
3.575665181E1,-2.975867391E-1,2.902498245E-1,-1.189987183E0
3.577456209E1,1.661613286E-1,2.383942604E-1,-1.640043259E-1
3.579245747E1,8.342051506E-2,5.106928349E-1,-1.378364563E-1
3.581034462E1,-2.011406422E-1,2.164449692E-1,8.627128601E-2
3.582824678E1,-2.857387066E-1,4.789562225E-1,-4.704275131E-1
3.584614528E1,-9.303605556E-2,2.066140175E-1,1.397752762E-1
3.586404134E1,-3.913534880E-1,2.786588669E-1,-3.170013428E-1
3.588192824E1,2.871408761E-1,4.973902702E-1,4.658632278E-1
3.589983296E1,-1.495464742E-1,3.228120804E-1,-5.308408737E-1
3.591772896E1,3.120521009E-1,3.982000351E-1,7.734336853E-1
3.593562483E1,-6.696066260E-2,6.527490616E-1,-2.610893250E-1
3.595351350E1,-2.312498689E-1,4.909746647E-1,-9.053707123E-2
3.597141634E1,-2.570140958E-1,3.228154182E-1,1.898946762E-1
3.598930934E1,-4.106965661E-1,4.409406185E-1,-3.632326126E-1
3.600720827E1,-5.949830413E-1,6.358528137E-1,2.768945694E-1
3.602510402E1,-2.894259393E-1,4.698512554E-1,1.054649353E-1
3.604300002E1,-5.687739849E-1,5.755443573E-1,2.296915054E-1
3.606089577E1,-2.248179317E-1,4.399018288E-1,5.419607162E-1
3.607879176E1,-1.587688476E-1,2.964591980E-1,1.930837631E-1
3.609668770E1,-8.108708262E-2,7.637026310E-1,6.157732010E-1
3.611458382E1,-1.502658278E-1,5.864675045E-1,-4.267187119E-1
3.613247048E1,-8.475482464E-3,6.698591709E-1,6.470146179E-1
3.615036336E1,-2.566010952E-1,2.706201077E-1,-1.376113892E-1
3.616826833E1,-3.654618561E-1,6.201343536E-1,4.528894424E-1
3.618616707E1,-2.762959301E-1,5.689930916E-1,3.284263611E-2
3.620406306E1,-6.192916632E-2,6.276540756E-1,1.360301971E-1
3.622195876E1,-2.676910162E-1,3.535966873E-1,-1.641006470E-1
3.623985475E1,-1.408769041E-1,7.667632103E-1,-7.933139801E-2
3.625775050E1,-2.186932117E-1,8.134768009E-1,3.013439178E-1
