"Time (s)","Acceleration x (m/s^2)","Acceleration y (m/s^2)","Acceleration z (m/s^2)"
1.054434100E-2,-2.778067112E0,4.264608383E0,7.573283672E0
1.282500200E-2,-2.735594511E0,4.253840446E0,7.678567886E0
1.510566300E-2,-2.693720102E0,4.257429600E0,7.812565804E0
1.738632400E-2,-2.718246460E0,4.267001152E0,7.936394691E0
1.966787700E-2,-2.609373093E0,4.288536549E0,8.113463402E0
2.194942900E-2,-2.476571321E0,4.295116425E0,8.300702095E0
2.423098100E-2,-2.333002090E0,4.344767570E0,8.440083504E0
2.651253300E-2,-2.214557409E0,4.342374802E0,8.598608017E0
2.879408500E-2,-2.091925144E0,4.310669899E0,8.752346992E0
3.107563700E-2,-1.949552298E0,4.288536549E0,8.934800148E0
3.335768700E-2,-1.827518344E0,4.238286972E0,9.098110199E0
3.563930100E-2,-1.695314884E0,4.168296814E0,9.280562401E0
3.792091500E-2,-1.572682738E0,4.122833252E0,9.401400566E0
4.020252900E-2,-1.488335729E0,4.034897327E0,9.507282257E0
4.248408100E-2,-1.433300734E0,3.947559118E0,9.622138023E0
4.476855900E-2,-1.357926846E0,3.912265062E0,9.723235130E0
4.705260100E-2,-1.287936807E0,3.839283943E0,9.818947792E0
4.933701700E-2,-1.255633712E0,3.757329702E0,9.872187614E0
5.162180600E-2,-1.228116274E0,3.689732552E0,9.848857880E0
5.390335800E-2,-1.257428288E0,3.595216036E0,9.786644936E0
5.618484800E-2,-1.307079315E0,3.518645763E0,9.896116257E0
5.846640000E-2,-1.375872970E0,3.461816072E0,9.937990189E0
6.074770300E-2,-1.365703583E0,3.504886866E0,1.000498962E1
6.302925500E-2,-1.452443361E0,3.472583771E0,1.000439167E1
6.531080700E-2,-1.563111424E0,3.445664644E0,1.000798035E1
6.759229700E-2,-1.692921996E0,3.418745279E0,9.992427826E0
6.987428400E-2,-1.811964989E0,3.430709362E0,9.934401512E0
7.215452800E-2,-1.931606054E0,3.403790236E0,9.890133858E0
7.443601800E-2,-2.075175524E0,3.377469063E0,9.817750931E0
7.671757000E-2,-2.199003935E0,3.384647608E0,9.754341125E0
7.899856200E-2,-2.285145521E0,3.357728481E0,9.686744690E0
8.127830800E-2,-2.371885538E0,3.306282759E0,9.647860527E0
8.355680900E-2,-2.405983210E0,3.263810158E0,9.609575272E0
8.583836100E-2,-2.434697151E0,3.221935749E0,9.571290970E0
8.812047300E-2,-2.419741869E0,3.245863914E0,9.495318413E0
9.038528800E-2,-2.389831543E0,3.283550978E0,9.428318977E0
9.261972400E-2,-2.355135679E0,3.317050457E0,9.347561836E0
9.485373200E-2,-2.320439816E0,3.336193085E0,9.266803741E0
9.708981700E-2,-2.319841623E0,3.364906788E0,9.218947411E0
9.932748700E-2,-2.318645239E0,3.403790236E0,9.114261627E0
1.015641820E-1,-2.302493572E0,3.451646566E0,9.019146919E0
1.038007540E-1,-2.315055847E0,3.514458179E0,8.918647766E0
1.060378750E-1,-2.318645239E0,3.572484255E0,8.827720642E0
1.082765230E-1,-2.307877541E0,3.616153240E0,8.751749039E0
1.105109590E-1,-2.301297188E0,3.668795347E0,8.632705688E0
1.127478360E-1,-2.266601324E0,3.711866140E0,8.542376518E0
1.149846530E-1,-2.230708838E0,3.788436413E0,8.451449394E0
1.172214690E-1,-2.137388945E0,3.902095556E0,8.352147102E0
1.194582850E-1,-2.111665964E0,3.973880291E0,8.271389961E0
1.216832610E-1,-2.072782516E0,3.997808456E0,8.181060791E0
1.239202600E-1,-2.047657967E0,4.040879250E0,8.109275818E0
1.261617770E-1,-2.012363911E0,4.097708702E0,8.038089752E0
1.284085420E-1,-2.020738840E0,4.127020836E0,7.957331657E0
1.306452980E-1,-2.000998020E0,4.170091629E0,7.928617954E0
1.328813810E-1,-1.976471543E0,4.193421841E0,7.928617954E0
1.351159390E-1,-1.962114573E0,4.217350006E0,7.923832417E0
1.373528170E-1,-1.913659930E0,4.255036831E0,7.924430370E0
1.395883510E-1,-1.831107497E0,4.305884361E0,7.929814339E0
1.418216270E-1,-1.744965911E0,4.333401680E0,7.987840176E0
1.440654020E-1,-1.658824325E0,4.365106583E0,8.007580757E0
1.462997770E-1,-1.591825247E0,4.387838364E0,8.060821533E0
1.485378760E-1,-1.554138303E0,4.358526230E0,8.108677864E0
1.507726170E-1,-1.530808330E0,4.367499352E0,8.185248375E0
1.530102870E-1,-1.493121386E0,4.351946354E0,8.247461319E0
1.552470430E-1,-1.465005636E0,4.332205296E0,8.333602905E0
1.574836760E-1,-1.508674622E0,4.328018188E0,8.347960472E0
1.597209810E-1,-1.500299811E0,4.279563427E0,8.405387878E0
1.619594450E-1,-1.448255897E0,4.255036831E0,8.443673134E0
1.641941860E-1,-1.410568953E0,4.215555191E0,8.477770805E0
1.664311860E-1,-1.368096352E0,4.205385685E0,8.525627136E0
1.686672090E-1,-1.387837172E0,4.147958279E0,8.535198212E0
1.709046360E-1,-1.417149186E0,4.115056515E0,8.553742409E0
1.731415740E-1,-1.451845169E0,4.048655987E0,8.544171333E0
1.753781460E-1,-1.481157184E0,4.025325775E0,8.577671051E0
1.776153290E-1,-1.515853167E0,3.982254982E0,8.601000786E0
1.798539150E-1,-1.540977836E0,3.925425529E0,8.643473625E0
1.820884120E-1,-1.575075507E0,3.906282902E0,8.686544418E0
1.843254730E-1,-1.603789330E0,3.887738705E0,8.705088615E0
1.865614960E-1,-1.637887120E0,3.892524242E0,8.752346992E0
1.887967870E-1,-1.657627940E0,3.897309780E0,8.833105087E0
1.910262790E-1,-1.700698733E0,3.912265062E0,8.866603851E0
1.932722500E-1,-1.743769526E0,3.945764542E0,8.927620888E0
1.955097990E-1,-1.834696770E0,3.966701746E0,8.960522652E0
1.977506440E-1,-1.906481385E0,3.981656790E0,8.988637924E0
1.999829440E-1,-1.993819475E0,3.949353695E0,9.059226990E0
2.022195160E-1,-2.051247120E0,3.969094515E0,9.087342262E0
2.044560280E-1,-2.114058733E0,3.955335855E0,9.139386177E0
2.066933320E-1,-2.172084808E0,3.951148272E0,9.176474571E0
2.089299650E-1,-2.196611166E0,3.918246984E0,9.195617676E0
2.111667820E-1,-2.216351986E0,3.899104595E0,9.229117393E0
2.134042690E-1,-2.216351986E0,3.913461447E0,9.233902931E0
2.156423680E-1,-2.186441660E0,3.975674868E0,9.186046600E0
2.178772920E-1,-2.190629244E0,3.937389612E0,9.100502968E0
2.201142300E-1,-2.162513494E0,3.899104595E0,9.110074043E0
2.223503760E-1,-2.163111687E0,3.865604877E0,9.105288506E0
2.245876190E-1,-2.144567251E0,3.821935892E0,9.110671997E0
2.268241300E-1,-2.160120726E0,3.765106440E0,9.138788223E0
2.290610080E-1,-2.112264156E0,3.735196114E0,9.125029564E0
2.312953220E-1,-2.084148407E0,3.725624800E0,9.125627518E0
2.335217620E-1,-2.031506538E0,3.681955814E0,9.083154678E0
2.357597990E-1,-1.993221283E0,3.662214994E0,9.026325226E0
2.380082730E-1,-1.944766641E0,3.657429457E0,8.974281311E0
2.402473480E-1,-1.911267042E0,3.628117323E0,8.893523216E0
2.424846530E-1,-1.906481385E0,3.580859184E0,8.807980537E0
2.447187840E-1,-1.882553220E0,3.537788391E0,8.736793518E0
2.469556000E-1,-1.868196249E0,3.509074450E0,8.688937187E0
2.491927210E-1,-1.863410592E0,3.485146284E0,8.651249886E0
2.514311860E-1,-1.862812400E0,3.461816072E0,8.579465866E0
2.536659880E-1,-1.881356835E0,3.481556892E0,8.507680893E0
2.559026210E-1,-1.881356835E0,3.452843189E0,8.450851440E0
2.581388890E-1,-1.880758643E0,3.467798233E0,8.393424034E0
2.603761320E-1,-1.889731646E0,3.458825111E0,8.321639061E0
2.626128270E-1,-1.893919110E0,3.473181963E0,8.250452042E0
2.648498260E-1,-1.912463546E0,3.469592810E0,8.164310455E0
2.670870080E-1,-1.922034740E0,3.469592810E0,8.140382767E0
2.693257780E-1,-1.926820397E0,3.455235958E0,8.116454124E0
2.715603360E-1,-2.017747641E0,3.437887907E0,8.077570915E0
2.737951390E-1,-2.012962103E0,3.457030535E0,8.111070633E0
2.760250580E-1,-1.974676847E0,3.451048374E0,8.154141426E0
2.782704800E-1,-1.922633052E0,3.450450182E0,8.193024635E0
2.805072970E-1,-1.903490424E0,3.473780155E0,8.236095428E0
2.827461270E-1,-1.904088616E0,3.468396425E0,8.297710419E0
2.849812950E-1,-1.914258122E0,3.463610888E0,8.388039589E0
2.872199430E-1,-1.905883193E0,3.443870068E0,8.474181175E0
2.894562100E-1,-1.896910191E0,3.443271875E0,8.589036942E0
2.916987640E-1,-1.878963947E0,3.461217880E0,8.746364594E0
2.939274630E-1,-1.875374794E0,3.465405464E0,8.903693199E0
2.961650730E-1,-1.881356835E0,3.459423304E0,9.099306107E0
2.983998140E-1,-1.887338877E0,3.463610888E0,9.256634712E0
3.006386440E-1,-1.908276081E0,3.472583771E0,9.432506561E0
3.028755220E-1,-1.899302959E0,3.486342669E0,9.585049629E0
3.051142300E-1,-1.904686809E0,3.523431301E0,9.728020668E0
3.073486050E-1,-1.958525300E0,3.528815269E0,9.885348320E0
3.095827360E-1,-1.983051777E0,3.537788391E0,9.970891953E0
3.118097260E-1,-2.002194405E0,3.547957659E0,9.999007225E0
3.140591770E-1,-2.021337032E0,3.576671600E0,1.003729248E1
3.162961150E-1,-2.026122570E0,3.600599766E0,1.006540871E1
3.185339690E-1,-2.025524378E0,3.614956856E0,1.005105114E1
3.207630340E-1,-2.058425665E0,3.658625841E0,1.002712345E1
3.230084560E-1,-2.086541414E0,3.678366661E0,9.988838196E0
3.252429530E-1,-2.105085611E0,3.702294827E0,9.964311600E0
3.274817230E-1,-2.146960020E0,3.784847260E0,9.926026344E0
3.297159760E-1,-2.203191519E0,3.833301783E0,9.887143135E0
3.319534030E-1,-2.240280151E0,3.887140274E0,9.767501831E0
3.341902190E-1,-2.276770830E0,3.926621914E0,9.667003632E0
3.364272800E-1,-2.294118643E0,3.994219303E0,9.533005714E0
3.386614110E-1,-2.297109842E0,4.024129391E0,9.375677109E0
3.408909030E-1,-2.300100803E0,4.072584152E0,9.227920532E0
3.431374850E-1,-2.308475733E0,4.097110748E0,9.084351540E0
3.453744840E-1,-2.282154560E0,4.159922123E0,8.955737114E0
3.476133140E-1,-2.276172638E0,4.188635826E0,8.855836868E0
3.498478730E-1,-2.227119684E0,4.246063709E0,8.770293236E0
3.520843840E-1,-2.196611166E0,4.293920040E0,8.670392990E0
3.543213840E-1,-2.161915302E0,4.322035789E0,8.594420433E0
3.565588100E-1,-2.094317913E0,4.350151539E0,8.528019905E0
3.587969700E-1,-2.073979139E0,4.388436794E0,8.452047348E0
3.610320770E-1,-2.053640127E0,4.426722050E0,8.390432358E0
3.632687710E-1,-2.073380709E0,4.369892120E0,8.380861282E0
3.655049780E-1,-2.155933142E0,4.332803726E0,8.432307243E0
3.677424040E-1,-2.219941139E0,4.308875561E0,8.603393555E0
3.699789760E-1,-2.289333105E0,4.275375843E0,8.836693764E0
3.722157930E-1,-2.377269268E0,4.294518471E0,9.069396019E0
3.744529140E-1,-2.441277266E0,4.275375843E0,9.293125153E0
3.766916230E-1,-2.386242390E0,4.239483356E0,9.536594391E0
3.789259980E-1,-2.429911375E0,3.981058598E0,9.727422714E0
3.811628750E-1,-2.366501570E0,4.213162422E0,1.001396275E1
3.833991430E-1,-2.362314224E0,4.226921082E0,1.010907745E1
3.856367520E-1,-2.408375978E0,4.060021877E0,1.018983555E1
3.878733250E-1,-2.059023857E0,3.361317635E0,1.017547798E1
3.901101410E-1,-1.820937991E0,2.130210400E0,9.879366875E0
3.923469570E-1,-1.417747378E0,1.198804140E0,9.297910690E0
3.945837730E-1,-1.438086390E0,9.900303483E-1,9.088538170E0
3.968205890E-1,-1.770688772E0,1.328016520E0,9.390034676E0
3.990456880E-1,-1.935793519E0,1.735394597E0,9.774082184E0
4.012847010E-1,-2.038684845E0,2.051247120E0,1.003489971E1
4.035220050E-1,-2.103291035E0,2.366501570E0,1.027178955E1
4.057569910E-1,-2.158325911E0,2.648256540E0,1.053320503E1
4.079968600E-1,-2.118246317E0,2.857628345E0,1.065224838E1
4.102453950E-1,-1.954936147E0,2.845664263E0,1.062054348E1
4.124830660E-1,-1.899901152E0,3.087937593E0,1.077308559E1
4.147176850E-1,-1.931606054E0,3.321835995E0,1.095374393E1
4.169518160E-1,-1.987837434E0,3.551547050E0,1.116730309E1
4.191877170E-1,-2.091925144E0,3.757329702E0,1.138086224E1
4.214253270E-1,-2.158325911E0,3.877569199E0,1.151844978E1
4.236620210E-1,-2.148754835E0,3.915256023E0,1.157049370E1
4.258987150E-1,-2.081157446E0,3.885943890E0,1.151904774E1
4.281360810E-1,-2.012962103E0,3.904488325E0,1.138146114E1
4.303747280E-1,-1.983649969E0,3.838087559E0,1.117208862E1
4.326091640E-1,-2.068595171E0,2.636890650E0,1.062473106E1
4.348459200E-1,-2.513062000E0,9.547362328E-1,9.836894035E0
4.370819430E-1,-2.659622431E0,7.160521746E-1,9.187242508E0
4.393168680E-1,-2.858824968E0,4.169493318E-1,8.361120224E0
4.415425140E-1,-3.107678413E0,2.973082066E-1,8.149355888E0
4.437785370E-1,-3.540181160E0,3.032902777E-1,8.335995674E0
4.460184660E-1,-4.164109707E0,3.547359705E-1,8.563912392E0
4.482720070E-1,-4.841876507E0,4.821537733E-1,9.072386742E0
4.505063210E-1,-5.530411243E0,5.754738450E-1,9.671191216E0
4.527432590E-1,-5.992824078E0,7.375875711E-1,1.027238750E1
4.549764740E-1,-5.892923832E0,1.288534999E0,1.073480034E1
4.572141450E-1,-5.241477966E0,2.929413080E0,1.252164078E1
4.594460170E-1,-4.471587181E0,4.347160339E0,1.354696560E1
4.616686740E-1,-4.352544308E0,3.904488325E0,1.279502106E1
4.639245940E-1,-4.419543266E0,3.800400496E0,1.381017590E1
4.661633030E-1,-4.816751957E0,3.683750391E0,1.539960861E1
4.684023780E-1,-4.836492538E0,3.381058455E0,1.672583008E1
4.706345550E-1,-4.430909157E0,3.131008387E0,1.765962982E1
4.728707610E-1,-3.805784464E0,2.209173441E0,1.751426506E1
4.751081880E-1,-3.506681681E0,1.066600680E0,1.639861107E1
4.773450650E-1,-3.518645763E0,6.532405615E-1,1.593141270E1
4.795790740E-1,-3.314059258E0,6.239284873E-1,1.540917969E1
4.818072230E-1,-2.779861689E0,7.052844763E-1,1.470329666E1
4.840566130E-1,-2.507079840E0,5.808576941E-1,1.390947819E1
4.862880580E-1,-2.403590441E0,4.576273263E-1,1.331007576E1
4.885320160E-1,-2.593221426E0,3.200400174E-1,1.277886963E1
4.907651100E-1,-2.979662418E0,2.129612118E-1,1.235115242E1
4.930036960E-1,-3.447459221E0,2.069791555E-1,1.212323570E1
4.952392300E-1,-3.775874138E0,3.080759048E-1,1.204367447E1
4.974761080E-1,-3.834498405E0,4.815555513E-1,1.191864967E1
4.997134120E-1,-3.464807272E0,7.208378315E-1,1.167876911E1
5.019519990E-1,-3.012563705E0,1.016949654E0,1.135334492E1
5.041868010E-1,-2.468196630E0,1.421336651E0,1.107159042E1
5.064233730E-1,-1.952543259E0,1.830509305E0,1.089870930E1
5.086596410E-1,-1.413560033E0,2.301297188E0,1.079342461E1
5.108968840E-1,-1.051645517E0,2.807379246E0,1.079103184E1
5.131306480E-1,-7.788637877E-1,3.151945591E0,1.089332485E1
5.153559290E-1,-5.449653864E-1,3.458825111E0,1.093759251E1
5.175960420E-1,-4.600201547E-1,3.526422262E0,1.060439205E1
5.198464690E-1,-1.884347796E-1,3.050250769E0,9.311071396E0
5.220806610E-1,-5.515456200E-1,2.561516523E0,7.701299667E0
5.243083830E-1,-1.104287624E0,2.132004976E0,5.327021599E0
5.265539280E-1,-1.624726534E0,2.057827473E0,2.523231506E0
5.287915370E-1,-1.822732687E0,2.202593327E0,-3.948157281E-2
5.310311620E-1,-8.560323119E-1,2.188236237E0,-1.150947690E0
5.332648650E-1,3.792623878E-1,2.325823545E0,-8.063812256E-1
5.355019860E-1,1.328614831E0,2.545963287E0,1.369891018E-1
5.377406950E-1,1.878365755E0,2.629113913E0,1.014556766E0
5.399750700E-1,2.304886341E0,2.742773056E0,1.800000787E0
5.422119480E-1,2.555534601E0,2.893520832E0,2.498705149E0
5.444482150E-1,2.615953445E0,3.086143017E0,3.099303484E0
5.466857640E-1,2.562713146E0,3.233301640E0,3.480360508E0
5.489222140E-1,2.342573404E0,3.312862873E0,3.559323788E0
5.511593960E-1,1.890329838E0,3.486940861E0,3.530609846E0
5.533962740E-1,1.156331539E0,3.680759430E0,3.357130051E0
5.556350430E-1,-1.094716340E-1,3.915256023E0,3.297309637E0
5.578693570E-1,-2.099701881E0,4.231108665E0,3.531208038E0
5.601064790E-1,-4.369294167E0,4.215555191E0,3.987040758E0
5.623424410E-1,-6.881159782E0,4.527220249E0,4.712066174E0
5.645798070E-1,-9.043074608E0,4.914259434E0,5.597410202E0
5.668163790E-1,-1.023948669E1,5.053641319E0,6.263811588E0
5.690535000E-1,-1.049252701E1,5.007579803E0,6.661618233E0
5.712908660E-1,-1.013599682E1,4.881956577E0,6.812964439E0
5.735293300E-1,-9.625128746E0,4.778466702E0,6.856035233E0
5.757637050E-1,-9.156135559E0,4.737788677E0,6.836892605E0
5.780007050E-1,-8.729615211E0,4.731806755E0,6.778866768E0
5.802367280E-1,-8.411369324E0,4.794618607E0,6.681358814E0
5.824741550E-1,-8.209176064E0,4.844269276E0,6.616154671E0
5.847109710E-1,-8.020741463E0,4.913661480E0,6.531807423E0
5.869480320E-1,-7.766504288E0,4.966901779E0,6.582056999E0
5.891822850E-1,-7.170691490E0,4.899304390E0,6.835696220E0
5.914092130E-1,-6.236892223E0,4.721039295E0,7.183253765E0
5.936434660E-1,-5.079364300E0,4.400400639E0,7.466204643E0
5.958801600E-1,-3.728017569E0,3.943371773E0,7.770093441E0
5.981224700E-1,-2.565704107E0,3.533002615E0,7.886145115E0
6.003716160E-1,-1.608574986E0,3.183650494E0,7.967501163E0
6.026084320E-1,-6.448656917E-1,2.948555708E0,8.071588516E0
6.048441500E-1,3.092723191E-1,2.784647465E0,8.266604424E0
6.070762050E-1,1.010369420E0,2.691327333E0,8.516654015E0
6.093178440E-1,1.568495274E0,2.672184706E0,8.831908226E0
6.115525850E-1,2.030908108E0,2.678166628E0,9.112466812E0
6.137903780E-1,2.178664923E0,2.670390129E0,9.209376335E0
6.160256080E-1,1.962712765E0,2.612364054E0,9.083154678E0
6.182629730E-1,1.501496196E0,2.466402054E0,9.007781029E0
6.204997280E-1,9.786644578E-1,2.252842426E0,9.337391853E0
6.227365450E-1,2.943171859E-1,1.992623091E0,9.955936432E0
6.249736660E-1,-5.162515044E-1,1.689931035E0,1.071206856E1
6.272121310E-1,-1.267597795E0,1.335793257E0,1.116849995E1
6.294430880E-1,-1.730010748E0,8.404789567E-1,1.121755219E1
6.316689180E-1,-2.422732830E0,-3.038884699E-1,1.068335533E1
6.339196510E-1,-2.657827854E0,-8.440681696E-1,1.035314560E1
6.361572600E-1,-2.529811859E0,-1.045663476E0,1.016889763E1
6.383978000E-1,-2.362912416E0,-1.200598717E0,9.975079536E0
6.406312590E-1,-2.261217356E0,-1.277169108E0,9.704689980E0
6.428685020E-1,-2.182852507E0,-1.267597795E0,9.514460564E0
6.451066620E-1,-2.156531334E0,-1.157527924E0,9.409774780E0
6.473410370E-1,-2.154736757E0,-1.018744230E0,9.394820213E0
6.495751680E-1,-2.172084808E0,-8.799605370E-1,9.423533440E0
6.517998380E-1,-2.054836512E0,-7.716853023E-1,9.366703987E0
6.540403170E-1,-1.922633052E0,-6.675975323E-1,9.205786705E0
6.562883640E-1,-1.752144337E0,-6.017948985E-1,8.921041489E0
6.585262180E-1,-1.503290772E0,-4.941178858E-1,8.570492744E0
6.607570530E-1,-1.149751306E0,-4.211367965E-1,8.239685059E0
6.630009490E-1,-7.196413875E-1,-3.068794906E-1,7.938189030E0
6.652353240E-1,-2.267199457E-1,-1.310070455E-1,7.713861942E0
6.674744600E-1,3.427718580E-1,5.264209956E-2,7.518248558E0
6.697084080E-1,9.463613629E-1,2.213360965E-1,7.294519901E0
6.719458340E-1,1.554736495E0,4.378865361E-1,7.089933395E0
6.741826510E-1,2.201396942E0,6.394818425E-1,6.862017155E0
6.764197110E-1,2.830111027E0,8.991031051E-1,6.600601196E0
6.786539040E-1,3.444468260E0,1.173081279E0,6.357729912E0
6.808835780E-1,3.987040758E0,1.472184181E0,6.128616810E0
6.831298550E-1,4.562514782E0,2.237887383E0,6.218348026E0
6.853667330E-1,4.969892502E0,3.133401155E0,6.654439926E0
6.876048310E-1,5.178068161E0,3.594617844E0,6.564708710E0
6.898359710E-1,5.242076397E0,3.796213150E0,6.154938221E0
6.920771210E-1,5.194219589E0,3.894917011E0,5.734997749E0
6.943137540E-1,5.050052166E0,4.056432724E0,5.456831932E0
6.965524020E-1,4.823930264E0,4.298706055E0,5.425725460E0
6.987895230E-1,4.482355118E0,4.637888432E0,5.589035511E0
7.010242030E-1,4.059423447E0,4.968696117E0,5.799005508E0
7.032608980E-1,3.520440340E0,5.291129112E0,6.022136211E0
7.054970430E-1,2.915654421E0,5.615356445E0,6.202196121E0
7.077346530E-1,2.285743713E0,5.854040623E0,6.310471535E0
7.099714690E-1,1.650449395E0,6.016154289E0,6.347560406E0
7.122083470E-1,8.422735929E-1,5.836692810E0,6.449853420E0
7.144456510E-1,-3.631108403E-1,4.872385025E0,6.860222340E0
7.166840550E-1,-8.650053740E-1,4.617549419E0,6.832107067E0
7.189184300E-1,-1.316650629E0,4.324428558E0,6.494719028E0
7.211552460E-1,-1.503889084E0,4.118646145E0,6.149554253E0
7.233915130E-1,-1.575075507E0,3.944568157E0,5.787041664E0
7.256288790E-1,-1.607976794E0,3.855435371E0,5.491528034E0
7.278655120E-1,-1.703091502E0,3.748356581E0,5.261816978E0
7.301025120E-1,-1.737189293E0,3.634697676E0,5.099703312E0
7.323396330E-1,-1.886142492E0,3.541975737E0,4.974080086E0
7.345781590E-1,-2.035693884E0,3.453441381E0,4.906482697E0
7.368127780E-1,-2.112264156E0,3.393022537E0,4.829314232E0
7.390498990E-1,-2.160718918E0,3.336791277E0,4.762315273E0
7.412861670E-1,-2.179861546E0,3.289532900E0,4.671388149E0
7.435235320E-1,-2.135594130E0,3.303889751E0,4.566701889E0
7.457602870E-1,-1.981257200E0,3.320639610E0,4.472783566E0
7.479969820E-1,-1.821536183E0,3.352344513E0,4.354937077E0
7.502309910E-1,-1.658226132E0,3.350549936E0,4.242474556E0
7.524609100E-1,-1.485344648E0,3.281756163E0,4.091726780E0
7.547072480E-1,-1.402792215E0,3.062813044E0,3.596412420E0
7.569441860E-1,-1.358525038E0,2.859423161E0,3.005983353E0
7.591833220E-1,-1.161117196E0,2.790629387E0,2.764906645E0
7.614177580E-1,-8.392825127E-1,2.828914642E0,2.767897606E0
7.636545750E-1,-4.456632137E-1,2.965903759E0,2.914458036E0
7.658912690E-1,-1.860419661E-1,3.090330362E0,3.021536827E0
7.681282680E-1,1.076770201E-2,3.092125177E0,2.994617462E0
7.703671600E-1,1.489532143E-1,3.009572744E0,2.895913601E0
7.725984830E-1,2.536391914E-1,2.869592667E0,2.754138947E0
7.748262050E-1,3.373879790E-1,2.691925526E0,2.712264538E0
7.770743750E-1,4.737788737E-1,2.493919373E0,2.713460922E0
7.793119840E-1,6.041877270E-1,2.295315027E0,2.796013355E0
7.815517310E-1,7.686942816E-1,2.110469580E0,2.879163742E0
7.837859220E-1,9.182456732E-1,1.935195327E0,3.028715372E0
7.860227990E-1,1.067797065E0,1.746162295E0,3.149552822E0
7.882615080E-1,1.227517962E0,1.570888042E0,3.284747362E0
7.904958220E-1,1.401595831E0,1.400399446E0,3.382254839E0
7.927328830E-1,1.575075507E0,1.215553880E0,3.522234917E0
7.949686620E-1,1.752742529E0,1.006181955E0,3.690928936E0
7.972063320E-1,1.972284079E0,8.243274093E-1,4.003192425E0
7.994458350E-1,2.212164640E0,6.664010882E-1,4.316053867E0
8.016909520E-1,2.494517565E0,5.359922647E-1,4.690530777E0
8.039170860E-1,2.860021353E0,5.090730190E-1,5.108676434E0
8.061557340E-1,3.298506021E0,5.910272002E-1,5.517848969E0
8.083874230E-1,3.593421459E0,6.514459848E-1,5.940182209E0
8.106272310E-1,3.835096598E0,6.891329288E-1,6.323632240E0
8.128631930E-1,4.004388809E0,6.658028960E-1,6.668796539E0
8.151006190E-1,4.086941242E0,5.676971674E-1,6.951149940E0
8.173387180E-1,4.050450325E0,4.522434771E-1,7.118049145E0
8.195769990E-1,3.875176191E0,2.829512656E-1,7.144968510E0
8.218011200E-1,3.586841106E0,1.016949639E-1,6.980462074E0
8.240500210E-1,3.240479946E0,-1.214357466E-1,6.720242500E0
8.262831140E-1,2.837887764E0,-3.433700502E-1,6.378666878E0
8.285240810E-1,2.464009047E0,-5.461617708E-1,5.998806477E0
8.307574800E-1,2.081157446E0,-7.489534616E-1,5.599802971E0
8.329949070E-1,1.731805444E0,-9.427721500E-1,5.205585480E0
8.352317230E-1,1.468594909E0,-1.070788145E0,4.893920422E0
8.374687840E-1,1.224527001E0,-1.185643673E0,4.634299278E0
8.397059050E-1,1.033699393E0,-1.253240824E0,4.432105541E0
8.419443080E-1,8.991031051E-1,-1.313061476E0,4.350151539E0
8.441786830E-1,7.028916478E-1,-1.362712502E0,4.276572227E0
8.464157440E-1,5.581258535E-1,-1.488933921E0,4.151547432E0
8.486518280E-1,4.187439680E-1,-1.600798368E0,4.050450325E0
8.508894990E-1,2.883351147E-1,-1.713261008E0,3.944568157E0
8.531262540E-1,2.051845491E-1,-1.864607096E0,3.910470486E0
8.553634370E-1,1.507478207E-1,-1.998006940E0,3.886542082E0
8.576015960E-1,1.483550072E-1,-2.155334949E0,3.862613916E0
8.598385960E-1,1.938186288E-1,-2.323430777E0,3.882952929E0
8.620732150E-1,3.014956415E-1,-2.487937450E0,3.926621914E0
8.643096650E-1,4.037888348E-1,-2.638087034E0,4.004388809E0
8.665461150E-1,5.874379873E-1,-2.837289333E0,4.058825493E0
8.687836640E-1,7.698906660E-1,-3.113062143E0,4.127619267E0
8.710202970E-1,9.804590940E-1,-3.451048374E0,4.153940201E0
8.732573580E-1,1.234098315E0,-3.789632797E0,4.166502476E0
8.754944180E-1,1.496710539E0,-4.181457520E0,4.174279213E0
8.777330050E-1,1.770090580E0,-4.543372154E0,4.039084435E0
8.799677460E-1,1.997408748E0,-4.856831551E0,3.841676712E0
8.822043790E-1,2.224726915E0,-5.160121918E0,3.572484255E0
8.844406470E-1,2.408974171E0,-5.472385406E0,3.336193085E0
8.866780120E-1,2.563909531E0,-5.761318684E0,3.233301640E0
8.889150730E-1,2.638087034E0,-5.972485542E0,3.157927752E0
8.911515840E-1,2.678765059E0,-6.135795593E0,3.158525944E0
8.933887050E-1,2.672782898E0,-6.198009014E0,3.182454109E0
8.956269260E-1,2.663211584E0,-6.193223000E0,3.239881754E0
8.978610570E-1,2.644068956E0,-6.164509296E0,3.277568817E0
9.000986660E-1,2.659024239E0,-6.112465382E0,3.272783279E0
9.023349340E-1,2.669791937E0,-6.059823513E0,3.253640652E0
9.045724820E-1,2.694318295E0,-6.021538258E0,3.201596737E0
9.068091160E-1,2.748156786E0,-6.017350674E0,3.125624657E0
9.090459320E-1,2.839084148E0,-6.042475224E0,3.069393158E0
9.112832970E-1,2.972483873E0,-6.106483459E0,3.037090063E0
9.135217010E-1,3.148356438E0,-6.204588890E0,3.038884640E0
9.157561370E-1,3.381656647E0,-6.279963017E0,3.074777126E0
9.179931370E-1,3.658027649E0,-6.365506649E0,3.110669374E0
9.202292210E-1,3.953541279E0,-6.474977970E0,3.094517946E0
9.224668300E-1,4.255036831E0,-6.522834301E0,3.054438114E0
9.247033420E-1,4.580460548E0,-6.617949009E0,2.981456995E0
9.269401580E-1,4.900500774E0,-6.717849731E0,2.860619545E0
9.291772790E-1,5.385645390E0,-7.021139622E0,2.732005358E0
9.314160490E-1,5.696712494E0,-7.140182972E0,2.629712105E0
9.336506070E-1,6.002395630E0,-7.211369038E0,2.556730986E0
9.358873020E-1,6.413960934E0,-7.279564857E0,2.493919373E0
9.381236910E-1,6.589833736E0,-7.076174736E0,2.466402054E0
9.403579430E-1,6.747759819E0,-6.787241459E0,2.438884497E0
9.425833460E-1,6.913462639E0,-6.574280262E0,2.430509567E0
9.448230320E-1,7.127022266E0,-6.424130440E0,2.384447813E0
9.470721160E-1,7.364510059E0,-6.245865345E0,2.362314224E0
9.493132050E-1,7.606783390E0,-6.086742401E0,2.273779631E0
9.515478850E-1,7.897511005E0,-5.922834396E0,2.147558212E0
9.537819550E-1,8.216953278E0,-5.802595139E0,1.983051777E0
9.560180390E-1,8.525627136E0,-5.715855122E0,1.904686809E0
9.582554660E-1,8.828319550E0,-5.686542988E0,1.807777524E0
9.604924040E-1,9.172885895E0,-5.706283569E0,1.829911113E0
9.627289760E-1,9.540184021E0,-5.812764645E0,1.866999865E0
9.649661590E-1,9.901499748E0,-5.971288681E0,1.889133453E0
9.672018160E-1,1.034058285E1,-6.149554253E0,1.826920033E0
9.694255710E-1,1.075932693E1,-6.366104603E0,1.759921074E0
9.716684910E-1,1.120678520E1,-6.611369133E0,1.688136339E0
9.739123260E-1,1.165902805E1,-6.838088989E0,1.606780410E0
9.761528660E-1,1.209212875E1,-7.078567505E0,1.539183140E0
9.783884000E-1,1.252523041E1,-7.281359196E0,1.520040631E0
9.806233250E-1,1.293021584E1,-7.464410305E0,1.533201098E0
9.828606900E-1,1.327657604E1,-7.685148239E0,1.560718536E0
9.850993380E-1,1.365643692E1,-7.877770424E0,1.640878081E0
9.873335300E-1,1.410329628E1,-8.023732185E0,1.750349760E0
9.895675380E-1,1.468594933E1,-8.081160545E0,1.922633052E0
9.917945290E-1,1.524945831E1,-8.085348129E0,2.099701881E0
9.940439790E-1,1.580937958E1,-8.051848412E0,2.314457655E0
9.962807950E-1,1.632024765E1,-8.032107353E0,2.552543640E0
9.985177950E-1,1.675394630E1,-8.040482521E0,2.837887764E0
1.000742770E0,1.717747498E1,-8.076972961E0,3.108874798E0
1.002993381E0,1.758724594E1,-8.074580193E0,3.418147087E0
1.005227756E0,1.793959045E1,-8.033902168E0,3.721437454E0
1.007467929E0,1.832543182E1,-7.974679470E0,4.101896286E0
1.009701084E0,1.873639870E1,-7.881958008E0,4.472185612E0
1.011935336E0,1.921855354E1,-7.771887779E0,4.838885784E0
1.014160373E0,1.985324860E1,-7.763513088E0,5.169095039E0
1.016400119E0,2.082234192E1,-8.285746574E0,5.307878971E0
1.018648898E0,2.115494537E1,-7.920242786E0,5.696114540E0
1.020889194E0,2.152702904E1,-7.525427341E0,5.999404430E0
1.023125278E0,2.188116646E1,-7.134799004E0,6.154938221E0
1.025359103E0,2.215454674E1,-6.732804775E0,6.285346985E0
1.027592563E0,2.228854561E1,-6.348158360E0,6.390631199E0
1.029820834E0,2.227239227E1,-6.061617851E0,6.528218269E0
1.032069553E0,2.212643051E1,-5.825326920E0,6.602993965E0
1.034306186E0,2.190748787E1,-5.726024628E0,6.595815659E0
1.036546481E0,2.166940117E1,-5.674578667E0,6.546164513E0
1.038782016E0,2.142234230E1,-5.612963676E0,6.410371780E0
1.041016940E0,2.119263268E1,-5.651846886E0,6.250650883E0
1.043253635E0,2.100240326E1,-5.638088226E0,6.096313953E0
1.045486484E0,2.089412689E1,-5.635695457E0,5.857031822E0
1.047714999E0,2.088096619E1,-5.753541946E0,5.518447399E0
1.049963535E0,2.091506386E1,-5.919245243E0,5.161318302E0
1.052200473E0,2.088635063E1,-6.094519138E0,4.817948341E0
1.054440829E0,2.080020905E1,-6.263213158E0,4.479363918E0
1.056676547E0,2.067099571E1,-6.474977970E0,4.110869408E0
1.058910922E0,2.049751663E1,-6.714858532E0,3.799802303E0
1.061147739E0,2.024268150E1,-6.957729816E0,3.483351469E0
1.063384006E0,1.997887230E1,-7.181458950E0,3.066402197E0
1.065621616E0,1.966301918E1,-7.347161770E0,2.739781857E0
1.067858188E0,1.932443619E1,-7.454838753E0,2.350350142E0
1.070095004E0,1.892782593E1,-7.585845947E0,1.960918188E0
1.072332309E0,1.856052780E1,-7.697710514E0,1.576271892E0
1.074570773E0,1.822253990E1,-7.758129120E0,1.196411371E0
1.076805209E0,1.788874245E1,-7.841877937E0,8.021938205E-1
1.079042270E0,1.755075645E1,-7.887939930E0,4.989035130E-1
1.081278476E0,1.725464439E1,-7.929814339E0,2.673979402E-1
1.083515659E0,1.694955826E1,-7.929215908E0,5.503492057E-2
1.085752475E0,1.667797470E1,-7.924430370E0,-1.286142170E-1
1.087987461E0,1.641715622E1,-7.852645874E0,-2.793620527E-1
1.090218600E0,1.617428398E1,-7.810173035E0,-4.103690982E-1
1.092465121E0,1.596551132E1,-7.720442295E0,-5.174478889E-1
1.094699680E0,1.575673676E1,-7.645068169E0,-6.005984545E-1
1.096938571E0,1.559581947E1,-7.560721397E0,-7.022934556E-1
1.099172824E0,1.549711609E1,-7.477570534E0,-7.938188910E-1
1.101410190E0,1.540259933E1,-7.408777237E0,-8.279166222E-1
1.103646945E0,1.539362621E1,-7.365706444E0,-8.614161611E-1
1.105883517E0,1.541815281E1,-7.351349354E0,-8.949156404E-1
1.108109103E0,1.547558022E1,-7.338188648E0,-8.464609981E-1
1.110347446E0,1.552283859E1,-7.344171047E0,-7.555337548E-1
1.112582431E0,1.563769436E1,-7.350750923E0,-7.591229677E-1
1.114818637E0,1.574716568E1,-7.338188648E0,-6.819544435E-1
1.117054477E0,1.586740494E1,-7.268796921E0,-5.665007830E-1
1.119292026E0,1.602533150E1,-7.176673412E0,-4.031906128E-1
1.121526950E0,1.614018631E1,-7.107281685E0,-2.303091735E-1
1.123766635E0,1.626939964E1,-6.981060028E0,-4.366901144E-2
1.126003756E0,1.636690712E1,-6.811169624E0,1.094716340E-1
1.128242953E0,1.644407463E1,-6.641279221E0,2.961117923E-1
1.130478000E0,1.646979904E1,-6.427121639E0,4.815555513E-1
1.132721286E0,1.646082497E1,-6.270391941E0,7.052844763E-1
1.134965793E0,1.642792320E1,-6.113063812E0,9.146564603E-1
1.137187167E0,1.638604927E1,-5.931807518E0,1.109671474E0
1.139422031E0,1.631486320E1,-5.782854080E0,1.261615753E0
1.141653293E0,1.624905968E1,-5.653043270E0,1.341775298E0
1.143898166E0,1.616949844E1,-5.513661385E0,1.383649707E0
1.146136203E0,1.608096504E1,-5.377869129E0,1.320239902E0
1.148371677E0,1.594038582E1,-5.227120876E0,1.190429211E0
1.150610569E0,1.575195122E1,-5.112864017E0,9.834501147E-1
1.152858859E0,1.554497242E1,-4.989035130E0,6.951149702E-1
1.155095981E0,1.535294819E1,-4.865206718E0,4.019941986E-1
1.157332859E0,1.520279884E1,-4.794618607E0,9.092725813E-2
1.159563876E0,1.503410435E1,-4.680959225E0,-1.447657645E-1
1.161792147E0,1.487857151E1,-4.605585575E0,-3.798605800E-1
1.164042697E0,1.472004700E1,-4.467998028E0,-6.101697683E-1
1.166276889E0,1.453938866E1,-4.388436794E0,-7.028916478E-1
1.168517185E0,1.434437370E1,-4.304089546E0,-6.711867452E-1
1.170747104E0,1.412423420E1,-4.220340729E0,-5.593222976E-1
1.172972445E0,1.387418365E1,-4.174279213E0,-4.085744619E-1
1.175212375E0,1.360558987E1,-4.094119549E0,-2.303091735E-1
1.177461215E0,1.333280754E1,-3.990629911E0,-6.580262631E-2
1.179701572E0,1.314796257E1,-3.887140274E0,-1.058823988E-1
1.181939670E0,1.291107273E1,-3.744767427E0,-1.704886109E-1
1.184171115E0,1.269811153E1,-3.607180119E0,-2.775674164E-1
1.186408115E0,1.250489140E1,-3.464807272E0,-4.085744619E-1
1.188644260E0,1.241276741E1,-3.328416348E0,-6.334998012E-1
1.190881930E0,1.236850071E1,-3.244667530E0,-9.152546525E-1
1.193118686E0,1.231286716E1,-3.218944550E0,-1.164108157E0
1.195355502E0,1.230090332E1,-3.221935749E0,-1.445264935E0
1.197592624E0,1.218006516E1,-3.260818958E0,-1.951945066E0
1.199831271E0,1.197368431E1,-3.367299557E0,-2.106282234E0
1.202065707E0,1.185703468E1,-3.553939819E0,-1.658824325E0
1.204302768E0,1.184028435E1,-3.790230989E0,-1.167099237E0
1.206538791E0,1.187976646E1,-4.104289055E0,-6.562315822E-1
1.208776401E0,1.193659592E1,-4.471587181E0,-7.776673883E-2
1.211008456E0,1.201316643E1,-4.881956577E0,4.289134443E-1
1.213228915E0,1.211306667E1,-5.306682587E0,9.595218897E-1
1.215474826E0,1.215912819E1,-5.807380676E0,1.456630826E0
1.217725314E0,1.211426258E1,-6.339783669E0,1.957927108E0
1.219964389E0,1.204965687E1,-6.862615108E0,2.464009047E0
1.222199802E0,1.198564816E1,-7.361518860E0,3.012563705E0
1.224433139E0,1.182772255E1,-7.772486210E0,3.464807272E0
1.226670688E0,1.165244770E1,-8.106285095E0,3.797409534E0
1.228907260E0,1.142213917E1,-8.385646820E0,3.948157310E0
1.231144077E0,1.121276665E1,-8.602795601E0,3.975674868E0
1.233381381E0,1.102074242E1,-8.694919586E0,3.840480328E0
1.235619846E0,1.091964626E1,-8.638688087E0,3.376870871E0
1.237854282E0,1.091246796E1,-8.496912956E0,2.756531715E0
1.240091281E0,1.099741268E1,-8.288737297E0,2.075175524E0
1.242327365E0,1.115653515E1,-8.005187988E0,1.269990563E0
1.244565036E0,1.125882912E1,-7.644470215E0,4.935196638E-1
1.246801730E0,1.118584728E1,-7.277770042E0,5.324030295E-2
1.249038364E0,1.113440228E1,-6.898507595E0,-1.435693540E-2
1.251275668E0,1.103330517E1,-6.538986206E0,1.028913707E-1
1.253513218E0,1.090528965E1,-6.408577442E0,1.968096644E-1
1.255745090E0,1.079222870E1,-6.272784710E0,2.003988922E-1
1.257985385E0,1.055832958E1,-5.967101574E0,2.632104978E-2
1.260221836E0,1.044826031E1,-5.799603939E0,3.684946895E-1
1.262459872E0,1.060379314E1,-5.661418438E0,8.847461939E-1
1.264695834E0,1.078026390E1,-5.555535793E0,1.238883972E0
1.266932590E0,1.107039356E1,-5.437689304E0,1.651047587E0
1.269170016E0,1.119541931E1,-5.340181828E0,1.833500385E0
1.271408481E0,1.124746323E1,-5.283950806E0,1.996212244E0
1.273643100E0,1.124267673E1,-5.260620594E0,2.067398787E0
1.275879916E0,1.111705399E1,-5.221138954E0,2.209173441E0
1.278116184E0,1.089153004E1,-5.151747227E0,2.435893536E0
1.280353549E0,1.077009487E1,-5.117649555E0,2.692523718E0
1.282590366E0,1.054516983E1,-5.029115200E0,2.842673302E0
1.284827182E0,1.055354404E1,-4.953741074E0,3.123830080E0
1.287064547E0,1.068514919E1,-4.871787071E0,3.549154282E0
1.289303012E0,1.080897808E1,-4.822135925E0,3.765106440E0
1.291537631E0,1.070309544E1,-4.783252239E0,3.878167391E0
1.293774387E0,1.062173939E1,-4.720440865E0,4.025325775E0
1.296010471E0,1.037587738E1,-4.572085857E0,3.841676712E0
1.298247958E0,9.917053223E0,-4.448257446E0,3.327219963E0
1.300481357E0,9.434899330E0,-4.332803726E0,2.726621389E0
1.302709506E0,9.227322578E0,-4.232903481E0,2.486142635E0
1.304958835E0,9.081958771E0,-4.240679741E0,2.679961443E0
1.307197543E0,9.095717430E0,-4.419543266E0,3.028715372E0
1.309434665E0,9.294919968E0,-4.649852753E0,3.488735437E0
1.311668735E0,9.375677109E0,-5.112265587E0,3.966701746E0
1.313904880E0,9.269794464E0,-5.600401402E0,4.348356724E0
1.316142184E0,8.950352669E0,-6.079564095E0,4.456034184E0
1.318379123E0,8.781659126E0,-6.497709751E0,4.440480709E0
1.320615756E0,8.583054543E0,-6.825526714E0,4.716253281E0
1.322853366E0,8.571090698E0,-7.095317364E0,5.102694511E0
1.325091525E0,8.490332603E0,-7.352545738E0,5.154737949E0
1.327326205E0,8.574680328E0,-7.625327587E0,4.898705959E0
1.329559970E0,8.248658180E0,-7.826324463E0,3.985246181E0
1.331787326E0,8.041080475E0,-7.996813297E0,3.272783279E0
1.334036594E0,7.959126472E0,-8.026124954E0,2.666800737E0
1.336272800E0,7.833503246E0,-8.012366295E0,2.193620205E0
1.338508456E0,7.727022648E0,-7.951349735E0,1.868196249E0
1.340735202E0,7.520641804E0,-7.729415417E0,1.083948612E0
1.342986179E0,7.485347271E0,-7.534400463E0,4.917250574E-1
1.345221103E0,7.800601959E0,-8.039285660E0,-9.302098155E-1
1.347460361E0,9.032307625E0,-8.253443718E0,-1.603191197E-1
1.349690524E0,9.550353050E0,-7.803592682E0,1.155135155E0
1.351918918E0,1.000498962E1,-7.508079052E0,2.961117983E0
1.354167758E0,9.608379364E0,-6.885347366E0,3.957728624E0
1.356404575E0,8.436494827E0,-6.072983742E0,2.801397085E0
1.358641940E0,8.598608017E0,-5.782854080E0,4.637888432E0
1.360868381E0,8.951549530E0,-5.539384365E0,6.481558323E0
1.363114780E0,8.123632431E0,-5.077569485E0,6.635297298E0
1.365351779E0,7.060023308E0,-4.286143780E0,4.444668293E0
1.367590853E0,6.583253384E0,-3.742374659E0,3.285943747E0
1.369825473E0,6.150152206E0,-3.166302681E0,2.217548370E0
1.372061984E0,7.310671329E0,-2.868396044E0,3.229114056E0
1.374298801E0,8.102097511E0,-2.782852650E0,3.851248026E0
1.376535983E0,9.254241943E0,-3.239881754E0,5.717649937E0
1.378772922E0,9.719047546E0,-4.119244099E0,7.191628456E0
1.381001193E0,9.948758125E0,-4.497310162E0,6.517450809E0
1.383245883E0,1.112303638E1,-4.849055290E0,8.207381248E0
1.385482029E0,1.130130100E1,-5.685945034E0,9.631111145E0
1.387721469E0,1.083170986E1,-5.936593056E0,8.559126854E0
1.389956393E0,1.090887833E1,-5.943771362E0,7.835297585E0
1.392193393E0,1.113440228E1,-5.821139336E0,7.450651646E0
1.394430575E0,1.134377384E1,-5.663811207E0,7.929215908E0
1.396669223E0,1.142692471E1,-5.503491879E0,9.165108681E0
1.398903537E0,1.168774223E1,-5.415555954E0,1.090768242E1
1.401140414E0,1.139701462E1,-5.190630436E0,1.169611740E1
1.403376621E0,1.027956581E1,-5.113461971E0,1.021256733E1
1.405613986E0,9.013164520E0,-5.430510998E0,5.590231895E0
1.407850619E0,7.963912010E0,-5.814558983E0,1.270588875E0
1.410087619E0,6.814758778E0,-6.052046776E0,-2.334796667E0
1.412324740E0,5.584847927E0,-5.900102615E0,-5.212165833E0
1.414563205E0,4.698905468E0,-5.506483078E0,-7.567301750E0
1.416797580E0,4.259822369E0,-5.178666592E0,-7.824530125E0
1.419030613E0,3.845266104E0,-4.987240791E0,-6.560521603E0
1.421254551E0,3.490530014E0,-4.770092010E0,-4.866403103E0
1.423508151E0,3.654438496E0,-4.655236244E0,-2.404786825E0
1.425745151E0,3.327219963E0,-4.723432064E0,-1.115055323E0
1.427986056E0,2.990430117E0,-4.907081127E0,-6.837490797E-1
1.430219394E0,3.525225878E0,-5.296513081E0,8.434699476E-2
1.432457736E0,4.496711731E0,-5.785246849E0,1.114457130E0
1.434692172E0,5.845665932E0,-6.294320107E0,2.300698996E0
1.436929172E0,7.323832035E0,-6.625127792E0,3.750151396E0
1.439162265E0,7.886743546E0,-6.951747894E0,5.263013363E0
1.441387973E0,7.315456867E0,-7.341778278E0,6.579065800E0
1.443627658E0,7.077371120E0,-7.646862984E0,7.059424877E0
1.445876193E0,7.526623726E0,-7.746763229E0,7.597810268E0
1.448116306E0,8.385048866E0,-7.760521889E0,8.663812637E0
1.450355014E0,9.297910690E0,-7.607979774E0,9.850054741E0
1.452586642E0,9.976874352E0,-7.328019142E0,1.113858986E1
1.454823276E0,9.478569031E0,-6.976274490E0,1.115713406E1
1.457059543E0,7.774280548E0,-6.721438885E0,8.437092781E0
1.459297092E0,6.651448727E0,-6.432505608E0,5.522634506E0
1.461533725E0,6.690930367E0,-5.885147095E0,3.972085476E0
1.463770602E0,6.993622303E0,-5.416752338E0,4.122235298E0
1.466005161E0,7.395616531E0,-5.075176716E0,5.374279499E0
1.468234653E0,7.432705402E0,-4.999204636E0,6.323632240E0
1.470480991E0,6.957729816E0,-5.151148796E0,6.691528320E0
1.472717746E0,6.883552551E0,-5.539384365E0,8.093124390E0
1.474957003E0,5.778068542E0,-5.912664890E0,8.522636414E0
1.477191379E0,5.007579803E0,-6.242874146E0,4.104887009E0
1.479427951E0,5.286941528E0,-6.145965099E0,1.070189953E0
1.481664706E0,5.839683533E0,-5.775077343E0,-2.464607358E-1
1.483901889E0,7.055237770E0,-5.044070244E0,1.615155302E-2
1.486140598E0,7.995018482E0,-4.217350006E0,2.524427772E-1
1.488375095E0,8.835497856E0,-3.592225075E0,-9.870393574E-2
1.490612460E0,9.406186104E0,-2.899502754E0,-7.286145091E-1
1.492848545E0,9.949356079E0,-2.353939295E0,-5.910272002E-1
1.495085483E0,1.099681473E1,-1.569691658E0,1.067198873E0
1.497322238E0,1.120558834E1,-9.074779749E-1,1.954936147E0
1.499556308E0,1.120678520E1,-4.743770957E-1,1.367498159E0
1.501784823E0,1.146042442E1,-7.896314561E-2,9.355936646E-1
1.504035190E0,1.150050354E1,3.684946895E-1,2.817548811E-1
1.506269504E0,1.181994534E1,6.753742099E-1,1.027717352E0
1.508509311E0,1.173679543E1,5.766702294E-1,2.886940479E0
1.510742649E0,1.143529987E1,2.333002090E-1,4.639683247E0
1.512980197E0,1.154895878E1,-2.315055877E-1,6.396014690E0
1.515216586E0,1.147896862E1,-5.312066078E-1,9.285946846E0
1.517453586E0,9.854242325E0,-5.718846321E-1,9.862018585E0
1.519690158E0,8.386244774E0,-8.518448472E-1,7.188637257E0
1.521927280E0,7.302296638E0,-1.344168067E0,4.623531342E0
1.524163791E0,6.432505608E0,-1.965105653E0,3.186043262E0
1.526400668E0,5.157131195E0,-2.989233732E0,1.445264935E0
1.528637424E0,3.451048374E0,-4.275375843E0,-2.470589429E-1
1.530874362E0,1.590030670E0,-5.225326538E0,-1.664208174E0
1.533111362E0,-4.157529473E-1,-6.068198204E0,-4.055834293E0
1.535347934E0,-2.077568293E0,-6.601199627E0,-6.263811588E0
1.537585299E0,-3.786043644E0,-6.671189308E0,-7.299903870E0
1.539823642E0,-4.767100811E0,-6.373881340E0,-6.274579048E0
1.542058139E0,-5.346164227E0,-6.103492260E0,-4.024727821E0
1.544294712E0,-5.943173409E0,-6.411568165E0,-1.764706731E0
1.546529453E0,-3.939184189E0,-5.140381336E0,3.987638950E0
1.548768588E0,-6.579664230E0,-5.794219971E0,1.070189953E0
1.551005344E0,-5.769693375E0,-5.970092297E0,1.292722464E0
1.553242648E0,-4.782055855E0,-5.580062389E0,2.535793781E0
1.555479586E0,-3.916452408E0,-5.533402443E0,4.045664787E0
1.557717990E0,-2.191825628E0,-5.065605640E0,6.716653347E0
1.559952487E0,-9.206385016E-1,-4.695316315E0,7.214360237E0
1.562189670E0,2.847459018E-1,-4.554738045E0,7.053442955E0
1.564425510E0,1.158724308E0,-4.606781960E0,6.126822472E0
1.566663180E0,1.413560033E0,-4.723432064E0,5.772086620E0
1.568899814E0,1.614557028E0,-5.051846981E0,5.807978630E0
1.571136569E0,2.417947292E0,-5.224130154E0,6.315855503E0
1.573374057E0,3.874577999E0,-5.082953453E0,7.173084259E0
1.575612277E0,4.649852753E0,-4.682754040E0,8.018946648E0
1.577846957E0,4.865206718E0,-4.333401680E0,9.250652313E0
1.580083713E0,4.853242397E0,-4.051646709E0,1.127198887E1
1.582320041E0,4.652843475E0,-3.845266104E0,1.281476212E1
1.584557346E0,4.457230568E0,-3.631706476E0,1.368993664E1
1.586791110E0,4.606183529E0,-3.486342669E0,1.388614845E1
1.589016635E0,5.535196781E0,-3.262613773E0,1.314138222E1
1.591253818E0,6.683153629E0,-3.035295486E0,1.199761295E1
1.593492465E0,7.515257835E0,-2.952743053E0,1.112722397E1
1.595729465E0,7.954938889E0,-2.971287489E0,1.061635590E1
1.597969516E0,8.028517723E0,-3.023331404E0,1.030708313E1
1.600217379E0,7.894520283E0,-3.025724173E0,1.025384331E1
1.602451755E0,7.645666599E0,-2.988635540E0,1.027059269E1
1.604676975E0,7.251449108E0,-2.950948477E0,1.056730270E1
1.606913547E0,7.261020184E0,-2.822932482E0,1.081017494E1
1.609162692E0,7.219744205E0,-2.904886723E0,1.103390312E1
1.611404026E0,7.463811874E0,-2.794816732E0,1.121276665E1
1.613638706E0,7.436294556E0,-2.788834810E0,1.107876873E1
1.615872531E0,6.908677101E0,-2.735594511E0,1.068754196E1
1.618108615E0,6.375077724E0,-2.727817774E0,9.695717812E0
1.620343539E0,6.852446079E0,-3.318845034E0,8.847461700E0
1.622572299E0,6.280561447E0,-3.621536970E0,7.917850018E0
1.624819858E0,6.956533432E0,-4.012165546E0,6.494120598E0
1.627056918E0,7.744370461E0,-3.671786308E0,6.872784615E0
1.629298008E0,7.284948349E0,-3.304488182E0,7.463811874E0
1.631530918E0,6.208776474E0,-2.786442041E0,7.591229916E0
1.633768894E0,4.906482697E0,-2.574079037E0,7.240681171E0
1.635992649E0,4.031906128E0,-2.351546526E0,5.539384365E0
1.638240573E0,3.779463291E0,-2.304886341E0,3.662813187E0
1.640476168E0,3.324228764E0,-2.176870346E0,3.257827997E0
1.642716769E0,2.196611166E0,-1.914856315E0,4.009772778E0
1.644951449E0,8.374879360E-1,-1.687538147E0,4.846064091E0
1.647189609E0,7.956135273E-2,-1.427318692E0,4.828716278E0
1.649424045E0,-1.968096644E-1,-1.367498159E0,4.153940201E0
1.651661105E0,-2.081755698E-1,-1.363310695E0,4.387838364E0
1.653897434E0,8.195417374E-2,-1.204786181E0,4.323232174E0
1.656134921E0,4.235295951E-1,-1.054636598E0,3.825525284E0
1.658371799E0,7.405785918E-1,-1.001994491E0,3.785445452E0
1.660608188E0,9.451649189E-1,-1.110269666E0,3.763311863E0
1.662845797E0,5.742774606E-1,-1.060020447E0,3.473780155E0
1.665084140E0,1.770688742E-1,-8.997012973E-1,3.136392355E0
1.667318698E0,-5.862415433E-1,-1.247258782E0,3.291925669E0
1.669552707E0,-8.763712645E-1,-1.706680775E0,2.226521492E0
1.671779941E0,-8.219345808E-1,-2.239681959E0,1.598405480E0
1.674029086E0,-3.308077157E-1,-2.727219582E0,1.027119160E0
1.676265842E0,-1.734796353E-2,-3.072384357E0,1.244267747E-1
1.678502597E0,3.086741269E-1,-3.418147087E0,-5.252245665E-1
1.680727877E0,1.217946768E0,-3.337389469E0,-2.500499785E-1
1.682976230E0,1.811366796E0,-3.226721287E0,6.705885530E-1
1.685201022E0,1.304088354E0,-2.730808735E0,-3.834498227E-1
1.687438571E0,4.815555513E-1,-2.574677229E0,-1.493121386E0
1.689671237E0,-2.291127741E-1,-3.100499868E0,-2.218744755E0
1.691913669E0,-6.454638839E-1,-3.732205153E0,-2.846262455E0
1.694162937E0,-9.044869542E-1,-3.990031719E0,-2.085345030E0
1.696399692E0,-1.020538807E0,-4.080360889E0,-8.560323119E-1
1.698634372E0,-4.761717021E-1,-3.978665829E0,1.740778536E-1
1.700860873E0,2.620140910E-1,-3.653241873E0,6.813562512E-1
1.703107516E0,5.461617708E-1,-3.442673683E0,8.644071817E-1
1.705344211E0,4.911268353E-1,-3.246462107E0,9.684949517E-1
1.707583286E0,2.285145670E-1,-3.042474031E0,1.175474167E0
1.709817905E0,1.974078640E-2,-2.896511793E0,1.240080357E0
1.712051730E0,-4.187439568E-3,-2.895913601E0,1.182652593E0
1.714279575E0,3.828516230E-2,-3.001197815E0,1.126421213E0
1.716528659E0,3.864408433E-1,-3.131008387E0,1.091725349E0
1.718767307E0,7.633104324E-1,-3.367897987E0,1.409970760E0
1.721004734E0,1.240678549E0,-3.468994617E0,2.096710920E0
1.723238803E0,1.674975872E0,-3.479762316E0,2.897109985E0
1.725474765E0,1.937588096E0,-3.524627686E0,3.524029493E0
1.727712131E0,2.036292076E0,-3.530609846E0,4.387838364E0
1.729948703E0,2.133201361E0,-3.551547050E0,5.414359570E0
1.732185764E0,2.234896421E0,-3.662214994E0,6.292525291E0
1.734422946E0,2.554936409E0,-3.782454491E0,7.344769001E0
1.736661655E0,2.776870728E0,-3.838087559E0,8.315058708E0
1.738895969E0,2.657229662E0,-3.952943087E0,8.681160927E0
1.741132846E0,2.034497499E0,-4.118646145E0,8.351549149E0
1.743369052E0,1.238285661E0,-4.319045067E0,8.711668968E0
1.745606540E0,6.711867452E-1,-4.613960266E0,1.018026352E1
1.747843539E0,1.854437590E-1,-5.038686275E0,1.149272728E1
1.750080112E0,-1.938186288E-1,-5.404788017E0,1.217169094E1
1.752317477E0,-5.599204898E-1,-5.649454117E0,1.257428265E1
1.754555820E0,-8.787640929E-1,-5.152345181E0,1.254676533E1
1.756790317E0,-9.631111026E-1,-4.966901779E0,1.207837009E1
1.759027377E0,-1.927418590E0,-5.505885124E0,1.184148121E1
1.761263645E0,-3.086143017E0,-5.456831932E0,1.123490047E1
1.763501010E0,-3.860819340E0,-5.656034470E0,1.131864929E1
1.765737521E0,-4.264608383E0,-5.636293888E0,1.155314636E1
1.767974338E0,-4.525425911E0,-5.493322372E0,1.146461105E1
1.770211703E0,-4.066602230E0,-5.281557560E0,1.074377346E1
1.772450229E0,-3.833301783E0,-4.703691006E0,1.021077251E1
1.774684848E0,-4.950749874E0,-4.165306091E0,1.009950638E1
1.776921664E0,-4.633700848E0,-2.779263496E0,1.129232788E1
1.779157932E0,-2.922832966E0,-1.769492388E0,1.372881985E1
1.781395236E0,-9.936196208E-1,-1.778465390E0,1.446640778E1
1.783631869E0,-6.071787477E-1,-2.429313183E0,1.231585789E1
1.785868869E0,-2.242672920E0,-2.948555708E0,9.173483849E0
1.788105990E0,-4.293920040E0,-2.693121910E0,7.237092018E0
1.790344516E0,-5.754140377E0,-1.851446509E0,6.869793892E0
1.792579074E0,-5.975476265E0,-1.125224829E0,7.700701237E0
1.794815891E0,-4.680959225E0,-8.709874153E-1,7.469195843E0
1.797051914E0,-3.405584812E0,-1.066600680E0,6.312864304E0
1.799289340E0,-2.493919373E0,-1.448854089E0,5.487340450E0
1.801526401E0,-2.487339020E0,-1.932802439E0,5.593223095E0
1.803763217E0,-3.104687452E0,-2.279761791E0,6.041278839E0
1.806000399E0,-3.930809498E0,-2.665006161E0,6.244070530E0
1.808239047E0,-5.018945694E0,-3.226721287E0,7.079165936E0
1.810473666E0,-5.893522263E0,-3.713660717E0,7.729415417E0
1.812710483E0,-6.168696880E0,-4.116851330E0,7.913662910E0
1.814946445E0,-5.968297958E0,-4.837090969E0,7.878966808E0
1.817183810E0,-6.126224041E0,-5.226522923E0,7.792226791E0
1.819420688E0,-6.624529362E0,-5.608776093E0,8.317451477E0
1.821657809E0,-7.019345284E0,-5.984449387E0,9.081958771E0
1.823895114E0,-7.457231998E0,-6.335596085E0,9.894321442E0
1.826133273E0,-7.461419106E0,-6.666403770E0,1.101057339E1
1.828367648E0,-7.001997471E0,-7.010970116E0,1.164945698E1
1.830604709E0,-6.602993965E0,-7.447062492E0,1.252642632E1
1.832840976E0,-6.077769279E0,-7.968697548E0,1.296132183E1
1.835078159E0,-4.871787071E0,-8.505886078E0,1.336451244E1
1.837314914E0,-3.999603033E0,-8.579465866E0,1.502692604E1
1.839548800E0,-3.358924866E0,-8.356334686E0,1.626281929E1
1.841777438E0,-2.682952404E0,-8.062616348E0,1.667378616E1
1.844027560E0,-1.850250125E0,-7.886145115E0,1.717268944E1
1.846261996E0,-1.182054400E0,-7.581658363E0,1.745444489E1
1.848502048E0,-1.363908947E-1,-7.629515171E0,1.715893173E1
1.850735569E0,5.234299302E-1,-7.849056244E0,1.694118500E1
1.852972751E0,2.775674164E-1,-7.682157040E0,1.684367752E1
1.855209506E0,5.503492355E-1,-7.726424217E0,1.615454292E1
1.857446262E0,1.232303679E-1,-7.845467091E0,1.546421432E1
1.859683627E0,-7.136593461E-1,-7.603193760E0,1.449751377E1
1.861921848E0,-1.277169108E0,-7.298707485E0,1.358106327E1
1.864156467E0,-1.314257860E0,-7.006783009E0,1.276032448E1
1.866393222E0,-7.435696125E-1,-6.927221775E0,1.226919842E1
1.868629367E0,3.176472187E-1,-7.055237770E0,1.170748329E1
1.870866977E0,8.662018180E-1,-7.265805721E0,1.103091240E1
1.873103793E0,1.036690354E0,-7.475177765E0,1.025563812E1
1.875337680E0,8.967102766E-1,-7.655836105E0,9.439086914E0
1.877562961E0,5.647061467E-1,-7.875975609E0,8.635098457E0
1.879804233E0,3.200400174E-1,-8.030911446E0,7.827520847E0
1.882051059E0,3.056831062E-1,-8.188837051E0,6.902695179E0
1.884290805E0,3.744767308E-1,-8.261817932E0,5.935396671E0
1.886526950E0,4.277170599E-1,-8.330612183E0,5.172684193E0
1.888761447E0,5.467599630E-1,-8.286943436E0,4.721039295E0
1.890998019E0,3.990031779E-1,-8.289336205E0,4.628915310E0
1.893234897E0,5.521438122E-1,-8.392825127E0,3.844069481E0
1.895472201E0,8.691928387E-1,-8.333004951E0,3.260220766E0
1.897710666E0,1.073180914E0,-8.182256699E0,3.185445070E0
1.899945102E0,1.133001566E0,-7.959126472E0,3.257229805E0
1.902182101E0,1.012762189E0,-7.838887215E0,3.541975737E0
1.904418186E0,1.124626637E0,-7.929814339E0,3.147160053E0
1.906655795E0,1.381256819E0,-8.224131584E0,2.864208698E0
1.908892368E0,1.588235974E0,-8.359326363E0,2.522633314E0
1.911129489E0,1.697109461E0,-8.465806961E0,2.519043922E0
1.913366732E0,2.096112728E0,-8.376075745E0,2.465803623E0
1.915604953E0,2.290529490E0,-8.309076309E0,2.863012314E0
1.917835178E0,2.060220242E0,-8.337790489E0,3.485744476E0
1.920059726E0,2.009372711E0,-8.417351723E0,4.281357765E0
1.922312412E0,2.397608280E0,-8.161319733E0,3.531208038E0
1.924549899E0,2.591426849E0,-7.635497093E0,2.993421078E0
1.926791049E0,2.472383976E0,-7.241877556E0,3.049054146E0
1.929023776E0,2.432902336E0,-6.771687984E0,2.842673302E0
1.931261142E0,2.237887383E0,-6.558726788E0,3.026322365E0
1.933499484E0,2.082353830E0,-6.303891182E0,3.167499065E0
1.935733920E0,1.829312921E0,-6.186044693E0,3.298506021E0
1.937967990E0,1.528415442E0,-6.159723759E0,3.796811342E0
1.940192294E0,1.619940877E0,-5.982655048E0,3.420539856E0
1.942432712E0,1.228714466E0,-6.192026615E0,3.503092289E0
1.944681369E0,8.099704385E-1,-6.338587284E0,3.475574970E0
1.946920871E0,7.633104324E-1,-6.135197163E0,3.069393158E0
1.949158054E0,6.646065116E-1,-6.080162525E0,2.901297569E0
1.951393771E0,5.365904570E-1,-5.977869034E0,2.938386202E0
1.953628391E0,3.397808075E-1,-5.975476265E0,3.002992392E0
1.955865024E0,2.548356056E-1,-5.921039581E0,2.959323406E0
1.958101230E0,-6.161518395E-2,-6.052046776E0,3.295515060E0
1.960338596E0,-3.361915946E-1,-5.998208046E0,2.977867842E0
1.962576633E0,-5.629115105E-1,-5.888736725E0,2.804388046E0
1.964813937E0,-8.009973764E-1,-5.827719688E0,2.696711063E0
1.967037631E0,-8.925228715E-1,-5.705087185E0,2.380858421E0
1.969287814E0,-8.626125455E-1,-5.507679462E0,2.032702923E0
1.971518588E0,-1.004985452E0,-5.292923450E0,1.606780410E0
1.973748569E0,-1.176670551E0,-5.149354458E0,1.161715388E0
1.975980991E0,-1.263410330E0,-5.050650597E0,7.932206988E-1
1.978218539E0,-1.184447169E0,-4.849055290E0,3.170489967E-1
1.980457919E0,-1.211964726E0,-4.823930264E0,1.495514214E-1
1.982698276E0,-9.421738982E-1,-4.915455818E0,4.432703853E-1
1.984946872E0,-5.359922647E-1,-4.993222713E0,4.091726840E-1
1.987185520E0,-3.469592705E-2,-4.773082733E0,-1.878365725E-1
1.989419590E0,6.388836503E-1,-4.634299278E0,-2.961117923E-1
1.991653842E0,8.943174481E-1,-3.948755503E0,-4.666004181E-1
1.993890049E0,1.144965649E0,-3.179463148E0,-1.052243710E0
1.996127536E0,1.453041553E0,-2.278565407E0,-1.427318692E0
1.998364230E0,1.643869162E0,-1.274776220E0,-1.913659930E0
2.000600864E0,1.732403636E0,-5.874379873E-1,-9.559326172E-1
2.002835422E0,2.482553482E0,-1.190429211E0,-1.167099237E0
2.005064670E0,3.368496180E0,-1.724028707E0,-1.472782373E0
2.007311374E0,3.852444410E0,-2.465205431E0,-9.900303483E-1
2.009545321E0,4.274179459E0,-3.378665686E0,-3.074777126E-1
2.011775669E0,4.755136967E0,-4.306482315E0,1.800599098E-1
2.014022739E0,5.099104881E0,-5.060820103E0,7.567301393E-1
2.016258578E0,5.195415974E0,-5.663212776E0,1.454836130E0
2.018497714E0,5.145765305E0,-6.200401783E0,1.917847395E0
2.020728854E0,4.917250633E0,-6.576673031E0,2.216351986E0
2.022971164E0,4.681557655E0,-6.860820770E0,2.448455811E0
2.025202487E0,4.707280159E0,-7.254439831E0,2.668595552E0
2.027431308E0,4.905286312E0,-7.566105366E0,3.138186932E0
2.029675754E0,5.242076397E0,-7.756334782E0,3.838087559E0
2.031904575E0,5.774479389E0,-7.911868095E0,4.715655327E0
2.034155857E0,6.606583118E0,-8.016553879E0,5.863611698E0
2.036389743E0,7.514659405E0,-8.151150703E0,7.121040344E0
2.038627170E0,8.416753769E0,-8.395217896E0,8.350353241E0
2.040853610E0,9.376275063E0,-8.621339798E0,9.542576790E0
2.043097384E0,1.012762165E1,-8.857032776E0,1.048893833E1
2.045324924E0,1.057029438E1,-8.977272034E0,1.122293663E1
2.047576205E0,1.109372425E1,-9.001798630E0,1.166142082E1
2.049810458E0,1.133839035E1,-9.451649666E0,1.194616699E1
2.052050083E0,1.121934700E1,-1.005763149E1,1.199821091E1
2.054283908E0,1.142453194E1,-1.041476059E1,1.205803108E1
2.056521335E0,1.180798149E1,-1.075992489E1,1.201436234E1
2.058760043E0,1.236550903E1,-1.096451187E1,1.204846001E1
2.060994418E0,1.306301689E1,-1.104706383E1,1.211246777E1
2.063231235E0,1.359541988E1,-1.105962658E1,1.201735306E1
2.065467441E0,1.392562962E1,-1.099083233E1,1.155254745E1
2.067704929E0,1.393938828E1,-1.084786129E1,1.067079258E1
2.069941928E0,1.373360538E1,-1.072044373E1,9.724431038E0
2.072178439E0,1.337887001E1,-1.057687473E1,8.800203323E0
2.074415561E0,1.289671612E1,-1.053260708E1,8.056633949E0
2.076653964E0,1.245703506E1,-1.048893833E1,7.380063057E0
2.078888644E0,1.086879826E1,-1.123549843E1,7.509873867E0
2.081125522E0,9.558130264E0,-1.156211948E1,7.861020565E0
2.083361789E0,8.632705688E0,-1.190309620E1,9.135796547E0
2.085599277E0,9.622735977E0,-1.143829060E1,7.780262947E0
2.087836459E0,9.543772697E0,-1.131565857E1,6.486942291E0
2.090072787E0,9.306883812E0,-1.102074242E1,5.497509956E0
2.092310153E0,9.001200676E0,-1.073420238E1,4.673780918E0
2.094548496E0,8.825926781E0,-1.045484066E1,3.741776466E0
2.096783298E0,8.803194046E0,-1.011565781E1,2.997608662E0
2.099020297E0,8.767900467E0,-9.854840279E0,2.490928411E0
2.101253390E0,8.736195564E0,-9.674779892E0,1.961516380E0
2.103478976E0,8.737391472E0,-9.500701904E0,1.536790371E0
2.105718417E0,8.442476273E0,-9.637093544E0,1.000199914E0
2.107967075E0,8.347960472E0,-9.734002113E0,6.891329288E-1
2.110207553E0,8.291130066E0,-9.837491989E0,4.031906128E-1
2.112445774E0,8.021938324E0,-1.006600666E1,7.178468257E-2
2.114677219E0,8.037490845E0,-1.010788059E1,-1.615155339E-1
2.116914035E0,7.566703320E0,-1.031545830E1,-3.469592929E-1
2.119150608E0,6.662216663E0,-1.060558796E1,1.698904037E-1
2.121388095E0,5.928816319E0,-1.080179977E1,5.018945336E-1
2.123625095E0,5.283352375E0,-1.097408295E1,6.490531564E-1
2.125861545E0,4.580460548E0,-1.122652531E1,5.808576941E-1
2.128098727E0,3.872783422E0,-1.151665497E1,4.941178858E-1
2.130337314E0,3.228515863E0,-1.184447193E1,1.692921966E-1
2.132571750E0,2.925225735E0,-1.178106213E1,-1.627119333E-1
2.134808566E0,2.753540754E0,-1.160937691E1,-5.126622319E-1
2.137044651E0,2.618944407E0,-1.142453194E1,-7.196413875E-1
2.139282565E0,2.553141832E0,-1.108833981E1,-8.494520187E-1
2.141519321E0,2.675175667E0,-1.066361427E1,-1.001396298E0
2.143755954E0,2.947359324E0,-1.012642574E1,-1.147956610E0
2.145993197E0,3.195016384E0,-9.594620705E0,-1.184447169E0
2.148231601E0,3.456432343E0,-9.058030128E0,-1.173679471E0
2.150466037E0,3.806980848E0,-8.628518105E0,-1.085145116E0
2.152702853E0,4.399204254E0,-8.237292290E0,-7.561319470E-1
2.154939121E0,5.030909538E0,-7.563712597E0,-5.940182209E-1
2.157176547E0,5.468796253E0,-7.016354084E0,-5.000999570E-1
2.159413364E0,5.888138294E0,-6.646663189E0,-7.298108935E-2
2.161650119E0,6.257231236E0,-6.363113403E0,4.163511395E-1
2.163887362E0,6.574878216E0,-6.082555294E0,6.909275651E-1
2.166126193E0,6.887141705E0,-5.887540340E0,9.744769931E-1
2.168360385E0,7.080960274E0,-5.661418438E0,1.080957651E0
2.170597507E0,7.366902828E0,-5.431707382E0,1.107278705E0
2.172833591E0,7.828119278E0,-5.041677475E0,1.053440213E0
2.175070834E0,8.212167740E0,-4.532006264E0,1.265803218E0
2.177307651E0,8.196614265E0,-4.097708702E0,1.608574986E0
2.179541659E0,7.652844906E0,-4.127020836E0,2.428116798E0
2.181769870E0,8.036294937E0,-3.731606960E0,2.540579557E0
2.184020297E0,7.886743546E0,-3.724428415E0,1.485344648E0
2.186254855E0,8.128418922E0,-3.808177233E0,-7.674978375E-1
2.188494663E0,9.050253868E0,-3.653241873E0,-1.154536903E-1
2.190727756E0,9.383454323E0,-3.647858143E0,8.027920127E-1
2.192962314E0,9.089735031E0,-3.756731510E0,1.372882009E0
2.195189914E0,8.498707771E0,-3.900300980E0,1.338784218E0
2.197438815E0,7.134799004E0,-4.693521500E0,1.503889084E0
2.199676486E0,6.287739754E0,-5.297709465E0,1.535593987E0
2.201918308E0,5.976672649E0,-5.472983360E0,1.118046403E0
2.204149203E0,5.699105263E0,-5.833701611E0,4.725824594E-1
2.206385959E0,5.569892883E0,-6.163312912E0,-1.764706671E-1
2.208622104E0,5.727818966E0,-6.445665836E0,-6.562315822E-1
2.210859653E0,5.989833355E0,-6.701697826E0,-9.254241586E-1
2.213096469E0,6.340381622E0,-6.979265213E0,-9.595218897E-1
2.215333286E0,6.784848690E0,-7.335795879E0,-8.691928387E-1
2.217570651E0,6.761518478E0,-7.715058327E0,-4.588237405E-1
2.219809116E0,6.652645111E0,-8.036294937E0,6.520441920E-2
2.222043735E0,6.734599113E0,-8.313263893E0,6.532405615E-1
2.224280490E0,6.510272026E0,-8.440083504E0,9.421738982E-1
2.226516513E0,6.425326824E0,-8.408378601E0,1.479960799E0
2.228753879E0,6.627520561E0,-8.309076309E0,2.134995937E0
2.230990695E0,7.099504948E0,-8.216354370E0,3.178864956E0
2.233224582E0,7.764709473E0,-8.449056625E0,4.692325115E0
2.235449985E0,8.612964630E0,-7.995018482E0,6.038886070E0
2.237691440E0,9.416953087E0,-7.344171047E0,7.375875950E0
2.239937961E0,1.012164021E1,-6.906882763E0,8.740383148E0
2.242177585E0,1.077248764E1,-6.521637917E0,1.011446095E1
2.244414096E0,1.133839035E1,-6.196214199E0,1.121575832E1
2.246648471E0,1.174875927E1,-5.943173409E0,1.193420315E1
2.248885348E0,1.211067390E1,-5.854638577E0,1.234756279E1
2.251122104E0,1.257069397E1,-5.804389477E0,1.241815090E1
2.253359408E0,1.297567940E1,-5.780461311E0,1.213101292E1
2.255597629E0,1.327358532E1,-5.720042706E0,1.156630611E1
2.257832309E0,1.336690521E1,-5.603392601E0,1.089452171E1
2.260066317E0,1.333579922E1,-5.442475319E0,1.026461124E1
2.262290866E0,1.316590881E1,-5.212165833E0,9.723833084E0
2.264529696E0,1.294277763E1,-4.925027370E0,9.397212982E0
2.266765353E0,1.281595802E1,-4.596612453E0,9.095118523E0
2.269004794E0,1.269691563E1,-4.349553585E0,8.797810555E0
2.271244846E0,1.254437256E1,-4.182653904E0,8.424530029E0
2.273495029E0,1.239302635E1,-4.222135544E0,8.112865448E0
2.275729770E0,1.218963718E1,-4.433301926E0,7.996813297E0
2.277966465E0,1.089930725E1,-5.749354839E0,8.240283012E0
2.280199619E0,8.878568649E0,-7.801199913E0,8.611170769E0
2.282436984E0,9.972088814E0,-7.892127514E0,8.268398285E0
2.284673801E0,1.111884880E1,-7.478767395E0,8.211568832E0
2.286910678E0,1.050209904E1,-7.799405575E0,8.091927528E0
2.289148043E0,9.739386559E0,-8.411968231E0,7.642675400E0
2.291386508E0,8.799007416E0,-8.672187805E0,7.987242222E0
2.293621066E0,8.366504669E0,-8.502297401E0,7.868797302E0
2.295857639E0,7.947162151E0,-8.257631302E0,7.998009682E0
2.298093967E0,7.230511665E0,-8.036892891E0,8.110472679E0
2.300331516E0,6.386443615E0,-7.827520847E0,8.059026718E0
2.302568210E0,5.743372440E0,-7.640282631E0,7.886145115E0
2.304805209E0,5.618945599E0,-7.454838753E0,7.584051132E0
2.307042331E0,5.816951752E0,-7.245467186E0,7.165905476E0
2.309280978E0,6.077171326E0,-7.094120979E0,6.643671989E0
2.311515109E0,6.443273067E0,-7.014559746E0,5.941378593E0
2.313752170E0,6.736393929E0,-6.991827965E0,5.304887772E0
2.315988193E0,6.975676060E0,-7.021139622E0,4.696512699E0
2.318225864E0,7.239484787E0,-7.026523590E0,3.974478483E0
2.320462375E0,7.735397339E0,-6.958328247E0,3.192025423E0
2.322699252E0,8.530412674E0,-6.783053875E0,2.936591625E0
2.324936618E0,8.980861664E0,-6.573681831E0,2.764308453E0
2.327175327E0,9.070592880E0,-6.321238995E0,2.717050076E0
2.329409763E0,9.158528328E0,-6.037091732E0,3.055634499E0
2.331646762E0,9.150752068E0,-5.732604980E0,3.364906788E0
2.333882724E0,9.099904060E0,-5.389832973E0,3.807579041E0
2.336120090E0,9.028120041E0,-5.033302307E0,4.450051785E0
2.338356662E0,9.022735596E0,-4.691727161E0,5.083551884E0
2.340593784E0,9.148957253E0,-4.323232174E0,5.608776093E0
2.342831149E0,9.317651749E0,-4.016951084E0,5.971887112E0
2.345069614E0,9.530612946E0,-3.838685751E0,6.087938786E0
2.347303989E0,9.618548393E0,-3.639483213E0,6.179464340E0
2.349538058E0,9.553942680E0,-3.471387386E0,6.163911343E0
2.351765781E0,9.225527763E0,-3.408575773E0,6.069993019E0
2.354016391E0,8.718847275E0,-3.366701365E0,5.936593056E0
2.356251254E0,8.192426682E0,-3.491128206E0,5.660222054E0
2.358488315E0,7.750352383E0,-3.742972851E0,4.741377831E0
2.360713229E0,7.229315281E0,-4.025924206E0,3.516252756E0
2.362963840E0,6.561717987E0,-4.380660057E0,1.841875196E0
2.365198215E0,5.638088226E0,-4.848456860E0,-3.643072546E-1
2.367438205E0,4.810770035E0,-5.401797295E0,-3.951746702E0
2.369668491E0,3.936791420E0,-6.071787357E0,-7.983652592E0
2.371894564E0,3.110669374E0,-6.733402729E0,-1.192403316E1
2.374133823E0,1.916052699E0,-7.328617573E0,-1.468535042E1
2.376382602E0,7.794619799E-1,-7.775477409E0,-1.654995728E1
2.378619540E0,4.887340367E-1,-7.889136314E0,-1.690529251E1
2.380849155E0,9.008977413E-1,-7.867600918E0,-1.569990730E1
2.383092746E0,1.878963947E0,-7.558926582E0,-1.338365555E1
2.385329623E0,3.156731367E0,-6.892525673E0,-1.083111191E1
2.387568881E0,4.275375843E0,-6.220142365E0,-8.027919769E0
2.389803256E0,5.221737385E0,-5.544768333E0,-5.292923450E0
2.392040073E0,5.920441628E0,-4.992624283E0,-2.974278450E0
2.394276889E0,6.437291145E0,-4.655834675E0,-1.134197950E0
2.396514254E0,6.716653347E0,-4.546362877E0,1.124626622E-1
2.398752658E0,7.076174736E0,-4.671388149E0,1.093519926E0
2.400984592E0,7.262216568E0,-5.083551884E0,1.644467354E0
2.403214084E0,7.328617573E0,-5.693123341E0,1.855633974E0
2.405460117E0,7.258627415E0,-6.481558323E0,1.966302037E0
2.407697543E0,7.121040344E0,-7.354938507E0,2.052443504E0
2.409936801E0,7.026523590E0,-8.186444283E0,2.181656122E0
2.412171176E0,6.908677101E0,-8.959924698E0,2.338984251E0
2.414408542E0,6.893123627E0,-9.587442398E0,2.535195589E0
2.416646945E0,6.818347931E0,-9.998409271E0,2.730808735E0
2.418881320E0,6.737590313E0,-1.018923664E1,2.897708178E0
2.421118137E0,7.033103943E0,-1.013779163E1,3.219542980E0
2.423354465E0,7.514659405E0,-9.802198410E0,3.528815269E0
2.425592197E0,8.176275253E0,-9.240483284E0,3.881756544E0
2.427829135E0,8.687142372E0,-8.532207489E0,4.171288013E0
2.430065524E0,9.065208435E0,-7.749754429E0,4.421338081E0
2.432302951E0,9.232706070E0,-7.031309128E0,4.593621254E0
2.434540927E0,9.078369141E0,-6.402595043E0,4.662415028E0
2.436772982E0,8.794221878E0,-5.871986866E0,4.601995945E0
2.438997958E0,8.436494827E0,-5.459823132E0,4.554738045E0
2.441237155E0,7.989036560E0,-5.218746185E0,4.598406792E0
2.443486545E0,7.521838188E0,-5.015954494E0,4.650450706E0
2.445722812E0,7.195217609E0,-4.795814991E0,4.618745804E0
2.447950717E0,7.063612461E0,-4.602594376E0,4.650450706E0
2.450197055E0,7.156932354E0,-4.408177376E0,4.698905468E0
2.452435886E0,7.532605648E0,-4.204189301E0,4.806582451E0
2.454673496E0,8.182256699E0,-3.879961967E0,5.041079044E0
2.456907260E0,8.791828156E0,-3.680161238E0,5.289334297E0
2.459143222E0,9.398408890E0,-3.614358664E0,5.604588985E0
2.461380588E0,9.938589096E0,-3.599403381E0,5.776872158E0
2.463617404E0,1.035434151E1,-3.663411379E0,5.785246849E0
2.465854282E0,1.061216831E1,-3.871587038E0,5.568696499E0
2.468091647E0,1.073061275E1,-4.172484398E0,5.150550842E0
2.470330112E0,1.074855900E1,-4.614558697E0,4.541577339E0
2.472564670E0,1.074676514E1,-5.099104881E0,3.826721668E0
2.474801242E0,1.071625614E1,-5.621338367E0,3.112463951E0
2.477037509E0,1.056610680E1,-6.079564095E0,2.453839540E0
2.479274936E0,1.033460140E1,-6.475576401E0,1.984846354E0
2.481512057E0,1.015454102E1,-6.759125710E0,1.788036704E0
2.483748752E0,1.006421185E1,-6.963712215E0,1.925624013E0
2.485985690E0,9.978668213E0,-6.993622303E0,2.383251429E0
2.488224277E0,9.825528145E0,-6.951149940E0,3.044268608E0
2.490458713E0,9.745966911E0,-6.819544315E0,3.692125320E0
2.492695834E0,9.863813400E0,-6.689135551E0,4.121636868E0
2.494931858E0,9.760921478E0,-6.608377934E0,4.573880672E0
2.497169528E0,9.787840843E0,-6.562914371E0,4.893322468E0
2.499406284E0,9.661619186E0,-6.580860615E0,5.054239750E0
2.501643161E0,9.593423843E0,-6.652047157E0,5.120640278E0
2.503880465E0,9.471389771E0,-6.736393929E0,5.205585480E0
2.506118869E0,9.326025963E0,-6.887141705E0,5.180460930E0
2.508353244E0,9.301499367E0,-6.977470875E0,5.085346222E0
2.510590060E0,9.431908607E0,-7.001997471E0,4.862215519E0
2.512826328E0,9.787242889E0,-7.054639339E0,4.722833633E0
2.515063754E0,9.984650612E0,-7.061219692E0,4.519443989E0
2.517300571E0,1.027597713E1,-7.030112743E0,4.121636868E0
2.519534335E0,1.067079258E1,-7.034898758E0,3.881756544E0
2.521762606E0,1.115474129E1,-7.046862602E0,3.819543123E0
2.524010409E0,1.147657585E1,-7.070192814E0,3.722633839E0
2.526235507E0,1.150170040E1,-7.055835724E0,3.560520172E0
2.528487216E0,1.181815147E1,-7.022336483E0,3.597010612E0
2.530720859E0,1.207418346E1,-6.844669342E0,3.670589924E0
2.532961277E0,1.192343521E1,-6.760322094E0,3.516252756E0
2.535194919E0,1.215972614E1,-6.597012043E0,3.570689678E0
2.537431613E0,1.217169094E1,-6.406184196E0,3.627519131E0
2.539666050E0,1.230090332E1,-6.280561447E0,3.890729666E0
2.541895786E0,1.204487133E1,-6.042475224E0,3.993022680E0
2.544142123E0,1.170568848E1,-5.782854080E0,3.722633839E0
2.546378879E0,1.158305645E1,-5.671587944E0,4.856233597E0
2.548617892E0,1.096989536E1,-5.230112076E0,4.506283283E0
2.550852573E0,1.086102200E1,-4.850251675E0,4.414159775E0
2.553089328E0,1.053978539E1,-4.543970108E0,4.348356724E0
2.555325961E0,1.014018440E1,-4.125226021E0,4.162913322E0
2.557563266E0,9.661021233E0,-3.662214994E0,3.852444410E0
2.559801730E0,9.187242508E0,-3.226721287E0,3.308675528E0
2.562036411E0,8.739784241E0,-2.624926329E0,2.855235577E0
2.564273166E0,8.703293800E0,-2.357528448E0,3.087937593E0
2.566506320E0,8.886942863E0,-2.564507723E0,3.762713671E0
2.568735080E0,9.171091080E0,-2.863012314E0,4.223331928E0
2.570983432E0,9.371489525E0,-3.011965513E0,4.683351994E0
2.573220554E0,9.092127800E0,-3.183650494E0,4.566701889E0
2.575460788E0,8.884550095E0,-3.169293642E0,4.183252335E0
2.577696323E0,9.734002113E0,-3.227917671E0,3.828516245E0
2.579930637E0,1.055354404E1,-3.081357241E0,3.511467218E0
2.582167453E0,9.277571678E0,-3.302693367E0,3.862613916E0
2.584403720E0,8.285148621E0,-2.779861689E0,3.686143398E0
2.586641147E0,7.227520943E0,-2.566302299E0,3.380460262E0
2.588877963E0,6.315855503E0,-2.484348059E0,3.061616659E0
2.591114780E0,5.425127029E0,-2.391626120E0,2.624328136E0
2.593352084E0,4.585844517E0,-2.305484533E0,2.263610125E0
2.595590305E0,3.894917011E0,-2.221735716E0,1.942373753E0
2.597824985E0,3.387040377E0,-2.214557409E0,1.966302037E0
2.600059115E0,3.111267567E0,-2.159522533E0,2.407179594E0
2.602283664E0,2.844467878E0,-2.034497499E0,3.024527788E0
2.604523776E0,2.228914261E0,-1.731805444E0,2.688934565E0
2.606772494E0,1.468594909E0,-1.440479279E0,1.227517962E0
2.609012180E0,6.999006271E-1,-1.250848055E0,1.375873014E-2
2.611246982E0,1.040877849E-1,-1.104287624E0,-7.363911867E-1
2.613472323E0,-4.091726840E-1,-1.046859860E0,-1.127019525E0
2.615704440E0,-9.110672474E-1,-1.028913736E0,-1.274776220E0
2.617944125E0,-1.336989641E0,-1.045663476E0,-1.374078393E0
2.620191989E0,-1.644467354E0,-1.117448211E0,-1.372283816E0
2.622420993E0,-1.888535261E0,-1.113858938E0,-1.407577872E0
2.624669834E0,-1.600200176E0,-1.008574724E0,-1.362114310E0
2.626903537E0,-3.828516304E-1,-9.080761671E-1,-1.232303619E0
2.629143710E0,1.143769264E0,-9.870393276E-1,-5.312066078E-1
2.631379367E0,2.327618122E0,-1.180858016E0,2.955136001E-1
2.633613742E0,3.144168854E0,-1.396810174E0,8.614161611E-1
2.635850619E0,3.650250912E0,-1.616949916E0,1.223928809E0
2.638086826E0,3.915256023E0,-1.770090580E0,1.388435364E0
2.640324252E0,4.076771736E0,-1.872981906E0,1.366301775E0
2.642561069E0,4.224528313E0,-1.927418590E0,1.372882009E0
2.644797885E0,4.319045067E0,-1.996212244E0,1.435693622E0
2.647035251E0,4.365106583E0,-2.069193363E0,1.484148264E0
2.649273654E0,4.408177376E0,-2.103291035E0,1.455434322E0
2.651508029E0,4.431507587E0,-2.189432621E0,1.412961721E0
2.653744846E0,4.329812527E0,-2.273779631E0,1.350150228E0
2.655981174E0,4.191029072E0,-2.394617319E0,1.134796143E0
2.658218784E0,3.984049797E0,-2.600399971E0,8.422735929E-1
2.660455356E0,3.682554007E0,-2.823530674E0,4.486542344E-1
2.662692172E0,3.399004459E0,-3.075973511E0,7.477571070E-2
2.664929538E0,3.173480988E0,-3.300300598E0,-2.991028428E-1
2.667168185E0,3.023929596E0,-3.554538012E0,-6.526423693E-1
2.669402377E0,3.046063185E0,-3.816552162E0,-8.668000102E-1
2.671639438E0,3.061616659E0,-4.074976921E0,-8.997012973E-1
2.673875583E0,3.067000389E0,-4.328616142E0,-8.416753411E-1
2.676112888E0,3.116651535E0,-4.530809879E0,-8.075776696E-1
2.678349887E0,3.196212769E0,-4.637290478E0,-7.447660565E-1
2.680586642E0,3.430111170E0,-4.594219685E0,-5.563312769E-1
2.682823886E0,3.501895905E0,-4.656432629E0,-6.891329288E-1
2.685062473E0,3.608376503E0,-4.680959225E0,-8.650053740E-1
2.687296909E0,3.451646566E0,-4.459623337E0,-6.664010882E-1
2.689530917E0,3.394817114E0,-4.368695736E0,-5.288137794E-1
2.691756747E0,3.470789194E0,-4.455435753E0,-6.472585201E-1
2.694003025E0,3.605983734E0,-4.532604218E0,-9.224331379E-1
2.696242404E0,3.826721668E0,-4.564309120E0,-1.034895778E0
2.698484348E0,4.091726780E0,-4.618147850E0,-6.460621357E-1
2.700720554E0,3.997808456E0,-4.979464054E0,2.596212626E-1
2.702957187E0,4.231706619E0,-5.163711071E0,-1.435693540E-2
2.705191135E0,4.942973614E0,-5.332405090E0,3.050848842E-2
2.707427646E0,5.584847927E0,-5.449055195E0,4.325026870E-1
2.709661227E0,6.034100533E0,-5.494519234E0,4.606183469E-1
2.711886691E0,6.369693756E0,-5.452046394E0,5.730810165E-1
2.714126559E0,6.668796539E0,-5.368297577E0,1.048056364E0
2.716375522E0,6.951149940E0,-5.280959606E0,1.841875196E0
2.718612643E0,7.111468792E0,-5.235496044E0,2.877967358E0
2.720842075E0,7.257431030E0,-5.228317261E0,3.838087559E0
2.723085422E0,7.500900745E0,-5.220541000E0,4.526622295E0
2.725322482E0,7.822137356E0,-5.209175110E0,5.116453171E0
2.727561557E0,8.263612747E0,-5.142774105E0,5.735595703E0
2.729796176E0,8.828917503E0,-5.168497086E0,6.346364021E0
2.732032748E0,9.386445045E0,-5.211567879E0,6.646663189E0
2.734269748E0,9.531210899E0,-5.291727066E0,6.934400082E0
2.736506686E0,9.617950439E0,-5.250451088E0,6.982854843E0
2.738745639E0,9.658030510E0,-5.276772022E0,7.307680130E0
2.740979953E0,9.605986595E0,-5.570491314E0,7.908278942E0
2.743216891E0,9.693324089E0,-5.913861275E0,8.372486115E0
2.745453037E0,9.744770050E0,-6.318846226E0,8.945567131E0
2.747690463E0,9.485747337E0,-6.897311211E0,9.759725571E0
2.749927280E0,9.653842926E0,-7.412964344E0,9.986445427E0
2.752164035E0,9.182456970E0,-8.212167740E0,1.056490993E1
2.754401156E0,9.661021233E0,-8.513663292E0,1.014556789E1
2.756639621E0,1.002293587E1,-8.880961418E0,9.744172096E0
2.758874240E0,1.039202881E1,-9.151947975E0,9.228518486E0
2.761111118E0,1.054935646E1,-9.353543282E0,8.915657043E0
2.763347385E0,1.060379314E1,-9.443274498E0,8.539385796E0
2.765584689E0,1.081316566E1,-9.665208817E0,8.298309326E0
2.767821323E0,1.095912743E1,-9.948758125E0,8.157132149E0
2.770058383E0,1.062173939E1,-1.021555805E1,7.925626755E0
2.772295749E0,1.038963604E1,-1.029511929E1,7.413562775E0
2.774534213E0,1.074736309E1,-1.044108200E1,6.730412006E0
2.776768588E0,1.073001480E1,-1.057208824E1,6.253642082E0
2.779002597E0,1.046082211E1,-1.045663452E1,5.998208046E0
2.781229709E0,1.037228775E1,-1.020479012E1,5.548955917E0
2.783479282E0,1.052722359E1,-9.802198410E0,4.867599487E0
2.785715793E0,1.085862923E1,-9.497113228E0,4.121636868E0
2.787955661E0,1.113141060E1,-9.215956688E0,3.465405464E0
2.790189975E0,1.122772217E1,-8.903095245E0,2.726621389E0
2.792428439E0,1.146281719E1,-8.583054543E0,2.022533417E0
2.794662875E0,1.137488079E1,-8.261219978E0,1.048654556E0
2.796899875E0,1.104706383E1,-7.997411251E0,-4.725824669E-2
2.799135959E0,1.074317551E1,-7.753343582E0,-1.127617717E0
2.801373569E0,1.059003448E1,-7.526623726E0,-1.992623091E0
2.803610080E0,1.051705360E1,-7.321439266E0,-2.685345173E0
2.805846957E0,1.079581738E1,-7.103692055E0,-3.002394199E0
2.808084323E0,1.098126125E1,-7.052844524E0,-3.301496983E0
2.810323093E0,1.091486073E1,-7.070192814E0,-3.435495138E0
2.812557651E0,1.074796104E1,-7.164709091E0,-3.141177893E0
2.814794223E0,1.067498016E1,-7.342974663E0,-2.664407969E0
2.817027438E0,1.062532902E1,-7.473981380E0,-2.097309113E0
2.819255832E0,1.079282665E1,-7.508079052E0,-1.533201098E0
2.821504672E0,1.087358475E1,-7.536194801E0,-8.793623447E-1
2.823741489E0,1.095374393E1,-7.616952896E0,-2.823530734E-1
2.825981845E0,1.114516926E1,-7.613363266E0,3.870390654E-1
2.828217258E0,1.126241779E1,-7.555337429E0,7.986045480E-1
2.830451633E0,1.162792206E1,-7.609774113E0,1.121037364E0
2.832688449E0,1.169133186E1,-7.670193195E0,1.503290772E0
2.834924778E0,1.165962696E1,-7.737790108E0,1.736590981E0
2.837162448E0,1.146341515E1,-7.927421570E0,1.997408748E0
2.839399325E0,1.132822037E1,-8.142177582E0,2.325823545E0
2.841636264E0,1.113679504E1,-8.359924316E0,2.501097918E0
2.843873080E0,1.083589745E1,-8.614161491E0,2.531606436E0
2.846111484E0,1.044885826E1,-8.857032776E0,2.519043922E0
2.848345859E0,1.012403297E1,-9.119645119E0,2.521436930E0
2.850583041E0,9.771689415E0,-9.291330338E0,2.566302299E0
2.852819248E0,9.570692062E0,-9.388239861E0,2.383251429E0
2.855056491E0,9.319445610E0,-9.565906525E0,2.314457655E0
2.857293491E0,9.160921097E0,-9.677172661E0,2.141576290E0
2.859527866E0,8.882157326E0,-9.692726135E0,2.229512453E0
2.861757968E0,8.647661209E0,-9.693922997E0,2.237289190E0
2.864006015E0,8.441878319E0,-9.657432556E0,2.277967215E0
2.866240207E0,8.193622589E0,-9.558130264E0,2.289931297E0
2.868479708E0,7.923233986E0,-9.348757744E0,2.344367981E0
2.870713535E0,7.514061451E0,-9.041878700E0,2.539981127E0
2.872950961E0,7.016952515E0,-8.697312355E0,3.007179976E0
2.875187534E0,5.731408596E0,-8.438288689E0,4.916652203E0
2.877424533E0,5.992824078E0,-8.184649467E0,5.075775146E0
2.879658664E0,6.178267956E0,-7.978867054E0,4.390829563E0
2.881888156E0,6.253043652E0,-7.780860901E0,3.790230989E0
2.884134494E0,6.373282909E0,-7.487142086E0,3.056232691E0
2.886371616E0,6.456433773E0,-7.130611420E0,2.279163599E0
2.888610873E0,6.612565517E0,-6.756134510E0,1.417149186E0
2.890845370E0,6.849454880E0,-6.363711834E0,6.221339107E-1
2.893082370E0,6.994818687E0,-5.998208046E0,-1.686939895E-1
2.895319125E0,6.939185619E0,-5.621338367E0,-8.943174481E-1
2.897556308E0,6.920641422E0,-5.258825779E0,-1.515254974E0
2.899791842E0,6.938587666E0,-4.945964336E0,-1.978266120E0
2.902017062E0,6.973283291E0,-4.663611412E0,-2.221735716E0
2.904266086E0,6.896114826E0,-4.398606300E0,-2.346760750E0
2.906502109E0,6.941578388E0,-4.208376884E0,-2.284547329E0
2.908742771E0,6.967899323E0,-4.051048756E0,-2.236690998E0
2.910976352E0,6.765107632E0,-3.944568157E0,-1.895713687E0
2.913213412E0,6.589235306E0,-3.920041800E0,-1.392024517E0
2.915450473E0,6.501897335E0,-3.932005882E0,-7.154539824E-1
2.917688937E0,6.540780544E0,-3.897309780E0,-7.118647546E-2
2.919923312E0,6.458228111E0,-3.994817495E0,5.000999570E-1
2.922160373E0,6.370890141E0,-4.106083870E0,1.067198873E0
2.924396457E0,6.226722717E0,-4.206582069E0,1.494915962E0
2.926634128E0,5.934798241E0,-4.337589264E0,1.802393675E0
2.928870883E0,5.577071190E0,-4.429114819E0,2.075773716E0
2.931107761E0,5.286343575E0,-4.502694130E0,2.364108801E0
2.933345065E0,4.770092010E0,-4.667798996E0,2.536391973E0
2.935580600E0,4.152145386E0,-4.907679081E0,2.673979282E0
2.937803439E0,3.534198999E0,-5.137988567E0,2.825923443E0
2.940040011E0,2.973680258E0,-5.322235584E0,3.078964472E0
2.942279209E0,2.547757864E0,-5.531607628E0,3.256631613E0
2.944528232E0,2.397608280E0,-5.808577061E0,3.546163082E0
2.946756076E0,2.376072884E0,-6.106483459E0,3.932604074E0
2.949004673E0,2.460419893E0,-6.367899418E0,4.286741734E0
2.951239352E0,2.578864574E0,-6.595815659E0,4.627120972E0
2.953480747E0,2.723032236E0,-6.742974281E0,4.924428940E0
2.955712253E0,2.838485956E0,-6.870391846E0,5.249852657E0
2.957949191E0,2.940778971E0,-6.893123627E0,5.589035511E0
2.960185215E0,3.067598581E0,-6.887141705E0,5.971887112E0
2.962422641E0,3.212962627E0,-6.862615108E0,6.369095802E0
2.964659396E0,3.388236761E0,-6.814160824E0,6.699305058E0
2.966896335E0,3.559323788E0,-6.751348972E0,6.996613503E0
2.969133883E0,3.716053486E0,-6.664609432E0,7.317251682E0
2.971372104E0,3.839283943E0,-6.586842537E0,7.642675400E0
2.973606662E0,3.967898130E0,-6.475576401E0,7.963313580E0
2.975843234E0,4.168296814E0,-6.369693756E0,8.289336205E0
2.978079807E0,4.377668858E0,-6.269793510E0,8.629117012E0
2.980317111E0,4.649254322E0,-6.184848309E0,8.998807907E0
2.982553744E0,4.949553490E0,-6.038288116E0,9.430712700E0
2.984790500E0,5.188836098E0,-5.866602898E0,9.771091461E0
2.987027926E0,5.313860893E0,-5.673980713E0,1.004865837E1
2.989266574E0,5.344369411E0,-5.483751297E0,1.017727280E1
2.991500827E0,5.365306377E0,-5.354538918E0,1.020120144E1
2.993738071E0,5.410770416E0,-5.245067120E0,1.013898754E1
2.995974033E0,5.594419479E0,-5.146961689E0,1.005942631E1
2.998211520E0,5.821737289E0,-5.059623718E0,1.000439167E1
3.000448215E0,6.047859192E0,-5.014758110E0,9.973284721E0
3.002685153E0,6.293123722E0,-4.965705395E0,9.923035622E0
3.004922702E0,6.650252342E0,-4.898108006E0,9.682557106E0
3.007160922E0,7.009175777E0,-4.758726120E0,9.404391289E0
3.009395541E0,7.347760201E0,-4.676771641E0,9.163912773E0
3.011632297E0,7.694121361E0,-4.590630054E0,9.086145401E0
3.013868564E0,8.062616348E0,-4.582255363E0,9.160921097E0
3.016105685E0,8.472985268E0,-4.613361835E0,9.340981483E0
3.018342563E0,8.588438988E0,-4.435096741E0,9.632905960E0
3.020579562E0,8.800801277E0,-4.525425911E0,9.873384476E0
3.022813694E0,9.226125717E0,-4.734199524E0,1.020179939E1
3.025042148E0,9.702896118E0,-5.030311584E0,1.058824062E1
3.027286350E0,1.020778179E1,-5.388636589E0,1.093699455E1
3.029524692E0,1.062114143E1,-5.779264927E0,1.126062298E1
3.031755161E0,1.096750259E1,-6.154339790E0,1.156511021E1
3.033989169E0,1.123370457E1,-6.474977970E0,1.185404301E1
3.036237094E0,1.148076344E1,-6.791429043E0,1.214776230E1
3.038472202E0,1.157228851E1,-6.946962357E0,1.242054367E1
3.040699618E0,1.151306629E1,-6.970890522E0,1.261077309E1
3.042949619E0,1.107936668E1,-6.899106026E0,1.300738430E1
3.045183810E0,1.073480034E1,-6.695117950E0,1.337587833E1
3.047424533E0,1.063549805E1,-6.448058605E0,1.307378483E1
3.049654208E0,1.051346493E1,-6.251847267E0,1.245284748E1
3.051879977E0,1.063549805E1,-6.105287075E0,1.244865990E1
3.054119662E0,1.086640549E1,-5.858826160E0,1.215972614E1
3.056368198E0,1.111884880E1,-5.563910961E0,1.169910812E1
3.058605502E0,1.121157074E1,-5.352744102E0,1.123190975E1
3.060834995E0,1.127139091E1,-5.202594757E0,1.064566803E1
3.063078647E0,1.126840019E1,-5.032704353E0,1.014496994E1
3.065315402E0,1.105125141E1,-4.815555573E0,9.470193863E0
3.067554477E0,1.081974602E1,-4.622334957E0,8.790632248E0
3.069789096E0,1.032622623E1,-4.517050743E0,8.404789925E0
3.072025851E0,9.955936432E0,-4.466801643E0,8.057829857E0
3.074262485E0,1.008514881E1,-4.380660057E0,7.615158081E0
3.076499789E0,1.016650486E1,-4.213162422E0,7.344171047E0
3.078738254E0,1.028674412E1,-4.003192425E0,7.096513748E0
3.080972995E0,1.033878803E1,-3.778865099E0,6.967899323E0
3.083209994E0,1.022453117E1,-3.615555048E0,7.200601578E0
3.085446018E0,1.002114105E1,-3.480958700E0,7.660621643E0
3.087683322E0,9.799804688E0,-3.393022537E0,7.963912010E0
3.089919894E0,9.391828537E0,-3.339782238E0,8.150551796E0
3.092156955E0,8.914461136E0,-3.203391314E0,8.184051514E0
3.094394076E0,8.511868477E0,-3.071786165E0,7.856235027E0
3.096632602E0,8.163114548E0,-2.967698336E0,7.266404152E0
3.098864291E0,7.777271748E0,-2.900699139E0,6.504290104E0
3.101089633E0,7.406384468E0,-2.857628345E0,5.656632900E0
3.103328647E0,6.951747894E0,-2.866601467E0,4.966303349E0
3.105577914E0,6.159723759E0,-3.044866800E0,4.811367989E0
3.107817356E0,5.700900078E0,-3.227319479E0,4.354339123E0
3.110051181E0,5.473581791E0,-3.473181963E0,3.541975737E0
3.112276400E0,5.064409256E0,-3.801596880E0,2.585444927E0
3.114524081E0,4.515256405E0,-4.086342812E0,1.850848317E0
3.116749545E0,4.150351048E0,-4.342374802E0,1.533201098E0
3.119001621E0,3.671786308E0,-4.609772682E0,9.236295223E-1
3.121234836E0,3.136990547E0,-4.866403103E0,2.662015259E-1
3.123475193E0,2.653640270E0,-5.109872818E0,-2.338984162E-1
3.125708713E0,2.321636200E0,-5.192425251E0,-8.518448472E-1
3.127945529E0,1.322034478E0,-5.062016487E0,-2.044068813E0
3.130179966E0,7.764709592E-1,-5.211567879E0,-2.964108944E0
3.132409702E0,5.904290080E-1,-5.219344616E0,-3.742972851E0
3.134656039E0,3.559323549E-1,-5.129613400E0,-4.789832592E0
3.136892856E0,1.040877849E-1,-5.093122959E0,-5.578866005E0
3.139132052E0,-6.580262631E-2,-5.032105923E0,-5.781059742E0
3.141366489E0,-1.423729509E-1,-4.922036171E0,-5.619544029E0
3.143603244E0,-1.674975902E-1,-4.770689964E0,-5.191228867E0
3.145839877E0,2.452643216E-2,-4.750350952E0,-4.021138668E0
3.148074374E0,3.326023519E-1,-4.791627407E0,-2.425125837E0
3.150303439E0,6.071787477E-1,-4.691727161E0,-1.211964726E0
3.152550266E0,7.471588850E-1,-4.646263599E0,-9.930214286E-2
3.154786777E0,9.008977413E-1,-4.594817638E0,5.599204898E-1
3.157026218E0,1.296909928E0,-4.532604218E0,3.248256743E-1
3.159260776E0,1.864008784E0,-4.518247128E0,-4.899304509E-1
3.161497653E0,2.604587555E0,-4.576871395E0,-1.546361685E0
3.163734470E0,3.283550978E0,-4.712664127E0,-2.231307030E0
3.165971774E0,3.897309780E0,-4.849653244E0,-2.545365095E0
3.168210117E0,4.465006828E0,-4.959125042E0,-2.458625317E0
3.170444308E0,4.852644444E0,-5.062614441E0,-2.020738840E0
3.172681369E0,5.029713154E0,-5.111069202E0,-1.418345571E0
3.174917697E0,4.899304390E0,-5.169693470E0,-8.470591903E-1
3.177155368E0,4.612763882E0,-5.224728107E0,-4.253242314E-1
3.179391940E0,4.055236340E0,-5.222335339E0,-2.015953064E-1
3.181628940E0,3.333201885E0,-5.143970490E0,-2.368894368E-1
3.183866061E0,2.628515720E0,-5.012365341E0,-5.778666735E-1
3.186104709E0,1.915454507E0,-5.252245903E0,-1.084546804E0
3.188338840E0,9.547362328E-1,-6.299703598E0,-2.045265198E0
3.190575046E0,6.233302951E-1,-6.351747513E0,-2.072184324E0
3.192808445E0,2.865405083E-1,-6.518647194E0,-2.160718918E0
3.195049411E0,6.340979785E-2,-6.716054916E0,-2.176870346E0
3.197286411E0,4.486542568E-2,-6.931408882E0,-2.028515339E0
3.199523044E0,6.999006122E-2,-7.019345284E0,-1.765903115E0
3.201756259E0,-1.190429255E-1,-7.117451191E0,-1.691127419E0
3.203998996E0,-6.669993401E-1,-7.281359196E0,-1.705484390E0
3.206233432E0,-1.586441398E0,-7.520641804E0,-1.642074585E0
3.208471531E0,-2.096710920E0,-7.816154957E0,-1.283749342E0
3.210706455E0,-2.498106956E0,-8.104490280E0,-7.148557901E-1
3.212943881E0,-2.676970243E0,-8.431110382E0,1.136590764E-1
3.215180637E0,-2.140978098E0,-8.785248756E0,1.402194023E0
3.217417514E0,-2.064407825E0,-9.086145401E0,2.023131609E0
3.219651889E0,-1.998605132E0,-9.399007797E0,2.267797709E0
3.221881381E0,-1.742573142E0,-9.634700775E0,2.727817774E0
3.224127902E0,-1.695913076E0,-9.743574142E0,3.329612732E0
3.226364414E0,-1.700100541E0,-9.745966911E0,3.849453449E0
3.228603549E0,-2.046461582E0,-9.528220177E0,4.408177376E0
3.230838351E0,-2.449652195E0,-9.262018204E0,5.014758110E0
3.233074924E0,-2.315055847E0,-9.276374817E0,5.559125423E0
3.235311557E0,-1.457827210E0,-9.339784622E0,6.096911907E0
3.237548861E0,-3.421736360E-1,-9.539586067E0,6.412166595E0
3.239787570E0,6.705885530E-1,-9.844072342E0,6.803991318E0
3.242022067E0,2.486740828E0,-1.025145054E1,7.231110096E0
3.244259067E0,4.630710125E0,-1.056969547E1,6.970292568E0
3.246495029E0,6.666403770E0,-1.081854916E1,6.569494724E0
3.248732455E0,8.702695847E0,-1.101476097E1,6.187839508E0
3.250969211E0,1.035374355E1,-1.085264683E1,6.074180126E0
3.253206088E0,1.087837029E1,-1.040100193E1,6.020939827E0
3.255443454E0,1.072762203E1,-9.716654778E0,6.357131481E0
3.257681918E0,1.106680489E1,-9.074181557E0,6.983452797E0
3.259916537E0,1.237687492E1,-8.587840080E0,7.037889481E0
3.262153293E0,1.363370514E1,-8.459226608E0,5.256433010E0
3.264389377E0,1.434317684E1,-8.489136696E0,3.307479143E0
3.266626926E0,1.591047573E1,-8.970691681E0,1.124626637E0
3.268863559E0,1.431446362E1,-9.198010445E0,2.631506681E0
3.271100680E0,1.287398434E1,-9.173483849E0,3.061616659E0
3.273337924E0,1.211306667E1,-8.970691681E0,2.124228239E0
3.275576205E0,1.187318611E1,-8.804988861E0,1.230509043E0
3.277807834E0,1.254736328E1,-8.799007416E0,8.075776696E-1
3.280035861E0,1.258983612E1,-8.870193481E0,-3.984049559E-1
3.282283908E0,1.190907860E1,-9.080163956E0,-1.357926846E0
3.284521274E0,1.039322472E1,-9.391828537E0,-2.315654039E0
3.286761020E0,8.650651932E0,-1.003908730E1,-2.464009047E0
3.288994907E0,7.240681171E0,-1.073121166E1,-2.342573404E0
3.291232333E0,6.704091072E0,-1.156331539E1,-2.646461725E0
3.293470981E0,7.600203037E0,-1.230867958E1,-1.568495274E0
3.295705356E0,8.830113411E0,-1.285364532E1,-6.125625968E-1
3.297942111E0,8.417351723E0,-1.303131199E1,-1.674975902E-1
3.300178073E0,6.457630157E0,-1.286859989E1,1.004985496E-1
3.302415500E0,4.336990833E0,-1.230509090E1,9.050851464E-1
3.304652316E0,3.480360508E0,-1.137667561E1,2.521436930E0
3.306889194E0,3.615555048E0,-1.096869946E1,3.733401537E0
3.309126559E0,4.514060020E0,-1.063250732E1,4.603790760E0
3.311365024E0,5.295914650E0,-1.042373371E1,5.444868088E0
3.313599277E0,6.946363926E0,-9.918250084E0,5.526223660E0
3.315834933E0,8.856434822E0,-9.510871887E0,5.247459888E0
3.318072544E0,1.067438221E1,-8.953344345E0,5.959324837E0
3.320310336E0,1.213520050E1,-8.332406998E0,6.515058041E0
3.322547275E0,1.331426334E1,-7.439285755E0,6.934998035E0
3.324783786E0,1.373779297E1,-6.221937180E0,7.041478634E0
3.327020968E0,1.540559006E1,-5.695516109E0,6.769893646E0
3.329259189E0,1.675992775E1,-5.319244862E0,5.832505226E0
3.331493686E0,1.714158249E1,-5.141577721E0,4.496113777E0
3.333730930E0,1.697169304E1,-5.136792183E0,2.992224693E0
3.335967014E0,1.631127357E1,-5.286343575E0,1.393819213E0
3.338204379E0,1.532124329E1,-5.712863922E0,-2.069791555E-1
3.340440891E0,1.461894989E1,-6.246463299E0,-1.395015597E0
3.342678012E0,1.248993587E1,-6.288337708E0,-1.877169371E0
3.344915377E0,9.606584549E0,-5.957530022E0,-1.975873351E0
3.347153842E0,7.146164894E0,-5.653641701E0,-1.665404558E0
3.349388217E0,5.490331650E0,-5.507679462E0,-1.074975610E0
3.351625278E0,4.515256405E0,-5.644070625E0,-4.067798555E-1
3.353861545E0,2.584248543E0,-6.225526333E0,-7.860422134E-1
3.356095981E0,2.693121910E0,-6.728617191E0,-9.224331379E-1
3.358320712E0,3.960719585E0,-7.012166977E0,-5.952146053E-1
3.360560275E0,4.999204636E0,-6.966702938E0,-3.427718580E-1
3.362809604E0,5.641079426E0,-6.736393929E0,-5.515456200E-1
3.365051059E0,5.808577061E0,-6.550950050E0,-8.225327730E-1
3.367285739E0,5.803791523E0,-6.494120598E0,-6.891329288E-1
3.369519260E0,5.602794170E0,-6.598208427E0,-3.140579760E-1
3.371751621E0,5.299503803E0,-6.792026997E0,1.794617027E-1
3.373981174E0,4.922036171E0,-6.954739094E0,3.337987661E-1
3.376229770E0,4.697709084E0,-7.064808846E0,2.691925503E-2
3.378465914E0,4.847260475E0,-7.198806763E0,-3.296113312E-1
3.380702304E0,5.262415409E0,-7.381857872E0,-4.588237405E-1
3.382942600E0,5.761318684E0,-7.590631485E0,-3.535395563E-1
3.385176791E0,5.474778175E0,-7.868198872E0,-3.894318938E-1
3.387415317E0,4.743172646E0,-8.115258217E0,-4.001995921E-1
3.389647311E0,3.920639992E0,-8.341978073E0,-4.073780477E-1
3.391872592E0,3.285943747E0,-8.490332603E0,-3.607180119E-1
3.394112277E0,2.730808735E0,-8.641080856E0,-1.363908947E-1
3.396361057E0,2.309672117E0,-8.851051331E0,7.896314561E-2
3.398598422E0,2.085345030E0,-9.005986214E0,2.679961324E-1
3.400827732E0,1.561915040E0,-9.103493690E0,2.775674164E-1
3.403071628E0,-4.360919297E-1,-8.776873589E0,2.350948304E-1
3.405308566E0,1.313061476E0,-8.717651367E0,3.176472187E-1
3.407547396E0,2.612962246E0,-9.135198593E0,5.593222976E-1
3.409781772E0,3.116053343E0,-9.665208817E0,7.986045480E-1
3.412018710E0,2.979064226E0,-1.011805058E1,9.361918569E-1
3.414252964E0,2.537588358E0,-1.048953629E1,9.900303483E-1
3.416480136E0,1.732403636E0,-1.085025406E1,9.116654396E-1
3.418716708E0,3.714857101E-1,-1.116909790E1,9.762716293E-1
3.420950961E0,-5.491527915E-1,-1.141795158E1,1.869392633E0
3.423190525E0,-3.499503136E-1,-1.103689480E1,1.617548108E0
3.425430331E0,1.405783296E-1,-1.073659515E1,1.273579836E0
3.427679294E0,7.698906660E-1,-1.055294609E1,8.452646136E-1
3.429916049E0,1.506880045E0,-1.053320503E1,3.511467278E-1
3.432152744E0,2.064407825E0,-1.061575794E1,-4.905286431E-2
3.434384128E0,2.723630428E0,-1.061934662E1,-3.858426511E-1
3.436611056E0,3.209971666E0,-1.062054348E1,-6.723831892E-1
3.438848361E0,3.356531858E0,-1.055952644E1,-9.194421172E-1
3.441096957E0,3.185445070E0,-1.043749237E1,-8.733802438E-1
3.443335666E0,3.009572744E0,-1.027298546E1,-8.129615188E-1
3.445571628E0,3.061616659E0,-1.009113121E1,-9.846464992E-1
3.447806674E0,3.120838881E0,-1.002891827E1,-1.108475089E0
3.450044223E0,3.122633457E0,-9.928419113E0,-1.094118118E0
3.452281955E0,3.390031576E0,-9.918848038E0,-1.010369420E0
3.454519931E0,3.678964853E0,-9.851250648E0,-1.070189953E0
3.456754428E0,3.885345697E0,-9.830313683E0,-1.039681435E0
3.458991489E0,4.048655987E0,-9.771091461E0,-1.037886858E0
3.461227817E0,4.153940201E0,-9.748957634E0,-9.134600163E-1
3.463465121E0,4.292125702E0,-9.708877563E0,-7.782655358E-1
3.465701694E0,4.378267288E0,-9.648459435E0,-6.825526357E-1
3.467938754E0,4.475774765E0,-9.746564865E0,-4.289134443E-1
3.470176059E0,4.633102894E0,-9.975079536E0,-1.549352705E-1
3.472414340E0,4.554738045E0,-1.033819008E1,1.674975827E-2
3.474648898E0,4.238286972E0,-1.093220806E1,2.003988922E-1
3.476885654E0,4.652245522E0,-1.186361504E1,6.065805554E-1
3.479121799E0,4.396811485E0,-1.213878918E1,9.433703423E-1
3.481356418E0,4.017549038E0,-1.205444241E1,5.533402562E-1
3.483584262E0,3.762115479E0,-1.203948689E1,2.315055877E-1
3.485833041E0,3.468994617E0,-1.209691525E1,1.956132501E-1
3.488070102E0,3.323032379E0,-1.228594780E1,1.609173268E-1
3.490311618E0,3.285943747E0,-1.260778236E1,5.760720372E-1
3.492543430E0,3.052643538E0,-1.289432335E1,1.151545882E0
3.494780063E0,2.550748825E0,-1.307199001E1,1.871785522E0
3.497016330E0,1.919043779E0,-1.319581890E1,2.734398127E0
3.499253635E0,1.604985833E0,-1.323350525E1,3.594617844E0
3.501490512E0,1.381256819E0,-1.306660652E1,4.388436794E0
3.503727328E0,1.113858938E0,-1.264965725E1,5.038686275E0
3.505964694E0,8.506484628E-1,-1.208255768E1,5.364109993E0
3.508203098E0,7.722834945E-1,-1.150828075E1,5.481956482E0
3.510437534E0,8.410771489E-1,-1.095015430E1,5.605785370E0
3.512674533E0,8.309076428E-1,-1.044706345E1,5.437689304E0
3.514910617E0,9.188438654E-1,-1.015035343E1,5.161318302E0
3.517148227E0,9.230313301E-1,-1.000558758E1,4.865804672E0
3.519384799E0,8.446664214E-1,-9.974481583E0,4.564309120E0
3.521620456E0,6.334998012E-1,-1.010369396E1,4.329214573E0
3.523852329E0,3.870390654E-1,-1.034836006E1,4.169493675E0
3.526093539E0,1.615155302E-2,-1.061874866E1,3.957130432E0
3.528332004E0,-3.469592929E-1,-1.093280697E1,3.801596880E0
3.530570285E0,-7.429714203E-1,-1.125164986E1,3.683750391E0
3.532806125E0,-1.192223907E0,-1.153639603E1,3.608974695E0
3.535042514E0,-1.568495274E0,-1.177388382E1,3.481556892E0
3.537279330E0,-1.481157184E0,-1.191685486E1,3.058625460E0
3.539511569E0,-7.519445419E-1,-1.199522018E1,2.187638044E0
3.541735202E0,-8.650053740E-1,-1.200778198E1,3.188436270E0
3.543991916E0,-1.362114310E0,-1.169970608E1,2.386840582E0
3.546226352E0,-1.545165181E0,-1.146939754E1,1.731207132E0
3.548467929E0,-1.353739381E0,-1.144068336E1,1.151545882E0
3.550699436E0,-1.363310695E0,-1.139940739E1,6.269195080E-1
3.552936984E0,-1.662413478E0,-1.119900799E1,6.855437160E-1
3.555173312E0,-1.496112347E0,-1.133539867E1,5.587241054E-1
3.557410373E0,-1.106680512E0,-1.106620693E1,-8.781659007E-1
3.559644565E0,-1.977069736E0,-1.121635628E1,-7.860422134E-1
3.561874545E0,-2.424527645E0,-1.131206894E1,-1.290329576E0
3.564120578E0,-2.196012974E0,-1.104526901E1,-1.827518344E0
3.566357516E0,-1.368096352E0,-1.069172955E1,-2.349751949E0
3.568596896E0,-3.481557071E-1,-1.048654556E1,-2.483749866E0
3.570831393E0,-5.443671346E-2,-1.069232845E1,-2.395215511E0
3.573068149E0,-6.711867452E-1,-1.073898792E1,-2.672782898E0
3.575304721E0,-1.597807288E0,-1.067557812E1,-2.895913601E0
3.577542331E0,-1.372283816E0,-1.051047325E1,-3.237488985E0
3.579777743E0,-6.520441771E-1,-1.033041382E1,-3.135794163E0
3.582003268E0,-6.723831892E-1,-1.017428207E1,-2.673381090E0
3.584252109E0,-1.115653515E0,-1.021496010E1,-1.823929071E0
3.586487949E0,4.564309120E-1,-1.004865837E1,-1.618744493E0
3.588728549E0,1.581057549E0,-9.993025780E0,-7.740781307E-1
3.590962131E0,1.718644857E0,-1.002233791E1,-5.802594870E-2
3.593195651E0,1.585843205E0,-1.030050373E1,4.660021961E-1
3.595418124E0,1.781456470E0,-1.032802105E1,5.682953596E-1
3.597656833E0,2.208575249E0,-1.038604641E1,3.810569942E-1
3.599894992E0,2.673979282E0,-1.002413273E1,2.751746178E-1
3.602138217E0,2.938386202E0,-9.396614075E0,1.525424421E-1
3.604386569E0,3.004786968E0,-8.761320114E0,1.429711580E-1
3.606622837E0,2.930011272E0,-8.427521706E0,5.276173949E-1
3.608859897E0,2.800798893E0,-8.420342445E0,5.503492355E-1
3.611093539E0,2.665006161E0,-8.585447311E0,4.683950245E-1
3.613331149E0,2.218146563E0,-8.928219795E0,5.886343718E-1
3.615569308E0,1.873580098E0,-9.243474007E0,5.766702294E-1
3.617803989E0,1.925624013E0,-9.367900848E0,4.390829504E-1
3.620040683E0,2.118844509E0,-9.213563919E0,4.929214716E-1
3.622276828E0,1.506281853E0,-9.099306107E0,6.017948985E-1
3.624514377E0,2.381456852E0,-9.668199539E0,-2.333002090E-1
3.626750949E0,2.924627542E0,-9.774680138E0,-6.478567123E-1
3.628987827E0,2.737987280E0,-9.518050194E0,-7.932206988E-1
3.631222141E0,2.254039049E0,-8.968897820E0,-9.894321561E-1
3.633451694E0,1.688734531E0,-8.480761528E0,-1.295713425E0
3.635698337E0,1.841277003E0,-7.920242786E0,-2.039283037E0
3.637935336E0,2.091925144E0,-7.376473904E0,-2.433500528E0
3.640174350E0,1.890928149E0,-7.109674454E0,-2.593221426E0
3.642408725E0,1.841875196E0,-6.950551510E0,-2.789433002E0
3.644645480E0,1.998006940E0,-6.832705021E0,-2.912065268E0
3.646882358E0,2.239681959E0,-6.687939167E0,-2.900699139E0
3.649119723E0,2.520240545E0,-6.486343861E0,-2.903092146E0
3.651358188E0,3.055036306E0,-5.973083496E0,-2.951546669E0
3.653592746E0,3.453441381E0,-5.166702271E0,-2.777468920E0
3.655829318E0,3.211168051E0,-5.480760098E0,-2.383251429E0
3.658065586E0,2.922234535E0,-5.690730572E0,-2.562114954E0
3.660302890E0,2.998206854E0,-5.994020939E0,-2.413161755E0
3.662539584E0,3.108276606E0,-6.178866386E0,-2.139781713E0
3.664776645E0,3.192025423E0,-6.247660160E0,-1.948355794E0
3.667014010E0,3.611965895E0,-5.982056618E0,-1.883151412E0
3.669252536E0,4.229912281E0,-5.575874805E0,-1.744367719E0
3.671486117E0,4.808377266E0,-5.198407173E0,-1.482353687E0
3.673717258E0,5.149952412E0,-4.932205677E0,-1.212562919E0
3.675949253E0,5.532206059E0,-4.910670280E0,-1.037288666E0
3.678197787E0,5.856433392E0,-4.944767952E0,-8.913264275E-1
3.680435276E0,6.075974941E0,-4.986642361E0,-8.703892231E-1
3.682673679E0,6.180062771E0,-5.073980331E0,-8.404789567E-1
3.684908481E0,6.115456581E0,-5.169095039E0,-7.597211599E-1
3.687146945E0,5.928217888E0,-5.190630436E0,-7.328019142E-1
3.689381381E0,5.885745525E0,-5.166104317E0,-7.381857634E-1
3.691618137E0,5.885147095E0,-5.142774105E0,-6.047859192E-1
3.693854404E0,5.935396671E0,-5.244469166E0,-4.803591371E-1
3.696091769E0,6.056832314E0,-5.437689304E0,-4.450650215E-1
3.698328403E0,6.155536175E0,-5.548955917E0,-4.534398913E-1
3.700565463E0,6.052644730E0,-5.629713535E0,-2.973082066E-1
3.702802829E0,5.624927998E0,-5.681159019E0,-2.249253243E-1
3.705041293E0,5.514259815E0,-5.727221012E0,-2.494517565E-1
3.707275607E0,5.574080467E0,-5.819344521E0,-8.195417374E-2
3.709508640E0,5.658427238E0,-5.921638012E0,-3.828516230E-2
3.711730563E0,5.662614822E0,-6.071787357E0,3.439682424E-1
3.713974155E0,5.456233978E0,-6.130411625E0,3.326023519E-1
3.716222934E0,5.311468124E0,-6.252445698E0,2.261217386E-1
3.718460483E0,5.381458282E0,-6.373282909E0,2.512463629E-1
3.720687900E0,5.586044312E0,-6.495316982E0,2.057827413E-1
3.722935519E0,5.655436516E0,-6.620940208E0,2.638086975E-1
3.725169955E0,5.526223660E0,-6.830910206E0,5.204389095E-1
3.727410007E0,5.495117188E0,-6.893722057E0,7.010970116E-1
3.729640048E0,6.200999737E0,-5.764907837E0,2.517847538E0
3.731865756E0,5.240281582E0,-5.603392601E0,3.753142357E0
3.734105441E0,4.976472855E0,-6.241677761E0,2.011765718E0
3.736354037E0,4.595416069E0,-7.033702374E0,8.554341197E-1
3.738591342E0,4.037290096E0,-7.897511005E0,2.129612118E-1
3.740820835E0,3.479762316E0,-8.796614647E0,4.666004330E-2
3.743064487E0,3.015554667E0,-9.839286804E0,4.881358147E-1
3.745301242E0,2.421536446E0,-1.094716358E1,2.038684845E0
3.747540316E0,2.102094650E0,-1.208136177E1,2.237887383E0
3.749774570E0,2.320439816E0,-1.246720409E1,1.167697430E0
3.752010287E0,1.796411633E0,-1.267537975E1,3.954139352E-1
3.754248630E0,6.484549642E-1,-1.311625767E1,1.167697430E0
3.756485995E0,2.602194548E-1,-1.329153156E1,2.108675003E0
3.758725009E0,1.968096644E-1,-1.355533981E1,2.408974171E0
3.760958957E0,-1.178465188E-1,-1.382752419E1,2.287538528E0
3.763195590E0,-3.098705411E-1,-1.396690559E1,2.062014818E0
3.765432041E0,-1.950150430E-1,-1.400220013E1,2.072184324E0
3.767669406E0,-3.038884699E-1,-1.370070457E1,2.443071842E0
3.769906100E0,-1.076770201E-1,-1.331187057E1,2.520240545E0
3.772143039E0,1.740778536E-1,-1.304866028E1,2.513062000E0
3.774380221E0,4.683950245E-1,-1.280997562E1,2.705684185E0
3.776618869E0,4.887340367E-1,-1.198863983E1,2.871387243E0
3.778853000E0,5.012963414E-1,-1.141974640E1,2.933002472E0
3.781090121E0,1.306481123E0,-1.073420238E1,2.943770170E0
3.783326328E0,1.597209096E0,-1.024068260E1,2.831307411E0
3.785563815E0,2.119442701E0,-9.815358162E0,2.358126640E0
3.787800571E0,2.720041037E0,-9.391230583E0,1.709671736E0
3.790037387E0,3.162115097E0,-9.299106598E0,1.118046403E0
3.792274691E0,2.923431158E0,-9.337391853E0,9.008977413E-1
3.794512912E0,2.901297569E0,-8.982656479E0,7.381857634E-1
3.796744540E0,3.133401155E0,-8.687741280E0,4.157529473E-1
3.798972446E0,2.878565550E0,-8.276175499E0,5.503492057E-2
3.801220920E0,1.895115495E0,-6.739983082E0,-4.725824669E-2
3.803458041E0,1.740778446E0,-6.282355785E0,-2.404786795E-1
3.805697849E0,1.546959877E0,-6.545566559E0,-4.845465720E-1
3.807931613E0,1.494915962E0,-6.876374245E0,-1.176072359E0
3.810169040E0,9.822536707E-1,-7.347760201E0,-1.981257200E0
3.812407443E0,-1.651047617E-1,-7.886145115E0,-2.710469961E0
3.814641879E0,-1.570888042E0,-8.421539307E0,-3.385843992E0
3.816878879E0,-2.852244616E0,-8.886942863E0,-3.997210264E0
3.819114902E0,-3.784847260E0,-9.175278664E0,-4.697110653E0
3.821352328E0,-4.208376884E0,-9.346963882E0,-5.420341492E0
3.823589084E0,-4.202394962E0,-9.535996437E0,-5.887540340E0
3.825826022E0,-4.357329845E0,-9.617352486E0,-6.432505608E0
3.828063571E0,-4.459024906E0,-9.627521515E0,-6.948158741E0
3.830301791E0,-4.326821327E0,-9.537791252E0,-7.137789726E0
3.832536350E0,-3.909274101E0,-9.486943245E0,-7.129415035E0
3.834772861E0,-3.435495138E0,-9.586843491E0,-6.667002201E0
3.837009189E0,-3.306282759E0,-9.751350403E0,-5.697908878E0
3.839246555E0,-3.293720484E0,-9.952945709E0,-4.628915310E0
3.841480991E0,-3.177668571E0,-9.955338478E0,-3.559921980E0
3.843710483E0,-3.008974552E0,-1.003908730E1,-2.623729944E0
3.845957614E0,-2.796611547E0,-1.015095139E1,-1.858624935E0
3.848196078E0,-2.581257343E0,-1.019103146E1,-1.255633712E0
3.850433139E0,-2.187638044E0,-1.027956581E1,-9.086744189E-1
3.852667514E0,-2.037488461E0,-1.022871876E1,-1.012163997E0
3.854903781E0,-2.073380709E0,-1.003250694E1,-9.888339639E-1
3.857141147E0,-1.938784599E0,-9.689735413E0,-1.036092162E0
3.859377963E0,-1.882553220E0,-9.211769104E0,-1.212562919E0
3.861614780E0,-1.812563181E0,-8.828917503E0,-1.465603828E0
3.863852145E0,-1.527817249E0,-8.487341881E0,-1.697109461E0
3.866090549E0,-1.110269666E0,-8.191828728E0,-1.846062660E0
3.868325046E0,-7.028916478E-1,-7.905287743E0,-2.009970903E0
3.870562289E0,-2.662015259E-1,-7.591229916E0,-2.102094650E0
3.872798252E0,1.076770201E-1,-7.262216568E0,-2.146960020E0
3.875035434E0,4.606183469E-1,-6.999604225E0,-2.086541414E0
3.877272128E0,8.458628058E-1,-6.801000118E0,-1.926222205E0
3.879508273E0,1.106082320E0,-6.595217228E0,-1.780858278E0
3.881743502E0,1.342971683E0,-6.364908218E0,-1.631306887E0
3.883984836E0,1.475773335E0,-6.113661766E0,-1.601994753E0
3.886219272E0,1.538584948E0,-5.957530022E0,-1.396810174E0
3.888457004E0,1.706680775E0,-6.392425537E0,-1.003190875E0
3.890692356E0,1.588834286E0,-6.195616245E0,-8.853443861E-1
3.892930026E0,1.390828133E0,-5.977271080E0,-8.829515576E-1
3.895166782E0,1.208375454E0,-5.960521221E0,-7.986045480E-1
3.897403659E0,1.091725349E0,-6.011966705E0,-6.807580590E-1
3.899637912E0,9.726824164E-1,-5.852844238E0,-5.102694035E-1
3.901867160E0,8.542376757E-1,-5.732006550E0,-4.163511395E-1
3.904113803E0,6.251249313E-1,-5.618945599E0,-3.182454109E-1
3.906350803E0,4.767699242E-1,-5.522036552E0,-2.195414752E-1
3.908589877E0,3.517449200E-1,-5.544169903E0,-2.015953064E-1
3.910824252E0,2.338984162E-1,-5.460421085E0,-2.362912297E-1
3.913061008E0,1.477568001E-1,-5.364708424E0,-7.537391037E-2
3.915297885E0,1.076770201E-2,-5.200201988E0,-3.888336942E-2
3.917535251E0,-1.202393398E-1,-4.959125042E0,1.674975827E-2
3.919773654E0,-3.511467278E-1,-4.782654285E0,-1.286142170E-1
3.922008090E0,-2.662015259E-1,-4.710869789E0,-4.570291340E-1
3.924245090E0,9.631111473E-2,-5.170291424E0,-5.335994363E-1
3.926481113E0,1.286142170E-1,-5.346762180E0,-6.430711150E-1
3.928718600E0,1.381855011E-1,-5.352146149E0,-6.478567123E-1
3.930955539E0,1.435693540E-2,-5.268995285E0,-6.059823632E-1
3.933189242E0,-8.733802289E-2,-5.315057278E0,-5.970092416E-1
3.935414890E0,-3.308077157E-1,-5.206781864E0,-4.707878530E-1
3.937656284E0,-6.167500615E-1,-5.017150879E0,-3.212364316E-1
3.939902866E0,-7.878368497E-1,-4.843072891E0,-1.513460279E-1
3.942142368E0,-7.860422134E-1,-4.939383984E0,-1.794617064E-2
3.944378634E0,-7.567301393E-1,-4.958526611E0,-5.563312769E-2
3.946612949E0,-7.094719410E-1,-5.016552448E0,-1.028913707E-1
3.948849643E0,-6.005984545E-1,-5.142175674E0,-1.680957973E-1
3.951086642E0,-4.522434771E-1,-5.187041283E0,-2.291127741E-1
3.953323825E0,-2.309073806E-1,-5.397011280E0,-9.750752151E-2
3.955562534E0,-4.067798555E-1,-5.331807137E0,-1.615155339E-1
3.957796848E0,-5.306084156E-1,-5.018347263E0,-3.349951804E-1
3.960033725E0,-4.761717021E-1,-4.956133842E0,-4.342973232E-1
3.962267062E0,-4.325026870E-1,-4.942375183E0,-4.863412082E-1
3.964495883E0,-3.738785386E-1,-4.909473896E0,-5.431707501E-1
3.966744235E0,-3.667000830E-1,-4.756333351E0,-5.958128572E-1
3.968981235E0,-4.612165689E-1,-4.692325115E0,-6.400800347E-1
3.971221286E0,-6.221339107E-1,-4.796412945E0,-4.743770957E-1
3.973457065E0,-7.004988194E-1,-4.914857864E0,-4.319044948E-1
3.975691379E0,-6.538388133E-1,-4.949553490E0,-3.457628787E-1
3.977928195E0,-7.411768436E-1,-4.962714195E0,-2.793620527E-1
3.980164218E0,-8.231309652E-1,-4.942973614E0,-1.657029688E-1
3.982401828E0,-9.667003751E-1,-4.935794830E0,-1.435693651E-1
3.984638461E0,-6.155536175E-1,-4.529613495E0,-2.027917206E-1
3.986875522E0,-5.910272002E-1,-4.247260094E0,-3.559323549E-1
3.989112643E0,-6.155536175E-1,-4.577469826E0,-2.697907388E-1
3.991351413E0,-5.461617708E-1,-4.750350952E0,-2.925225794E-1
3.993585849E0,-6.490531564E-1,-4.868795872E0,-2.452643216E-1
3.995822299E0,-7.663014531E-1,-5.029713154E0,-2.321037948E-1
3.998058750E0,-7.920243144E-1,-5.053641319E0,-6.041877344E-2
4.000296115E0,-7.274180651E-1,-5.070391178E0,2.165504545E-1
4.002533054E0,-6.047859192E-1,-5.154139996E0,3.655036688E-1
4.004769809E0,-7.058826685E-1,-5.029713154E0,6.412764788E-1
4.007003329E0,-1.037288666E0,-5.077569485E0,6.143572330E-1
4.009230258E0,-8.638089895E-1,-5.309673309E0,6.831508875E-1
4.011480258E0,-7.878368497E-1,-5.297111034E0,7.932206988E-1
4.013717014E0,-8.285148144E-1,-5.340780258E0,1.021735311E0
4.015956943E0,-9.218349457E-1,-5.402395248E0,1.188036442E0
4.018190646E0,-9.714859724E-1,-6.071787357E0,1.393819213E0
4.020427219E0,-1.542174220E0,-6.818946362E0,1.332802176E0
4.022664096E0,-1.297508121E0,-7.651050568E0,1.574477315E0
4.024901400E0,-1.339382529E0,-8.317451477E0,1.995015860E0
4.027139865E0,-1.419542074E0,-9.630513191E0,1.858026743E0
4.029374301E0,-1.671984792E0,-1.175294685E1,1.482951880E0
4.031611362E0,-1.655235052E0,-1.470090389E1,1.821536183E0
4.033847568E0,-2.215753794E0,-1.823270988E1,2.094317913E0
4.036084811E0,-2.449054003E0,-2.213121605E1,2.022533417E0
4.038321750E0,-3.177070379E0,-2.622114944E1,2.456830740E0
4.040558322E0,-4.137788773E0,-2.991686249E1,3.241078377E0
4.042795810E0,-5.444868088E0,-3.384049606E1,3.884149313E0
4.045034396E0,-5.995815277E0,-3.885943985E1,5.032105923E0
4.047268832E0,-6.169294834E0,-4.138685989E1,5.973681927E0
4.049503635E0,-5.230710506E0,-4.149573135E1,5.825326920E0
4.051730747E0,-3.902095556E0,-4.052962875E1,5.568696499E0
4.053967075E0,-2.930011272E0,-3.912205124E1,5.203791142E0
4.056216098E0,-2.236092806E0,-3.778625870E1,4.735395908E0
4.058452914E0,-2.102692842E0,-3.630450439E1,4.457828522E0
4.060685336E0,-2.056631088E0,-3.447817993E1,4.407579422E0
4.062928928E0,-1.762912035E0,-3.242992401E1,4.287340164E0
4.065163119E0,-1.567298889E0,-3.038406181E1,3.880560160E0
4.067402133E0,-1.549950838E0,-2.847877693E1,3.372085333E0
4.069633151E0,-1.578066587E0,-2.670629311E1,2.891726255E0
4.071858920E0,-1.246660590E0,-2.497747993E1,2.329412937E0
4.074098605E0,-6.897311211E-1,-2.323251343E1,1.687538147E0
4.076347263E0,-1.549352705E-1,-2.141516495E1,1.050449133E0
4.078584750E0,3.948157281E-2,-1.976651001E1,6.586244106E-1
4.080813999E0,6.478567123E-1,-1.838585091E1,1.375873089E-1
4.083057712E0,1.082752228E0,-1.705125427E1,-3.236292601E-1
4.085294589E0,1.631306887E0,-1.582373619E1,-7.974081635E-1
4.087533480E0,2.053041935E0,-1.475593948E1,-1.281356573E0
4.089768100E0,2.419741869E0,-1.379342651E1,-1.713859200E0
4.092003146E0,2.801397085E0,-1.286919880E1,-2.198405743E0
4.094234409E0,3.032902718E0,-1.200479126E1,-2.679363251E0
4.096473972E0,3.200400352E0,-1.123071289E1,-3.050848961E0
4.098702792E0,3.245863914E0,-1.055593681E1,-3.347558975E0
4.100941684E0,3.179463148E0,-9.937392235E0,-3.463610888E0
4.103189486E0,3.005385160E0,-9.388837814E0,-3.509074450E0
4.105427890E0,2.769093990E0,-8.901898384E0,-3.602394581E0
4.107665378E0,2.518445730E0,-8.443074226E0,-3.815355778E0
4.109899203E0,2.251047850E0,-7.982456207E0,-4.267001152E0
4.112136264E0,2.038684845E0,-7.539783955E0,-5.061418056E0
4.114373385E0,1.974078655E0,-7.094718933E0,-6.988836765E0
4.116611789E0,2.227717876E0,-6.574280262E0,-1.151246834E1
4.118846164E0,2.771486759E0,-6.024528980E0,-1.804128456E1
4.121083225E0,2.965305567E0,-5.740381718E0,-1.907019806E1
4.123319309E0,2.913859844E0,-5.707480431E0,-1.671984863E1
4.125556918E0,2.841476917E0,-5.701498032E0,-1.478943825E1
4.127793430E0,2.631506681E0,-5.716453075E0,-1.309352589E1
4.130027438E0,2.257628202E0,-5.757729530E0,-1.133719349E1
4.132256137E0,1.888535261E0,-5.860022545E0,-9.723833084E0
4.134506198E0,1.598405480E0,-5.944369793E0,-8.291130066E0
4.136741000E0,1.326221943E0,-5.821737289E0,-7.006184578E0
4.138980442E0,1.122233868E0,-5.729015827E0,-5.840281963E0
4.141213840E0,9.254241586E-1,-5.850451469E0,-4.845465660E0
4.143451205E0,8.027920127E-1,-6.174080849E0,-3.815953970E0
4.145688266E0,7.238288522E-1,-6.492924213E0,-2.938386202E0
4.147924838E0,7.142575383E-1,-6.773482800E0,-2.242074728E0
4.150162204E0,7.202396393E-1,-7.053442955E0,-1.692921996E0
4.152400180E0,7.034898400E-1,-7.380063057E0,-1.316052437E0
4.154633517E0,6.490531564E-1,-7.681559086E0,-1.091725349E0
4.156871860E0,6.047859192E-1,-7.997411251E0,-9.152546525E-1
4.159108371E0,5.922235847E-1,-8.433503151E0,-7.190431952E-1
4.161346103E0,3.373879790E-1,-8.995218277E0,-4.438686073E-1
4.163582309E0,2.482553422E-1,-9.425328255E0,-2.105683982E-1
4.165819064E0,1.782652885E-1,-9.812965393E0,1.375873014E-2
4.168056430E0,-5.383851007E-3,-1.008455086E1,3.320041299E-1
4.170294894E0,-2.350948304E-1,-1.025922680E1,6.209374666E-1
4.172524814E0,-5.132604837E-1,-1.058046341E1,6.999006271E-1
4.174748325E0,-6.544370055E-1,-1.094477081E1,2.745763958E-1
4.177002658E0,-6.921239495E-1,-1.083948612E1,3.696911037E-1
4.179240085E0,-9.164510965E-1,-1.095733356E1,6.777670383E-1
4.181481357E0,-1.156331539E0,-1.116012478E1,9.475577474E-1
4.183713657E0,-1.227517962E0,-1.135155106E1,1.133599758E0
4.185951022E0,-1.071984529E0,-1.155912781E1,1.039681435E0
4.188189426E0,-1.134197950E0,-1.168415260E1,1.406381488E0
4.190423862E0,-1.310668588E0,-1.165304661E1,1.395613790E0
4.192660800E0,-1.460818172E0,-1.153041458E1,1.236491084E0
4.194896701E0,-1.463211060E0,-1.136231804E1,1.193420291E0
4.197134555E0,-1.302293777E0,-1.126899815E1,1.056431174E0
4.199371066E0,-9.780662656E-1,-1.109133148E1,9.349954724E-1
4.201607944E0,-6.717849374E-1,-1.082333469E1,8.751748800E-1
4.203845004E0,-4.749752879E-1,-1.050508976E1,8.195417523E-1
4.206083652E0,-3.714857101E-1,-1.028255749E1,8.817551732E-1
4.208317905E0,-3.475574851E-1,-1.017368412E1,1.039083242E0
4.210555270E0,-3.583251834E-1,-1.016949654E1,1.220339537E0
4.212788425E0,-3.433700502E-1,-1.009352398E1,1.244267821E0
4.215016696E0,-2.392822653E-1,-9.941579819E0,1.140179992E0
4.217265414E0,-2.039881349E-1,-9.845867157E0,1.049850941E0
4.219501376E0,-7.118647546E-2,-9.713065147E0,9.074779749E-1
4.221738437E0,1.196411322E-3,-9.737591743E0,7.698906660E-1
4.223978061E0,5.383851007E-2,-9.804591179E0,6.418746710E-1
4.226212619E0,9.690931439E-2,-9.895518303E0,5.186443329E-1
4.228450534E0,1.519442350E-1,-1.011565781E1,4.289134443E-1
4.230685764E0,1.471585929E-1,-1.045005512E1,3.577269912E-1
4.232923068E0,1.351944804E-1,-1.066959572E1,2.817548811E-1
4.235159702E0,1.627119333E-1,-1.080838013E1,2.201396823E-1
4.237396701E0,1.477568001E-1,-1.089870930E1,1.154536903E-1
4.239632296E0,2.291127741E-1,-1.095194912E1,-1.734796353E-2
4.241866244E0,3.535395563E-1,-1.101595688E1,-4.965107143E-2
4.244106967E0,3.128615618E-1,-1.120140076E1,-1.022931710E-1
4.246344028E0,2.644068897E-1,-1.160698414E1,-1.734796464E-1
4.248581577E0,3.828516304E-1,-1.167577839E1,-1.196411327E-1
4.250817416E0,1.197009563E0,-1.007139015E1,-2.195414752E-1
4.253054233E0,1.223928809E0,-9.267401695E0,-3.260220885E-1
4.255291293E0,9.858429432E-1,-9.159127235E0,-3.044866920E-1
4.257525486E0,7.310073376E-1,-9.231510162E0,-2.973082066E-1
4.259752536E0,4.444667995E-1,-9.433105469E0,-2.327020019E-1
4.261990939E0,1.932204217E-1,-9.549157143E0,-1.776670814E-1
4.264238254E0,1.016949639E-1,-9.619147301E0,-2.213360965E-1
4.266477267E0,9.511470050E-2,-9.686744690E0,-1.256231815E-1
4.268714512E0,1.411765367E-1,-9.759725571E0,-1.076770201E-2
4.270948520E0,1.064806059E-1,-9.774082184E0,7.477571070E-2
4.273185580E0,7.298108935E-2,-9.721440315E0,1.746760458E-1
4.275422641E0,5.383851007E-2,-9.654440880E0,2.793620527E-1
4.277661105E0,4.007977992E-2,-9.564111710E0,3.936193287E-1
4.279892795E0,5.982056633E-2,-9.492925644E0,4.695914388E-1
4.282119235E0,5.563312769E-2,-9.388239861E0,5.599204898E-1
4.284355502E0,-1.076770201E-2,-9.306285858E0,6.215356588E-1
4.286591891E0,-9.152546525E-2,-9.553942680E0,7.070791125E-1
4.288831027E0,-2.249253243E-1,-1.009292603E1,8.159525394E-1
4.291070530E0,-1.722832322E-1,-1.010847950E1,8.500502706E-1
4.293320041E0,-1.854437590E-2,-9.737591743E0,8.081758618E-1
4.295558322E0,8.733802289E-2,-9.385248184E0,7.986045480E-1
4.297793003E0,1.405783296E-1,-9.060422897E0,7.274180651E-1
4.300026828E0,1.238285750E-1,-8.878568649E0,7.172485590E-1
4.302263217E0,7.597211748E-2,-8.915657043E0,6.879364848E-1
4.304500766E0,1.734796353E-2,-8.977272034E0,6.879364848E-1
4.306737338E0,-2.153540403E-2,-9.067003250E0,6.448656917E-1
4.308974094E0,-4.127619043E-2,-9.128618240E0,6.113662124E-1
4.311211215E0,-5.623133108E-2,-9.171091080E0,5.587241054E-1
4.313447055E0,-3.768695518E-2,-9.228518486E0,5.210371017E-1
4.315669955E0,-5.204389244E-2,-9.276374817E0,4.683950245E-1
4.317906833E0,-6.161518395E-2,-9.290133476E0,4.157529473E-1
4.320142978E0,-9.092725813E-2,-9.366106033E0,3.678964674E-1
4.322383029E0,-9.571290761E-2,-9.408578873E0,3.062812984E-1
4.324619907E0,-1.292124242E-1,-9.451051712E0,2.392822653E-1
4.326856906E0,-1.339980662E-1,-9.493523598E0,1.579262912E-1
4.329094210E0,-1.728814393E-1,-9.564111710E0,9.571290761E-2
4.331333041E0,-1.926222295E-1,-9.640084267E0,3.349951655E-2
4.333567111E0,-2.123630047E-1,-9.682557106E0,-1.375873014E-2
4.335803135E0,-2.315055877E-1,-9.710672379E0,-6.640082598E-2
4.338036716E0,-2.644068897E-1,-9.748359680E0,-1.668993831E-1
4.340278598E0,-2.841476798E-1,-9.771689415E0,-2.099701911E-1
4.342518466E0,-2.985046208E-1,-9.818947792E0,-2.482553422E-1
4.344752598E0,-3.320041299E-1,-9.847063065E0,-2.961117923E-1
4.346988681E0,-3.756731451E-1,-9.888937950E0,-3.535395563E-1
4.349226351E0,-4.187439680E-1,-9.907482147E0,-3.732803464E-1
4.351461520E0,-4.474578202E-1,-9.940383911E0,-4.115654826E-1
4.353698398E0,-4.905286431E-1,-9.939187050E0,-4.402793646E-1
4.355935337E0,-4.953143001E-1,-9.948758125E0,-4.360919297E-1
4.358175388E0,-5.575276613E-1,-9.943374634E0,-4.456632137E-1
4.360420748E0,-6.149554253E-1,-9.937392235E0,-4.414757788E-1
4.362650424E0,-6.251249313E-1,-9.961320877E0,-4.229314029E-1
4.364890353E0,-6.251249313E-1,-9.970891953E0,-4.133601189E-1
4.367119297E0,-6.352944374E-1,-9.990034103E0,-3.990031779E-1
4.369357151E0,-6.251249313E-1,-9.956535339E0,-3.750749528E-1
4.371590915E0,-6.107679605E-1,-9.928419113E0,-3.702892959E-1
4.373828952E0,-6.149554253E-1,-9.870991707E0,-3.415754437E-1
4.376065708E0,-6.047859192E-1,-9.823733330E0,-2.985046208E-1
4.378303256E0,-6.137589812E-1,-9.766305923E0,-2.799602449E-1
4.380540134E0,-6.185446382E-1,-9.732806206E0,-2.464607358E-1
4.382778842E0,-6.227321029E-1,-9.670592308E0,-2.087737769E-1
4.385020236E0,-6.227321029E-1,-9.651450157E0,-1.848455518E-1
4.387250278E0,-6.227321029E-1,-9.642477036E0,-1.609173268E-1
4.389487033E0,-6.562315822E-1,-9.646664619E0,-1.232303679E-1
4.391721530E0,-6.472585201E-1,-9.651450157E0,-1.040877849E-1
4.393963840E0,-6.759724021E-1,-9.651450157E0,-1.088734269E-1
4.396211826E0,-6.999006271E-1,-9.641280174E0,-6.640082598E-2
4.398444735E0,-7.381857634E-1,-9.655039787E0,-8.075776696E-2
4.400669406E0,-7.621139884E-1,-9.640682220E0,-8.135596663E-2
4.402921725E0,-8.057830334E-1,-9.659226418E0,-6.699903309E-2
4.405156528E0,-8.488538265E-1,-9.653842926E0,-7.238288224E-2
4.407397312E0,-8.638089895E-1,-9.681958199E0,-5.324030295E-2
4.409626865E0,-8.877372146E-1,-9.720243454E0,-5.383851007E-2
4.411853976E0,-9.122636318E-1,-9.714859962E0,-3.469592705E-2
4.414096713E0,-9.314061999E-1,-9.734002113E0,-2.991028316E-2
4.416340305E0,-9.128618240E-1,-9.739386559E0,3.589233849E-3
4.418577487E0,-9.224331379E-1,-9.734002113E0,1.734796353E-2
4.420805942E0,-9.326026440E-1,-9.753743172E0,6.999006122E-2
4.423050144E0,-8.955138922E-1,-9.816555023E0,1.184447184E-1
4.425284885E0,-8.632107973E-1,-9.879366875E0,1.710868180E-1
4.427526583E0,-8.548358679E-1,-9.927821159E0,2.141576260E-1
4.429758579E0,-8.219345808E-1,-9.970891953E0,2.333002090E-1
4.431986057E0,-7.746763229E-1,-1.000558758E1,2.578266263E-1
4.434220371E0,-7.369893789E-1,-1.002054310E1,2.823530734E-1
4.436460849E0,-7.130611539E-1,-1.001156998E1,2.871387303E-1
4.438710117E0,-7.028916478E-1,-9.997213364E0,2.871387303E-1
4.440936069E0,-6.496513486E-1,-9.949954987E0,2.494517565E-1
4.443184970E0,-6.299105883E-1,-9.907482147E0,2.733799815E-1
4.445418186E0,-6.101697683E-1,-9.893125534E0,2.733799815E-1
4.447658786E0,-6.095715761E-1,-9.854840279E0,2.590230405E-1
4.449892368E0,-5.766702294E-1,-9.888937950E0,2.644068897E-1
4.452129428E0,-5.623133183E-1,-9.908080101E0,2.356930375E-1
4.454366549E0,-5.288137794E-1,-9.918250084E0,2.219343036E-1
4.456605197E0,-4.899304509E-1,-9.904491425E0,1.938186288E-1
4.458839328E0,-4.809573591E-1,-9.918848038E0,1.842473447E-1
4.461073704E0,-4.899304509E-1,-9.918250084E0,1.555334777E-1
4.463301670E0,-5.563312769E-1,-9.878767967E0,1.262213886E-1
4.465550082E0,-5.659025311E-1,-9.907482147E0,8.315058798E-2
4.467786594E0,-5.365904570E-1,-9.883553505E0,1.196411345E-2
4.470026156E0,-5.222335458E-1,-9.719645500E0,-2.602194548E-1
4.472260775E0,-5.730810165E-1,-9.665806770E0,-3.894318938E-1
4.474499301E0,-7.435696125E-1,-9.538987160E0,-4.103690982E-1
4.476733981E0,-9.242277741E-1,-9.364311218E0,-2.835494876E-1
4.478970981E0,-9.164510965E-1,-9.418149948E0,-1.304088384E-1
4.481207004E0,-6.795616150E-1,-9.541379929E0,-1.375873014E-2
4.483444308E0,-3.391826153E-1,-9.461220741E0,1.178465188E-1
4.485680881E0,-1.094716340E-1,-9.412766457E0,2.297109663E-1
4.487917941E0,6.759724021E-2,-9.391828537E0,2.835494876E-1
4.490155124E0,2.913261652E-1,-9.462417603E0,3.194418252E-1
4.492393832E0,5.330012441E-1,-9.604789734E0,3.930211067E-1
4.494628207E0,6.071787477E-1,-9.735796928E0,5.084748268E-1
4.496865268E0,6.239284873E-1,-9.846465111E0,6.089733839E-1
4.499101230E0,7.178468108E-1,-9.906285286E0,7.387840152E-1
4.501338718E0,7.968099117E-1,-1.001755238E1,8.255237937E-1
4.503572421E0,8.476574421E-1,-1.014257717E1,8.165507317E-1
4.505796298E0,9.966106415E-1,-1.015872860E1,7.322037220E-1
4.508037448E0,1.001994491E0,-1.020598698E1,5.605186820E-1
4.510288058E0,9.164510965E-1,-1.031366348E1,3.218346536E-1
4.512525913E0,9.355936646E-1,-1.036092186E1,1.932204217E-1
4.514762302E0,7.770691514E-1,-1.047278690E1,3.469592705E-2
4.516995578E0,5.778666735E-1,-1.046859932E1,-1.722832322E-1
4.519233188E0,5.712863803E-1,-1.039083195E1,-4.636093974E-1
4.521470065E0,7.908278704E-1,-1.018744278E1,-5.856433511E-1
4.523706882E0,9.780662656E-1,-9.893125534E0,-6.987041831E-1
4.525944186E0,9.481559992E-1,-9.701101303E0,-7.567301393E-1
4.528182590E0,7.531409264E-1,-9.626325607E0,-8.255237937E-1
4.530416965E0,4.295116663E-1,-9.534799576E0,-9.523434043E-1
4.532653781E0,4.247260094E-2,-9.509675026E0,-1.027717352E0
4.534890110E0,-2.685943544E-1,-9.509077072E0,-1.064207911E0
4.537127719E0,-4.606183469E-1,-9.487542152E0,-1.008574724E0
4.539364291E0,-5.676971674E-1,-9.544371605E0,-8.422735929E-1
4.541601169E0,-6.281159520E-1,-9.649057388E0,-6.999006271E-1
4.543840060E0,-6.538388133E-1,-9.763314247E0,-6.951149702E-1
4.546082492E0,-6.299105883E-1,-9.820742607E0,-7.615157962E-1
4.548311374E0,-5.623133183E-1,-9.774082184E0,-7.800601721E-1
4.550548557E0,-4.803591371E-1,-9.713663101E0,-7.172485590E-1
4.552783176E0,-3.696911037E-1,-9.629914284E0,-5.736792088E-1
4.555021762E0,-2.506481707E-1,-9.579665184E0,-4.342973232E-1
4.557258517E0,-1.561316848E-1,-9.624530792E0,-3.092723191E-1
4.559492038E0,-1.010967568E-1,-9.693324089E0,-1.896311939E-1
4.561718661E0,-8.374879509E-2,-9.775279045E0,-9.391828626E-2
4.563971469E0,-7.058826834E-2,-9.837491989E0,-4.127619043E-2
4.566205783E0,-8.135596663E-2,-9.880562782E0,-2.991028363E-3
4.568446201E0,-8.075776696E-2,-9.875777245E0,-1.256231871E-2
4.570678867E0,-5.204389244E-2,-9.857233047E0,3.050848842E-2
4.572916293E0,5.324030295E-2,-9.806983948E0,9.810572863E-2
4.575153110E0,1.202393398E-1,-9.769894600E0,1.561316848E-1
4.577389926E0,2.117647976E-1,-9.733404160E0,1.998006850E-1
4.579624302E0,2.979064286E-1,-9.705886841E0,2.530409992E-1
4.581853793E0,3.451646566E-1,-9.707083702E0,3.152543902E-1
4.584100375E0,3.643072546E-1,-9.693324089E0,3.583251834E-1
4.586337131E0,3.690928817E-1,-9.693324089E0,3.966103494E-1
4.588576206E0,3.637090325E-1,-9.678967476E0,4.348955154E-1
4.590808689E0,3.487538993E-1,-9.717252731E0,4.438686073E-1
4.593039035E0,3.433700502E-1,-9.760323524E0,4.677968323E-1
4.595281283E0,3.188436031E-1,-9.812367439E0,4.534398913E-1
4.597506870E0,2.895315289E-1,-9.850652695E0,4.725824594E-1
4.599747410E0,2.697907388E-1,-9.873982430E0,4.534398913E-1
4.601982761E0,2.410768867E-1,-9.882955551E0,4.289134443E-1
4.604234592E0,2.464607358E-1,-9.882955551E0,4.151547253E-1
4.606470431E0,2.656033039E-1,-9.868598938E0,4.055834413E-1
4.608708103E0,2.512463629E-1,-9.859027863E0,3.960121572E-1
4.610941867E0,2.518445849E-1,-9.849455833E0,3.816552162E-1
4.613178805E0,2.464607358E-1,-9.873384476E0,3.720839322E-1
4.615416110E0,2.368894368E-1,-9.891928673E0,3.768695593E-1
4.617654514E0,2.506481707E-1,-9.921240807E0,3.720839322E-1
4.619888889E0,1.788634956E-1,-9.924830437E0,3.475574851E-1
