"Time (s)","Gyroscope x (rad/s)","Gyroscope y (rad/s)","Gyroscope z (rad/s)"
1.738632400E-2,-5.187773108E-1,-2.970332205E-1,1.382082552E-1
1.966787700E-2,-5.314527750E-1,-3.124575615E-1,1.404990107E-1
2.194942900E-2,-5.331326723E-1,-3.355177343E-1,1.366810948E-1
2.423098100E-2,-5.348125100E-1,-3.597996235E-1,1.353066564E-1
2.651253300E-2,-5.290092826E-1,-3.793473244E-1,1.316414624E-1
2.879408500E-2,-5.244278312E-1,-3.976732790E-1,1.279762685E-1
3.107563700E-2,-5.099197626E-1,-4.124867618E-1,1.194241568E-1
3.335768700E-2,-4.964807332E-1,-4.211915731E-1,1.073595658E-1
3.563930100E-2,-4.792237878E-1,-4.276056588E-1,9.392052889E-2
3.792091500E-2,-4.581489265E-1,-4.256203473E-1,7.819075137E-2
4.020252900E-2,-4.346306324E-1,-4.211915731E-1,6.139195710E-2
4.248408100E-2,-4.097378552E-1,-4.132503271E-1,4.077525437E-2
4.476855900E-2,-3.834706545E-1,-4.002694488E-1,1.908953860E-2
4.705260100E-2,-3.572034538E-1,-3.862195611E-1,9.162978968E-4
4.933701700E-2,-3.310889602E-1,-3.831652105E-1,-1.710422710E-2
5.162180600E-2,-3.013092875E-1,-3.776674271E-1,-3.405573592E-2
5.390335800E-2,-2.806925774E-1,-3.962988257E-1,-5.100724846E-2
5.618484800E-2,-2.611449063E-1,-4.124867618E-1,-6.444628537E-2
5.846640000E-2,-2.365575731E-1,-4.117231667E-1,-7.391469181E-2
6.074770300E-2,-2.116648108E-1,-4.024074674E-1,-7.742717117E-2
6.302925500E-2,-1.805106848E-1,-3.824016452E-1,-7.330382615E-2
6.531080700E-2,-1.493565589E-1,-3.587306142E-1,-6.566801667E-2
6.759229700E-2,-1.168279797E-1,-3.315471113E-1,-5.543602258E-2
6.987428400E-2,-8.659014851E-2,-2.968805134E-1,-4.657847434E-2
7.215452800E-2,-6.017022580E-2,-2.609921694E-1,-3.390302137E-2
7.443601800E-2,-3.863722831E-2,-2.263255715E-1,-2.260201424E-2
7.671757000E-2,-1.939497143E-2,-1.890627891E-1,-8.857546374E-3
7.899856200E-2,-3.054326226E-4,-1.530217379E-1,6.108652335E-3
8.127830800E-2,1.649336144E-2,-1.096503139E-1,2.122756653E-2
8.355680900E-2,2.825251780E-2,-6.856962293E-2,3.863722831E-2
8.583836100E-2,4.123340547E-2,-2.764165215E-2,5.971207842E-2
8.812047300E-2,5.528330430E-2,7.330383174E-3,8.078692853E-2
9.038528800E-2,6.322455406E-2,3.756821156E-2,1.004873365E-1
9.261972400E-2,7.330382615E-2,5.787948146E-2,1.226311997E-1
9.485373200E-2,8.445212245E-2,7.101308554E-2,1.449277848E-1
9.708981700E-2,9.315694869E-2,8.185594529E-2,1.707368344E-1
9.932748700E-2,1.004873365E-1,8.888089657E-2,1.902845204E-1
1.015641820E-1,1.065959856E-1,9.010262042E-2,2.148718536E-1
1.038007540E-1,1.101084575E-1,8.872817457E-2,2.356412709E-1
1.060378750E-1,1.148426682E-1,8.506298810E-2,2.541199327E-1
1.082765230E-1,1.122464910E-1,8.384125680E-2,2.724458873E-1
1.105109590E-1,1.072068512E-1,8.399397135E-2,2.869539559E-1
1.127478360E-1,1.021672115E-1,8.643743396E-2,3.003929853E-1
1.149846530E-1,9.101892263E-2,8.552113175E-2,3.101668358E-1
1.172214690E-1,8.353582025E-2,8.323039114E-2,3.161227703E-1
1.194582850E-1,7.360926270E-2,7.727445662E-2,3.234531581E-1
1.216832610E-1,6.459899992E-2,6.047565863E-2,3.294090927E-1
1.239202600E-1,4.810563847E-2,4.016438872E-2,3.329215646E-1
1.261617770E-1,3.054326214E-2,1.985312067E-2,3.289509416E-1
1.284085420E-1,1.527163107E-2,-1.679879380E-3,3.239113092E-1
1.306452980E-1,-3.512475174E-3,-2.428189293E-2,3.150537610E-1
1.328813810E-1,-2.092213556E-2,-3.848451003E-2,3.000875413E-1
1.351159390E-1,-3.817907721E-2,-4.550946131E-2,2.828305960E-1
1.373528170E-1,-5.665775016E-2,-4.993823543E-2,2.594650090E-1
1.395883510E-1,-7.376197726E-2,-5.207626149E-2,2.359467000E-1
1.418216270E-1,-9.086620808E-2,-5.177082866E-2,2.113593817E-1
1.440654020E-1,-1.043052375E-1,-5.879577994E-2,1.806633919E-1
1.462997770E-1,-1.154535338E-1,-6.948592514E-2,1.536326110E-1
1.485378760E-1,-1.290452778E-1,-8.017606288E-2,1.264491081E-1
1.507726170E-1,-1.389718503E-1,-9.453139454E-2,1.043052375E-1
1.530102870E-1,-1.476766765E-1,-1.076650023E-1,8.216137439E-2
1.552470430E-1,-1.589776874E-1,-1.232420653E-1,6.123924255E-2
1.574836760E-1,-1.637118906E-1,-1.255328059E-1,4.153883830E-2
1.597209810E-1,-1.721112877E-1,-1.217148975E-1,2.199114859E-2
1.619594450E-1,-1.782199293E-1,-1.178969890E-1,5.955935922E-3
1.641941860E-1,-1.841758788E-1,-1.166752651E-1,-1.114829071E-2
1.664311860E-1,-1.840231568E-1,-1.130100712E-1,-2.458732575E-2
1.686672090E-1,-1.889100820E-1,-1.153008118E-1,-3.573561832E-2
1.709046360E-1,-1.927279830E-1,-1.237002090E-1,-4.428773001E-2
1.731415740E-1,-1.951714456E-1,-1.298088580E-1,-5.787948146E-2
1.753781460E-1,-1.976149082E-1,-1.345430762E-1,-7.254024595E-2
1.776153290E-1,-2.025018334E-1,-1.343903542E-1,-8.597928286E-2
1.798539150E-1,-2.046398520E-1,-1.235474944E-1,-1.006400511E-1
1.820884120E-1,-2.041817009E-1,-1.088867337E-1,-1.153008118E-1
1.843254730E-1,-2.014328092E-1,-9.315694869E-2,-1.275181174E-1
1.865614960E-1,-1.971567571E-1,-7.391469181E-2,-1.408044398E-1
1.887967870E-1,-1.930334121E-1,-5.696318299E-2,-1.479821056E-1
1.910262790E-1,-1.892155111E-1,-4.734205827E-2,-1.540907621E-1
1.932722500E-1,-1.866193265E-1,-4.245513305E-2,-1.601994038E-1
1.955097990E-1,-1.815796942E-1,-3.894266114E-2,-1.624901593E-1
1.977506440E-1,-1.753183305E-1,-3.543018550E-2,-1.637118906E-1
1.999829440E-1,-1.678352207E-1,-2.947424725E-2,-1.673770845E-1
2.022195160E-1,-1.627955884E-1,-2.474004216E-2,-1.696678251E-1
2.044560280E-1,-1.514945775E-1,-1.527163107E-2,-1.695151031E-1
2.066933320E-1,-1.438587606E-1,-7.024950348E-3,-1.695151031E-1
2.089299650E-1,-1.351539344E-1,1.374446787E-3,-1.718058437E-1
2.111667820E-1,-1.262963861E-1,1.084285788E-2,-1.716531366E-1
2.134042690E-1,-1.188132912E-1,1.679879427E-2,-1.679879427E-1
2.156423680E-1,-1.102611795E-1,1.664607786E-2,-1.678352207E-1
2.178772920E-1,-1.055269688E-1,3.207042580E-3,-1.617265791E-1
2.201142300E-1,-1.010981947E-1,-1.756237634E-2,-1.580613852E-1
2.223503760E-1,-1.039998084E-1,-3.436116874E-2,-1.569923609E-1
2.245876190E-1,-1.065959856E-1,-4.169155285E-2,-1.569923609E-1
2.268241300E-1,-1.065959856E-1,-4.046982154E-2,-1.545489132E-1
2.290610080E-1,-1.110247597E-1,-2.214386500E-2,-1.545489132E-1
2.312953220E-1,-1.142318025E-1,5.803219974E-3,-1.556179225E-1
2.335217620E-1,-1.185078546E-1,3.252857551E-2,-1.580613852E-1
2.357597990E-1,-1.203404516E-1,6.536258012E-2,-1.566869318E-1
2.380082730E-1,-1.224784851E-1,8.613199741E-2,-1.554652005E-1
2.402473480E-1,-1.270599663E-1,1.030835137E-1,-1.505782902E-1
2.424846530E-1,-1.354593635E-1,1.117883399E-1,-1.469130963E-1
2.447187840E-1,-1.466076523E-1,1.108720452E-1,-1.420261711E-1
2.469556000E-1,-1.579086632E-1,1.061378345E-1,-1.360702366E-1
2.491927210E-1,-1.751656085E-1,1.053742543E-1,-1.337794960E-1
2.514311860E-1,-1.887573600E-1,1.067487001E-1,-1.266018152E-1
2.536659880E-1,-2.021963894E-1,1.070541367E-1,-1.192714423E-1
2.559026210E-1,-2.234239578E-1,1.026253626E-1,-1.110247597E-1
2.581388890E-1,-2.405281961E-1,1.053742543E-1,-1.085812971E-1
2.603761320E-1,-2.603813112E-1,1.021672115E-1,-1.027780771E-1
2.626128270E-1,-2.777909636E-1,9.758572280E-2,-9.437867999E-2
2.648498260E-1,-2.999348342E-1,1.004873365E-1,-8.842274547E-2
2.670870080E-1,-3.210096955E-1,9.728029370E-2,-7.757988572E-2
2.693257780E-1,-3.382666409E-1,9.392052889E-2,-6.918048859E-2
2.715603360E-1,-3.605632186E-1,9.071348608E-2,-6.078109145E-2
2.737951390E-1,-3.865249753E-1,9.117163718E-2,-4.993823543E-2
2.760250580E-1,-4.063780904E-1,8.918632567E-2,-3.787364438E-2
2.782704800E-1,-4.189008474E-1,7.727445662E-2,-2.580905706E-2
2.805072970E-1,-4.327980280E-1,6.536258012E-2,-1.618792862E-2
2.827461270E-1,-4.480696619E-1,4.871650413E-2,-5.345070735E-3
2.849812950E-1,-4.581489265E-1,3.924809024E-2,6.108652451E-4
2.872199430E-1,-4.670064747E-1,2.718350291E-2,9.010262787E-3
2.894562100E-1,-4.709770977E-1,1.756237634E-2,1.267545391E-2
2.916987640E-1,-4.711298347E-1,7.941247895E-3,1.756237634E-2
2.939274630E-1,-4.665483236E-1,-1.832595794E-3,2.367102914E-2
2.961650730E-1,-4.520402849E-1,-1.313360315E-2,2.855795063E-2
2.983998140E-1,-4.361577928E-1,-2.061670274E-2,2.993239649E-2
3.006386440E-1,-4.190535545E-1,-2.580905706E-2,3.375030309E-2
3.028755220E-1,-3.932445049E-1,-3.237585723E-2,3.634648025E-2
3.051142300E-1,-3.639229834E-1,-3.543018550E-2,3.909537569E-2
3.073486050E-1,-3.294090927E-1,-3.726277873E-2,3.802636266E-2
3.095827360E-1,-2.947424948E-1,-3.191770986E-2,3.588833287E-2
3.118097260E-1,-2.539672256E-1,-2.306016348E-2,3.634648025E-2
3.140591770E-1,-2.168571651E-1,-1.527163107E-2,3.665191308E-2
3.162961150E-1,-1.786780804E-1,-9.926560335E-3,3.344487399E-2
3.185339690E-1,-1.415680200E-1,-2.138028387E-3,3.375030309E-2
3.207630340E-1,-1.081231460E-1,4.428773187E-3,3.283400834E-2
3.230084560E-1,-7.483099401E-2,9.926560335E-3,2.947424725E-2
3.252429530E-1,-5.009094998E-2,1.420261711E-2,2.718350291E-2
3.274817230E-1,-3.390302137E-2,1.634064503E-2,2.367102914E-2
3.297159760E-1,-2.519819140E-2,1.863138936E-2,1.404990070E-2
3.319534030E-1,-2.138028294E-2,2.580905706E-2,5.497787148E-3
3.341902190E-1,-3.207042441E-2,3.940080851E-2,-4.276056774E-3
3.364272800E-1,-4.749477282E-2,5.910121277E-2,-2.153299935E-2
3.386614110E-1,-7.788532227E-2,7.422012836E-2,-3.878994286E-2
3.408909030E-1,-1.166752651E-1,1.029307917E-1,-5.864306539E-2
3.431374850E-1,-1.640173197E-1,1.281289905E-1,-7.971791178E-2
3.453744840E-1,-2.148718536E-1,1.606575549E-1,-1.044579595E-1
3.476133140E-1,-2.779437006E-1,1.971567571E-1,-1.293507218E-1
3.498478730E-1,-3.507893682E-1,2.385428846E-1,-1.566869318E-1
3.520843840E-1,-4.222606122E-1,2.837468982E-1,-1.853975952E-1
3.543213840E-1,-5.010622144E-1,3.361285925E-1,-2.176207453E-1
3.565588100E-1,-5.907067060E-1,3.926336467E-1,-2.524400651E-1
3.587969700E-1,-6.791294217E-1,4.512766898E-1,-2.909245789E-1
3.610320770E-1,-7.699956298E-1,5.149593949E-1,-3.292563558E-1
3.632687710E-1,-8.645270467E-1,5.714644194E-1,-3.715587854E-1
3.655049780E-1,-9.653198123E-1,6.281222105E-1,-4.137084782E-1
3.677424040E-1,-1.061378360E0,6.748533845E-1,-4.535674453E-1
3.699789760E-1,-1.151175499E0,7.203628421E-1,-4.944954216E-1
3.722157930E-1,-1.237765670E0,7.510588169E-1,-5.329799056E-1
3.744529140E-1,-1.319316268E0,7.819074988E-1,-5.677992702E-1
3.766916230E-1,-1.400103092E0,7.954992652E-1,-6.003278494E-1
3.789259980E-1,-1.470352650E0,7.835873961E-1,-6.253733039E-1
3.811628750E-1,-1.534798980E0,7.593054771E-1,-6.456845403E-1
3.833991430E-1,-1.590693116E0,7.203628421E-1,-6.707300544E-1
3.856367520E-1,-1.637271523E0,6.630942225E-1,-6.910412908E-1
3.878733250E-1,-1.684155464E0,5.972734690E-1,-7.075346708E-1
3.901101410E-1,-1.733940959E0,5.035057068E-1,-7.119634151E-1
3.923469570E-1,-1.796860099E0,3.798054755E-1,-7.093672752E-1
3.945837730E-1,-1.887420893E0,1.667662114E-1,-7.037167549E-1
3.968205890E-1,-1.975996375E0,-1.359175146E-2,-7.064656615E-1
3.990456880E-1,-2.053117990E0,-1.151480973E-1,-7.197519541E-1
4.012847010E-1,-2.129628897E0,-1.379028261E-1,-7.486153841E-1
4.035220050E-1,-2.200031281E0,-9.896016866E-2,-7.857254148E-1
4.057569910E-1,-2.262033939E0,-1.160643995E-2,-8.214610219E-1
4.079968600E-1,-2.309834242E0,1.119410545E-1,-8.481863737E-1
4.102453950E-1,-2.341293812E0,2.570215464E-1,-8.613200188E-1
4.124830660E-1,-2.360383272E0,4.066835344E-1,-8.547531962E-1
4.147176850E-1,-2.368935347E0,6.009386778E-1,-8.394815922E-1
4.169518160E-1,-2.366644621E0,8.387179971E-1,-8.225300312E-1
4.191877170E-1,-2.353511095E0,1.129795313E0,-8.040513992E-1
4.214253270E-1,-2.333199739E0,1.465465665E0,-7.854200006E-1
4.236620210E-1,-2.305252790E0,1.822974563E0,-7.666358948E-1
4.258987150E-1,-2.264630079E0,2.186286688E0,-7.476990819E-1
4.281360810E-1,-2.218509912E0,2.525164127E0,-7.324274182E-1
4.303747280E-1,-2.156048775E0,2.817615986E0,-7.234171629E-1
4.326091640E-1,-2.075414658E0,3.029586077E0,-7.194465399E-1
4.348459200E-1,-1.999820113E0,3.173750401E0,-7.145596147E-1
4.370819430E-1,-1.922240257E0,3.238960266E0,-7.136433125E-1
4.393168680E-1,-1.840842366E0,3.190091133E0,-7.093672752E-1
4.415425140E-1,-1.754405022E0,3.017216206E0,-7.069237828E-1
4.437785370E-1,-1.649794340E0,2.711783648E0,-7.060074806E-1
4.460184660E-1,-1.535104394E0,2.300671339E0,-7.055493593E-1
4.482720070E-1,-1.404990077E0,1.796860099E0,-7.015787363E-1
4.505063210E-1,-1.256702542E0,1.219897866E0,-6.855435371E-1
4.527432590E-1,-1.094517827E0,6.062837839E-1,-6.571382880E-1
4.549764740E-1,-9.208793640E-1,1.679879427E-2,-6.238461137E-1
4.572141450E-1,-7.223481536E-1,-5.598580241E-1,-5.755877495E-1
4.594460170E-1,-4.685336351E-1,-1.083064079E0,-5.290092826E-1
4.616686740E-1,-2.223549485E-1,-1.496772528E0,-4.980078936E-1
4.639245940E-1,1.237002108E-2,-1.752572417E0,-4.810563922E-1
4.661633030E-1,2.631302178E-1,-1.829083204E0,-4.682282209E-1
4.684023780E-1,5.418374538E-1,-1.744783878E0,-4.569272101E-1
4.706345550E-1,8.266534209E-1,-1.539227724E0,-4.488332272E-1
4.728707610E-1,1.106735110E0,-1.263116598E0,-4.465425014E-1
4.751081880E-1,1.356426239E0,-9.694431424E-1,-4.358523488E-1
4.773450650E-1,1.586264372E0,-7.348709106E-1,-4.097378552E-1
4.795790740E-1,1.816102386E0,-6.204863787E-1,-3.656028509E-1
4.818072230E-1,2.040900707E0,-6.273586154E-1,-3.098613918E-1
4.840566130E-1,2.250580311E0,-7.090618610E-1,-2.509129047E-1
4.862880580E-1,2.438879490E0,-8.049677014E-1,-1.861611903E-1
4.885320160E-1,2.602744102E0,-8.458956480E-1,-1.273654103E-1
4.907651100E-1,2.741257906E0,-7.927503586E-1,-7.086037099E-2
4.930036960E-1,2.855947733E0,-6.372851729E-1,-6.872233935E-3
4.952392300E-1,2.956587791E0,-3.903428912E-1,5.986479297E-2
4.974761080E-1,3.043788910E0,-7.544185966E-2,1.243110746E-1
4.997134120E-1,3.129157305E0,2.700024247E-1,1.985312104E-1
5.019519990E-1,3.209486008E0,6.178901792E-1,2.716823220E-1
5.041868010E-1,3.284469604E0,9.428704977E-1,3.469714522E-1
5.064233730E-1,3.366020203E0,1.222799540E0,4.283692539E-1
5.086596410E-1,3.455970049E0,1.443169117E0,5.157229900E-1
5.108968840E-1,3.557984591E0,1.584279060E0,6.113234162E-1
5.131306480E-1,3.667024136E0,1.650099754E0,7.116580009E-1
5.153559290E-1,3.787517309E0,1.679268599E0,8.181012869E-1
5.175960420E-1,3.896251202E0,1.677130580E0,9.181304574E-1
5.198464690E-1,3.992309809E0,1.638951421E0,9.934195876E-1
5.220806610E-1,4.006512642E0,1.494176388E0,9.941831827E-1
5.243083830E-1,3.907552242E0,1.204931736E0,9.248499870E-1
5.265539280E-1,3.639382362E0,6.737843752E-1,7.686212063E-1
5.287915370E-1,3.193450689E0,-8.689557761E-2,5.342016816E-1
5.310311620E-1,2.640159607E0,-9.279043078E-1,2.568688393E-1
5.332648650E-1,2.077552795E0,-1.631621122E0,-2.244929783E-2
5.355019860E-1,1.561218858E0,-2.047467470E0,-2.904664278E-1
5.377406950E-1,1.125824690E0,-2.227061987E0,-5.273294449E-1
5.399750700E-1,7.831292152E-1,-2.259132385E0,-7.298312783E-1
5.422119480E-1,5.070181489E-1,-2.151772738E0,-9.031642675E-1
5.444482150E-1,2.852740586E-1,-1.912008166E0,-1.055727839E0
5.466857640E-1,7.925976813E-2,-1.551139593E0,-1.199281216E0
5.489222140E-1,-1.287398487E-1,-1.112691045E0,-1.336267710E0
5.511593960E-1,-3.469714522E-1,-6.253733039E-1,-1.467145562E0
5.533962740E-1,-5.859724879E-1,-1.316414624E-1,-1.590693116E0
5.556350430E-1,-8.295549750E-1,3.307835162E-1,-1.698663473E0
5.578693570E-1,-1.073137522E0,7.334964275E-1,-1.780977607E0
5.601064790E-1,-1.296866894E0,1.046106696E0,-1.811062694E0
5.623424410E-1,-1.500132322E0,1.226159215E0,-1.782657504E0
5.645798070E-1,-1.667204022E0,1.279151797E0,-1.693318486E0
5.668163790E-1,-1.797929168E0,1.248914003E0,-1.559997082E0
5.690535000E-1,-1.906510472E0,1.172097683E0,-1.399644971E0
5.712908660E-1,-1.988213658E0,1.089936256E0,-1.230588078E0
5.735293300E-1,-2.052049160E0,1.030529618E0,-1.065043569E0
5.757637050E-1,-2.104583502E0,9.865473509E-1,-9.053022861E-1
5.780007050E-1,-2.145664215E0,9.521862268E-1,-7.516697049E-1
5.802367280E-1,-2.179414511E0,9.164505601E-1,-6.076582074E-1
5.824741550E-1,-2.204765320E0,8.671231866E-1,-4.747950137E-1
5.847109710E-1,-2.222633123E0,8.116871715E-1,-3.527746797E-1
5.869480320E-1,-2.242944479E0,7.597636580E-1,-2.405281961E-1
5.891822850E-1,-2.253634691E0,6.931793094E-1,-1.417207420E-1
5.914092130E-1,-2.252107382E0,6.119342446E-1,-7.360926270E-2
5.936434660E-1,-2.242333651E0,4.952589869E-1,-3.481931984E-2
5.958801600E-1,-2.219426155E0,3.527746797E-1,-3.023782931E-2
5.981224700E-1,-2.190715551E0,1.798998117E-1,-6.017022580E-2
6.003716160E-1,-2.158186913E0,6.872233935E-3,-1.156062484E-1
6.026084320E-1,-2.116953611E0,-1.685988009E-1,-1.893682331E-1
6.048441500E-1,-2.067931652E0,-3.333797157E-1,-2.753475010E-1
6.070762050E-1,-2.010052204E0,-4.897612035E-1,-3.733913898E-1
6.093178440E-1,-1.938428164E0,-6.272059083E-1,-4.686863720E-1
6.115525850E-1,-1.855197787E0,-7.428121567E-1,-5.603161454E-1
6.137903780E-1,-1.761735320E0,-8.429940343E-1,-6.455318332E-1
6.160256080E-1,-1.660942554E0,-9.298896194E-1,-7.122688890E-1
6.182629730E-1,-1.559997082E0,-1.008233070E0,-7.582364678E-1
6.204997280E-1,-1.454928279E0,-1.055269718E0,-7.832819819E-1
6.227365450E-1,-1.340238333E0,-1.050230026E0,-7.895433307E-1
6.249736660E-1,-1.220814228E0,-9.833403230E-1,-7.712173462E-1
6.272121310E-1,-1.087187409E0,-8.718574047E-1,-7.267768979E-1
6.294430880E-1,-9.480628371E-1,-7.278459668E-1,-6.614143252E-1
6.316689180E-1,-8.118399382E-1,-5.994115472E-1,-5.765040517E-1
6.339196510E-1,-6.733261943E-1,-5.329799056E-1,-4.673119187E-1
6.361572600E-1,-5.389358401E-1,-4.810563922E-1,-3.436116874E-1
6.383978000E-1,-4.094324410E-1,-4.265366495E-1,-2.150245607E-1
6.406312590E-1,-2.935207486E-1,-3.753767014E-1,-9.147707373E-2
6.428685020E-1,-1.780672222E-1,-3.413209617E-1,4.062253982E-2
6.451066620E-1,-6.673702598E-2,-3.324634135E-1,1.725694388E-1
6.473410370E-1,4.153883830E-2,-3.553708494E-1,3.042109013E-1
6.495751680E-1,1.514945775E-1,-4.095851481E-1,4.372268021E-1
6.517998380E-1,2.646573782E-1,-4.908302128E-1,5.723807216E-1
6.540403170E-1,3.726277947E-1,-5.862779021E-1,7.038694620E-1
6.562883640E-1,4.778493345E-1,-6.951646209E-1,8.303185701E-1
6.585262180E-1,5.754350424E-1,-8.173376918E-1,9.543242455E-1
6.607570530E-1,6.666067243E-1,-9.561568499E-1,1.074359298E0
6.630009490E-1,7.588473558E-1,-1.106124282E0,1.187216640E0
6.652353240E-1,8.460483551E-1,-1.263116598E0,1.288772941E0
6.674744600E-1,9.309586287E-1,-1.417665482E0,1.375821233E0
6.697084080E-1,1.016021609E0,-1.571145415E0,1.451721311E0
6.719458340E-1,1.100168347E0,-1.708742857E0,1.510669708E0
6.741826510E-1,1.177290082E0,-1.838857055E0,1.553583026E0
6.764197110E-1,1.257313371E0,-1.950798154E0,1.578323126E0
6.786539040E-1,1.325424910E0,-2.052965403E0,1.582141042E0
6.808835780E-1,1.387733102E0,-2.140319109E0,1.565189481E0
6.831298550E-1,1.439656615E0,-2.210415840E0,1.522581577E0
6.853667330E-1,1.446376204E0,-2.149940252E0,1.439656615E0
6.876048310E-1,1.408807993E0,-1.976759911E0,1.317636371E0
6.898359710E-1,1.367421865E0,-1.812131763E0,1.187063932E0
6.920771210E-1,1.341765523E0,-1.725541592E0,1.056185961E0
6.943137540E-1,1.334282398E0,-1.716836810E0,9.326385260E-1
6.965524020E-1,1.331838965E0,-1.755626678E0,8.089383245E-1
6.987895230E-1,1.338863850E0,-1.815186024E0,6.875288486E-1
7.010242030E-1,1.344667077E0,-1.873523712E0,5.601634383E-1
7.032608980E-1,1.348026872E0,-1.936595559E0,4.326453209E-1
7.054970430E-1,1.354593635E0,-2.017993450E0,3.087923825E-1
7.077346530E-1,1.364062071E0,-2.135890245E0,1.896736622E-1
7.099714690E-1,1.377806544E0,-2.290286541E0,7.406741381E-2
7.122083470E-1,1.396896124E0,-2.475073338E0,-3.298672289E-2
7.144456510E-1,1.417207360E0,-2.658791065E0,-1.203404516E-1
7.166840550E-1,1.441336513E0,-2.818226814E0,-1.745547503E-1
7.189184300E-1,1.464396715E0,-2.973997355E0,-2.240348309E-1
7.211552460E-1,1.482569933E0,-3.123659372E0,-2.660318017E-1
7.233915130E-1,1.496161699E0,-3.260951281E0,-3.043636084E-1
7.256288790E-1,1.503644824E0,-3.386178732E0,-3.379611969E-1
7.278655120E-1,1.508684397E0,-3.510031700E0,-3.714060783E-1
7.301025120E-1,1.511433363E0,-3.628997803E0,-4.011857510E-1
7.323396330E-1,1.509448051E0,-3.738189936E0,-4.286746979E-1
7.345781590E-1,1.510058880E0,-3.834095716E0,-4.521929920E-1
7.368127780E-1,1.508531690E0,-3.919005871E0,-4.685336351E-1
7.390498990E-1,1.502270341E0,-3.989255428E0,-4.822781086E-1
7.412861670E-1,1.492649198E0,-4.044844151E0,-4.935791194E-1
7.435235320E-1,1.481806397E0,-4.092033386E0,-4.999932051E-1
7.457602870E-1,1.470199943E0,-4.123340607E0,-5.051855445E-1
7.479969820E-1,1.451110363E0,-4.150829315E0,-5.140430927E-1
7.502309910E-1,1.427439332E0,-4.166100979E0,-5.166392922E-1
7.524609100E-1,1.403768301E0,-4.185037613E0,-5.193881989E-1
7.547072480E-1,1.381929874E0,-4.232074261E0,-5.210680366E-1
7.569441860E-1,1.367269158E0,-4.342183113E0,-5.227479339E-1
7.591833220E-1,1.354135513E0,-4.503298759E0,-5.125159621E-1
7.614177580E-1,1.334893227E0,-4.657083988E0,-5.071708560E-1
7.636545750E-1,1.307862520E0,-4.781547546E0,-5.030475259E-1
7.658912690E-1,1.271515965E0,-4.870581150E0,-5.001459122E-1
7.681282680E-1,1.220966935E0,-4.932736874E0,-4.983133376E-1
7.703671600E-1,1.164309144E0,-4.995961189E0,-4.941899776E-1
7.725984830E-1,1.097419381E0,-5.072319508E0,-4.827362597E-1
7.748262050E-1,1.031445980E0,-5.159673214E0,-4.677700698E-1
7.770743750E-1,9.607383013E-1,-5.240765572E0,-4.442517459E-1
7.793119840E-1,8.863654733E-1,-5.315749168E0,-4.109596014E-1
7.815517310E-1,8.107708693E-1,-5.385846138E0,-3.691153228E-1
7.837859220E-1,7.305948138E-1,-5.440213203E0,-3.222314119E-1
7.860227990E-1,6.491970420E-1,-5.484653473E0,-2.667953968E-1
7.882615080E-1,5.668829679E-1,-5.515807629E0,-2.040289938E-1
7.904958220E-1,4.847215712E-1,-5.536118984E0,-1.362229437E-1
7.927328830E-1,4.063780904E-1,-5.549099922E0,-6.108652428E-2
7.949686620E-1,3.297145069E-1,-5.544060230E0,1.893682219E-2
7.972063320E-1,2.533563673E-1,-5.515807629E0,1.078177169E-1
7.994458350E-1,1.850921661E-1,-5.448917866E0,2.029599845E-1
8.016909520E-1,1.220203340E-1,-5.364007950E0,2.993239760E-1
8.039170860E-1,6.566801667E-2,-5.254968166E0,4.021020532E-1
8.061557340E-1,2.306016348E-2,-5.141194820E0,5.038111210E-1
8.083874230E-1,-4.886921961E-3,-5.026657581E0,6.018549800E-1
8.106272310E-1,-1.679879427E-2,-4.918381691E0,6.928738952E-1
8.128631930E-1,-2.122756653E-2,-4.801858902E0,7.800748944E-1
8.151006190E-1,-4.734205548E-3,-4.688085556E0,8.651378751E-1
8.173387180E-1,1.786780916E-2,-4.575685978E0,9.428704977E-1
8.195769990E-1,4.902193695E-2,-4.469548225E0,1.020603061E0
8.218011200E-1,8.582656831E-2,-4.388914108E0,1.099557400E0
8.240500210E-1,1.281289905E-1,-4.338823318E0,1.179733515E0
8.262831140E-1,1.760819107E-1,-4.317901134E0,1.262200356E0
8.285240810E-1,2.293798923E-1,-4.328743935E0,1.345888853E0
8.307574800E-1,2.822197378E-1,-4.369824409E0,1.426828504E0
8.329949070E-1,3.381139040E-1,-4.436408997E0,1.508989930E0
8.352317230E-1,3.938553631E-1,-4.513988495E0,1.588707805E0
8.374687840E-1,4.567744732E-1,-4.603785992E0,1.662317038E0
8.397059050E-1,5.183191895E-1,-4.700913429E0,1.737148046E0
8.419443080E-1,5.849034786E-1,-4.798040867E0,1.807092071E0
8.441786830E-1,6.551529765E-1,-4.890434265E0,1.874592662E0
8.464157440E-1,7.255551815E-1,-4.974428177E0,1.940871596E0
8.486518280E-1,8.022187948E-1,-5.058422565E0,2.008524895E0
8.508894990E-1,8.764389157E-1,-5.137529373E0,2.074956417E0
8.531262540E-1,9.532552361E-1,-5.211902142E0,2.143831491E0
8.553634370E-1,1.032514930E0,-5.283831596E0,2.220036983E0
8.576015960E-1,1.109331250E0,-5.353317738E0,2.303572893E0
8.598385960E-1,1.192561626E0,-5.411960602E0,2.389704943E0
8.620732150E-1,1.274570346E0,-5.465716839E0,2.479654789E0
8.643096650E-1,1.358869791E0,-5.522068977E0,2.575560570E0
8.665461150E-1,1.448208809E0,-5.578421593E0,2.675131559E0
8.687836640E-1,1.540907621E0,-5.643325806E0,2.779742241E0
8.710202970E-1,1.638646007E0,-5.708383083E0,2.884352922E0
8.732573580E-1,1.737453461E0,-5.781992435E0,2.990032673E0
8.754944180E-1,1.833664775E0,-5.857892036E0,3.093421698E0
8.777330050E-1,1.927279830E0,-5.939748287E0,3.196657896E0
8.799677460E-1,2.014786243E0,-6.017939091E0,3.302337408E0
8.822043790E-1,2.093740702E0,-6.097198963E0,3.405421019E0
8.844406470E-1,2.156659842E0,-6.174931526E0,3.512169838E0
8.866780120E-1,2.208583355E0,-6.251136780E0,3.623652697E0
8.889150730E-1,2.244471550E0,-6.325967789E0,3.741091490E0
8.911515840E-1,2.275320292E0,-6.399424076E0,3.860973835E0
8.933887050E-1,2.298838615E0,-6.476240635E0,3.984368563E0
8.956269260E-1,2.314721107E0,-6.554278851E0,4.115246296E0
8.978610570E-1,2.327091217E0,-6.628651619E0,4.250858307E0
9.000986660E-1,2.335795879E0,-6.696763039E0,4.387692451E0
9.023349340E-1,2.337323189E0,-6.758765697E0,4.525747776E0
9.045724820E-1,2.340072155E0,-6.814660072E0,4.667468548E0
9.068091160E-1,2.339461088E0,-6.858336926E0,4.812854767E0
9.090459320E-1,2.339003086E0,-6.891017914E0,4.959614754E0
9.112832970E-1,2.341140985E0,-6.914230824E0,5.112483978E0
9.135217010E-1,2.343737125E0,-6.922782898E0,5.261687756E0
9.157561370E-1,2.351372957E0,-6.919270515E0,5.412266254E0
9.179931370E-1,2.361757755E0,-6.898959160E0,5.561775208E0
9.202292210E-1,2.373822451E0,-6.865209103E0,5.705175877E0
9.224668300E-1,2.387261391E0,-6.824128151E0,5.836359501E0
9.247033420E-1,2.402227640E0,-6.773579121E0,5.965251923E0
9.269401580E-1,2.414902925E0,-6.714325428E0,6.082995892E0
9.291772790E-1,2.417957306E0,-6.651253700E0,6.187301159E0
9.314160490E-1,2.415971994E0,-6.593068600E0,6.281832695E0
9.336506070E-1,2.405587435E0,-6.528469563E0,6.371324539E0
9.358873020E-1,2.389552116E0,-6.448140621E0,6.443712234E0
9.381236910E-1,2.367408276E0,-6.361550808E0,6.506173134E0
9.403579430E-1,2.337017775E0,-6.267477512E0,6.562677860E0
9.425833460E-1,2.305405378E0,-6.165004730E0,6.615365028E0
9.448230320E-1,2.264019251E0,-6.065891743E0,6.666830540E0
9.470721160E-1,2.218967915E0,-5.961892128E0,6.717074394E0
9.493132050E-1,2.160325050E0,-5.864764690E0,6.767012596E0
9.515478850E-1,2.101223707E0,-5.782450199E0,6.818325043E0
9.537819550E-1,2.037082911E0,-5.710673809E0,6.871928692E0
9.560180390E-1,1.962862730E0,-5.652336121E0,6.929044247E0
9.582554660E-1,1.885740995E0,-5.605910301E0,6.990894794E0
9.604924040E-1,1.807397485E0,-5.561928272E0,7.051675797E0
9.627289760E-1,1.729054093E0,-5.522679806E0,7.111082554E0
9.649661590E-1,1.649336219E0,-5.484806538E0,7.172932625E0
9.672018160E-1,1.568549275E0,-5.441893101E0,7.233560562E0
9.694255710E-1,1.487762332E0,-5.395467281E0,7.293120384E0
9.716684910E-1,1.403310180E0,-5.348888874E0,7.353748322E0
9.739123260E-1,1.313971162E0,-5.303532124E0,7.411933422E0
9.761528660E-1,1.229519010E0,-5.264284134E0,7.468896866E0
9.783884000E-1,1.141248941E0,-5.230991840E0,7.518376827E0
9.806233250E-1,1.058934927E0,-5.200295925E0,7.569231033E0
9.828606900E-1,9.828822017E-1,-5.173264980E0,7.611533642E0
9.850993380E-1,9.117164016E-1,-5.150052071E0,7.651392460E0
9.873335300E-1,8.466592431E-1,-5.126992226E0,7.685142994E0
9.895675380E-1,7.927503586E-1,-5.104084492E0,7.714159012E0
9.917945290E-1,7.438811660E-1,-5.082398891E0,7.729736328E0
9.940439790E-1,7.038694620E-1,-5.052618980E0,7.732027054E0
9.962807950E-1,6.713408828E-1,-5.019174099E0,7.714769840E0
9.985177950E-1,6.516404748E-1,-4.971374035E0,7.679186821E0
1.000742770E0,6.430884004E-1,-4.926322937E0,7.626652718E0
1.002993381E0,6.421720982E-1,-4.874094009E0,7.555944920E0
1.005227756E0,6.525567770E-1,-4.816061497E0,7.468132973E0
1.007467929E0,6.765332818E-1,-4.757112980E0,7.369478226E0
1.009701084E0,7.156286240E-1,-4.693430424E0,7.256315708E0
1.011935336E0,7.695375085E-1,-4.625319004E0,7.129713535E0
1.014160373E0,8.434522152E-1,-4.554000378E0,6.985091209E0
1.016400119E0,9.245445728E-1,-4.491233826E0,6.828098774E0
1.018648898E0,1.016937971E0,-4.429841995E0,6.655529499E0
1.020889194E0,1.124144793E0,-4.359134197E0,6.474408150E0
1.023125278E0,1.246928692E0,-4.260785103E0,6.280000210E0
1.025359103E0,1.378570199E0,-4.154036522E0,6.073527813E0
1.027592563E0,1.516778350E0,-4.029267311E0,5.856212616E0
1.029820834E0,1.660179019E0,-3.895029545E0,5.641340733E0
1.032069553E0,1.807550311E0,-3.742465973E0,5.430286407E0
1.034306186E0,1.958892107E0,-3.573103428E0,5.226715565E0
1.036546481E0,2.106721401E0,-3.393967390E0,5.029253483E0
1.038782016E0,2.253329277E0,-3.208722353E0,4.842786789E0
1.041016940E0,2.395049810E0,-3.014772654E0,4.668537617E0
1.043253635E0,2.531883717E0,-2.819601297E0,4.500549793E0
1.045486484E0,2.666274071E0,-2.621986389E0,4.340960979E0
1.047714999E0,2.789668798E0,-2.419331789E0,4.183663368E0
1.049963535E0,2.894432306E0,-2.227214575E0,4.028809071E0
1.052200473E0,2.991712570E0,-2.036013842E0,3.879910707E0
1.054440829E0,3.081357002E0,-1.850921750E0,3.727194309E0
1.056676547E0,3.157257080E0,-1.677588701E0,3.582877398E0
1.058910922E0,3.222008705E0,-1.511433363E0,3.444669008E0
1.061147739E0,3.280346394E0,-1.352302909E0,3.312416792E0
1.063384006E0,3.328604698E0,-1.202793717E0,3.184898615E0
1.065621616E0,3.361896992E0,-1.054200649E0,3.067154408E0
1.067858188E0,3.385262489E0,-9.101892114E-1,2.956587791E0
1.070095004E0,3.392592907E0,-7.670940161E-1,2.853198767E0
1.072332309E0,3.386178732E0,-6.261368990E-1,2.764317989E0
1.074570773E0,3.372281551E0,-4.862487316E-1,2.688876152E0
1.076805209E0,3.343570948E0,-3.449861407E-1,2.628094912E0
1.079042270E0,3.302490234E0,-2.083050460E-1,2.575713396E0
1.081278476E0,3.252552032E0,-6.887505949E-2,2.539061308E0
1.083515659E0,3.200170279E0,7.040221989E-2,2.514779568E0
1.085752475E0,3.135418653E0,2.136501223E-1,2.498897076E0
1.087987461E0,3.062114716E0,3.572034538E-1,2.488970518E0
1.090218600E0,2.984992981E0,5.006040931E-1,2.481640100E0
1.092465121E0,2.896875620E0,6.418666840E-1,2.477822065E0
1.094699680E0,2.804940462E0,7.832819819E-1,2.476294994E0
1.096938571E0,2.707965612E0,9.138544202E-1,2.471102715E0
1.099172824E0,2.607020140E0,1.038318157E0,2.464688540E0
1.101410190E0,2.499813318E0,1.153313637E0,2.456900120E0
1.103646945E0,2.396118879E0,1.252426505E0,2.440406561E0
1.105883517E0,2.289675713E0,1.340696454E0,2.422844172E0
1.108109103E0,2.188119411E0,1.421483397E0,2.402685642E0
1.110347446E0,2.087631941E0,1.497536182E0,2.373975039E0
1.112582431E0,1.994475007E0,1.567327499E0,2.344042778E0
1.114818637E0,1.905899525E0,1.620014668E0,2.305558205E0
1.117054477E0,1.820989251E0,1.667814851E0,2.265851974E0
1.119292026E0,1.744478464E0,1.703245044E0,2.223855019E0
1.121526950E0,1.676366925E0,1.733788252E0,2.175596476E0
1.123766635E0,1.616807580E0,1.753183246E0,2.125047445E0
1.126003756E0,1.567022085E0,1.766316891E0,2.067167997E0
1.128242953E0,1.528079391E0,1.771814585E0,2.009288549E0
1.130478000E0,1.492801905E0,1.768913031E0,1.952783465E0
1.132721286E0,1.465923905E0,1.762193561E0,1.887573600E0
1.134965793E0,1.448819637E0,1.745547414E0,1.826181650E0
1.137187167E0,1.442863703E0,1.728748679E0,1.758833766E0
1.139422031E0,1.436755061E0,1.710575461E0,1.694998384E0
1.141653293E0,1.446681619E0,1.693471193E0,1.631468296E0
1.143898166E0,1.455539107E0,1.685988069E0,1.566563964E0
1.146136203E0,1.461036921E0,1.689500570E0,1.496925235E0
1.148371677E0,1.461953282E0,1.706452012E0,1.426064968E0
1.150610569E0,1.454470158E0,1.740660548E0,1.352761030E0
1.152858859E0,1.439809442E0,1.784642816E0,1.276861072E0
1.155095981E0,1.410946012E0,1.847103834E0,1.198517561E0
1.157332859E0,1.372156024E0,1.915826082E0,1.122617602E0
1.159563876E0,1.317483664E0,1.982410431E0,1.041677952E0
1.161792147E0,1.258993268E0,2.044260502E0,9.607383013E-1
1.164042697E0,1.194088817E0,2.092824221E0,8.782715201E-1
1.166276889E0,1.120174170E0,2.124742031E0,7.970264554E-1
1.168517185E0,1.048550248E0,2.145511389E0,7.157813311E-1
1.170747104E0,9.790642858E-1,2.152994633E0,6.319400668E-1
1.172972445E0,9.144652486E-1,2.156659842E0,5.506950021E-1
1.175212375E0,8.584184051E-1,2.157728672E0,4.694499373E-1
1.177461215E0,8.072584271E-1,2.156354427E0,3.882048726E-1
1.179701572E0,7.635815740E-1,2.164448261E0,3.046690524E-1
1.181939670E0,7.179193497E-1,2.190868139E0,2.249511331E-1
1.184171115E0,6.724098921E-1,2.228131056E0,1.475239545E-1
1.186408115E0,6.259841323E-1,2.280054569E0,6.902777404E-2
1.188644260E0,5.797111392E-1,2.342820883E0,-5.650503561E-3
1.190881930E0,5.261076689E-1,2.404670954E0,-8.170322329E-2
1.193118686E0,4.673119187E-1,2.454303741E0,-1.566869318E-1
1.195355502E0,4.008803070E-1,2.492024660E0,-2.318233550E-1
1.197592624E0,3.203988075E-1,2.503325701E0,-3.071125150E-1
1.199831271E0,2.244929820E-1,2.488206863E0,-3.703370690E-1
1.202065707E0,1.261436790E-1,2.472018957E0,-4.276056588E-1
1.204302768E0,3.512475267E-2,2.462856054E0,-4.723515511E-1
1.206538791E0,-4.474587739E-2,2.458274364E0,-5.085453391E-1
1.208776401E0,-1.072068512E-1,2.468048334E0,-5.299255848E-1
1.211008456E0,-1.510364264E-1,2.489581347E0,-5.412266254E-1
1.213228915E0,-1.750128865E-1,2.521498919E0,-5.387831330E-1
1.215474826E0,-1.841758788E-1,2.556929111E0,-5.253441334E-1
1.217725314E0,-1.748601794E-1,2.602896690E0,-4.993823469E-1
1.219964389E0,-1.496619880E-1,2.644893885E0,-4.622722864E-1
1.222199802E0,-1.049161032E-1,2.677880526E0,-4.213443100E-1
1.224433139E0,-5.299255997E-2,2.707201958E0,-3.767511547E-1
1.226670688E0,1.664607786E-2,2.753169775E0,-3.306308091E-1
1.228907260E0,9.392052889E-2,2.816088676E0,-2.808452845E-1
1.231144077E0,1.737911552E-1,2.887254477E0,-2.321287990E-1
1.233381381E0,2.513710558E-1,2.968194246E0,-1.834122837E-1
1.235619846E0,3.181080818E-1,3.051882744E0,-1.372919679E-1
1.237854282E0,3.662137091E-1,3.130989790E0,-9.361509979E-2
1.240091281E0,3.956879675E-1,3.203224659E0,-5.513058975E-2
1.242327365E0,4.053090811E-1,3.263700247E0,-2.428189293E-2
1.244565036E0,3.947716653E-1,3.294243574E0,-2.138028387E-3
1.246801730E0,3.685044646E-1,3.286302328E0,1.343903504E-2
1.249038364E0,3.292563558E-1,3.234836817E0,2.275473066E-2
1.251275668E0,2.977968156E-1,3.144428730E0,3.069597855E-2
1.253513218E0,2.629774809E-1,3.006831408E0,4.199698567E-2
1.255745090E0,2.310597748E-1,2.832734823E0,6.185010448E-2
1.257985385E0,1.994474977E-1,2.624582529E0,8.521570265E-2
1.260221836E0,1.705841124E-1,2.420095444E0,1.085812971E-1
1.262459872E0,1.600466967E-1,2.211484909E0,1.235474944E-1
1.264695834E0,1.692096740E-1,1.997682095E0,1.301143020E-1
1.266932590E0,2.005165219E-1,1.777465105E0,1.258382350E-1
1.269170016E0,2.440406680E-1,1.550986886E0,1.081231460E-1
1.271408481E0,2.901609838E-1,1.327868342E0,7.574728876E-2
1.273643100E0,3.489567637E-1,1.115592599E0,3.878994286E-2
1.275879916E0,4.230241776E-1,9.285151958E-1,-7.941247895E-3
1.278116184E0,4.977024496E-1,7.704538107E-1,-6.047565863E-2
1.280353549E0,5.844452977E-1,6.571382880E-1,-1.177442744E-1
1.282590366E0,6.779077053E-1,5.691736937E-1,-1.821905524E-1
1.284827182E0,7.793113589E-1,5.053382516E-1,-2.451096773E-1
1.287064547E0,8.907942176E-1,4.534147382E-1,-3.190243840E-1
1.289303012E0,1.010829210E0,3.988949955E-1,-4.014911950E-1
1.291537631E0,1.130864263E0,3.323107064E-1,-4.912883639E-1
1.293774387E0,1.250441194E0,2.522873580E-1,-5.847507715E-1
1.296010471E0,1.355357289E0,1.701259762E-1,-6.832527518E-1
1.298247958E0,1.446376204E0,7.009678334E-2,-7.771732807E-1
1.300481357E0,1.507310033E0,-4.520402849E-2,-8.578075171E-1
1.302709506E0,1.544420004E0,-1.769981980E-1,-9.217956662E-1
1.304958835E0,1.561524272E0,-3.265074790E-1,-9.711230397E-1
1.307197543E0,1.571756244E0,-5.015203953E-1,-1.005942345E0
1.309434665E0,1.581530094E0,-6.910412908E-1,-1.022588372E0
1.311668735E0,1.589624047E0,-8.987354636E-1,-1.031904101E0
1.313904880E0,1.594663739E0,-1.128115416E0,-1.010829210E0
1.316142184E0,1.587791443E0,-1.336725831E0,-9.663888216E-1
1.318379123E0,1.580155730E0,-1.508989930E0,-9.060658813E-1
1.320615756E0,1.572367191E0,-1.622916222E0,-8.391761184E-1
1.322853366E0,1.559538960E0,-1.694234729E0,-7.759515643E-1
1.325091525E0,1.554957509E0,-1.717294931E0,-7.162395120E-1
1.327326205E0,1.549154282E0,-1.737758875E0,-6.612616181E-1
1.329559970E0,1.524566889E0,-1.776090741E0,-6.065891981E-1
1.331787326E0,1.477530360E0,-1.832290292E0,-5.496259928E-1
1.334036594E0,1.408655286E0,-1.868484020E0,-4.915938079E-1
1.336272800E0,1.322065115E0,-1.869247675E0,-4.288274050E-1
1.338508456E0,1.224021196E0,-1.823738217E0,-3.608686328E-1
1.340735202E0,1.105666041E0,-1.747380018E0,-2.918408811E-1
1.342986179E0,9.668469429E-1,-1.645060062E0,-2.142609805E-1
1.345221103E0,8.089383245E-1,-1.575268745E0,-1.308778822E-1
1.347460361E0,6.455318332E-1,-1.591609359E0,-4.917465150E-2
1.349690524E0,5.120577812E-1,-1.597412586E0,1.069014193E-3
1.351918918E0,4.237877727E-1,-1.567785621E0,2.733621933E-2
1.354167758E0,3.816380501E-1,-1.519680023E0,3.084869497E-2
1.356404575E0,3.484986126E-1,-1.511738777E0,3.909537569E-2
1.358641940E0,3.274237812E-1,-1.518610954E0,4.627304152E-2
1.360868381E0,3.620903790E-1,-1.459815264E0,1.740965992E-2
1.363114780E0,4.521929920E-1,-1.342681766E0,-3.268129006E-2
1.365351779E0,5.322163701E-1,-1.239750981E0,-8.048149943E-2
1.367590853E0,5.778785348E-1,-1.186147571E0,-1.142318025E-1
1.369825473E0,5.939137340E-1,-1.188896537E0,-1.348485053E-1
1.372061984E0,6.301075220E-1,-1.172555804E0,-1.626428664E-1
1.374298801E0,6.866125464E-1,-1.142012596E0,-2.257147133E-1
1.376535983E0,7.848091125E-1,-1.125824690E0,-3.068070710E-1
1.378772922E0,9.564622641E-1,-1.074512005E0,-4.127921760E-1
1.381001193E0,1.153008103E0,-1.069777727E0,-5.273294449E-1
1.383245883E0,1.378570199E0,-1.099710107E0,-6.478226185E-1
1.385482029E0,1.664607763E0,-1.125977397E0,-7.887797356E-1
1.387721469E0,1.959197521E0,-1.213025689E0,-9.175195694E-1
1.389956393E0,2.238363028E0,-1.385900497E0,-1.027169943E0
1.392193393E0,2.502104044E0,-1.593747377E0,-1.137125611E0
1.394430575E0,2.754238605E0,-1.769676566E0,-1.258077025E0
1.396669223E0,3.020576000E0,-1.857488513E0,-1.393078208E0
1.398903537E0,3.308598995E0,-1.848478198E0,-1.547321677E0
1.401140414E0,3.623805285E0,-1.719891071E0,-1.701870561E0
1.403376621E0,3.934888363E0,-1.546405315E0,-1.841758728E0
1.405613986E0,4.155410767E0,-1.508226275E0,-1.944994926E0
1.407850619E0,4.252538204E0,-1.654528499E0,-1.997376680E0
1.410087619E0,4.219704628E0,-1.940260768E0,-2.007303238E0
1.412324740E0,4.068820477E0,-2.330451012E0,-1.969735026E0
1.414563205E0,3.818060398E0,-2.766150475E0,-1.890475273E0
1.416797580E0,3.494760036E0,-3.195436001E0,-1.787238955E0
1.419030613E0,3.164129257E0,-3.555541277E0,-1.671632767E0
1.421254551E0,2.859918356E0,-3.818976879E0,-1.550528765E0
1.423508151E0,2.606409311E0,-3.959628582E0,-1.434617043E0
1.425745151E0,2.416888237E0,-3.979023457E0,-1.327410221E0
1.427986056E0,2.256841660E0,-3.880063295E0,-1.221883178E0
1.430219394E0,2.120924234E0,-3.695429325E0,-1.128115416E0
1.432457736E0,2.016008139E0,-3.442225695E0,-1.060614824E0
1.434692172E0,1.958739400E0,-3.160769463E0,-1.031904101E0
1.436929172E0,1.942551494E0,-2.866637945E0,-1.045495868E0
1.439162265E0,1.972789288E0,-2.544559240E0,-1.092837930E0
1.441387973E0,2.040595293E0,-2.192700863E0,-1.140943527E0
1.443627658E0,2.133752346E0,-1.855961323E0,-1.163392901E0
1.445876193E0,2.235614061E0,-1.572672606E0,-1.171028733E0
1.448116306E0,2.352747440E0,-1.324966669E0,-1.181260705E0
1.450355014E0,2.491566658E0,-1.104444385E0,-1.207375169E0
1.452586642E0,2.648559093E0,-9.060658813E-1,-1.249372125E0
1.454823276E0,2.819906712E0,-7.333437204E-1,-1.297325015E0
1.457059543E0,2.938872576E0,-6.423248053E-1,-1.315498352E0
1.459297092E0,2.961474657E0,-6.621779203E-1,-1.278693676E0
1.461533725E0,2.902526140E0,-7.593054771E-1,-1.220814228E0
1.463770602E0,2.800969839E0,-8.361217976E-1,-1.174235702E0
1.466005161E0,2.696817398E0,-8.002334833E-1,-1.150564671E0
1.468234653E0,2.618932009E0,-6.299547553E-1,-1.143234253E0
1.470480991E0,2.551889658E0,-3.568980098E-1,-1.137736559E0
1.472717746E0,2.510350704E0,2.626720630E-2,-1.123075724E0
1.474957003E0,2.500271559E0,5.119050741E-1,-1.093143344E0
1.477191379E0,2.451249599E0,9.120218158E-1,-1.025795460E0
1.479427951E0,2.298227787E0,1.163851023E0,-9.379835725E-1
1.481664706E0,2.086257458E0,1.363298535E0,-8.655960560E-1
1.483901889E0,1.839773417E0,1.605964780E0,-8.239045143E-1
1.486140598E0,1.592983842E0,1.938580871E0,-8.344419003E-1
1.488375095E0,1.344819784E0,2.309834242E0,-8.926268220E-1
1.490612460E0,1.084438562E0,2.674215317E0,-9.813550115E-1
1.492848545E0,8.240572214E-1,3.031265974E0,-1.096045017E0
1.495085483E0,5.940664411E-1,3.411987782E0,-1.244485259E0
1.497322238E0,4.140139222E-1,3.823252916E0,-1.427897453E0
1.499556308E0,2.481640130E-1,4.199087620E0,-1.616196752E0
1.501784823E0,9.056077152E-2,4.498259068E0,-1.807244778E0
1.504035190E0,-7.009678334E-2,4.707785606E0,-1.997376680E0
1.506269504E0,-2.171625942E-1,4.852713585E0,-2.192700863E0
1.508509311E0,-3.153591752E-1,4.982064247E0,-2.394897223E0
1.510742649E0,-3.535382748E-1,5.098128796E0,-2.589305162E0
1.512980197E0,-3.295617998E-1,5.189910889E0,-2.775924444E0
1.515216586E0,-2.360994220E-1,5.300935745E0,-2.960711241E0
1.517453586E0,-8.689557761E-2,5.436395168E0,-3.130226135E0
1.519690158E0,3.588833287E-2,5.498398304E0,-3.253773689E0
1.521927280E0,7.834346592E-2,5.436853409E0,-3.335629702E0
1.524163791E0,5.299255997E-2,5.322163582E0,-3.387706041E0
1.526400668E0,-2.092213556E-2,5.197394371E0,-3.410766125E0
1.528637424E0,-1.586722434E-1,5.090798378E0,-3.385567904E0
1.530874362E0,-3.478877544E-1,5.014440060E0,-3.302948475E0
1.533111362E0,-5.917757154E-1,4.935333252E0,-3.159853220E0
1.535347934E0,-8.903360963E-1,4.794375896E0,-2.951242685E0
1.537585299E0,-1.230435371E0,4.623791695E0,-2.694221258E0
1.539823642E0,-1.563662291E0,4.494288445E0,-2.414902925E0
1.542058139E0,-1.839315295E0,4.471838951E0,-2.141999006E0
1.544294712E0,-2.045787811E0,4.578893185E0,-1.875356317E0
1.546529453E0,-2.124894857E0,4.883867741E0,-1.663080573E0
1.548768588E0,-2.146580458E0,5.208237171E0,-1.484555244E0
1.551005344E0,-2.177887201E0,5.439449787E0,-1.266018271E0
1.553242648E0,-2.184148788E0,5.679824829E0,-1.070541382E0
1.555479586E0,-2.156048775E0,5.915924549E0,-8.944594264E-1
1.557717990E0,-2.087173939E0,6.146220684E0,-7.350236177E-1
1.559952487E0,-1.968818665E0,6.315124989E0,-6.195700765E-1
1.562189670E0,-1.839009762E0,6.365826607E0,-5.386304259E-1
1.564425510E0,-1.723403573E0,6.258008957E0,-4.891503453E-1
1.566663180E0,-1.627955914E0,5.998849392E0,-4.550946057E-1
1.568899814E0,-1.541518450E0,5.658597469E0,-4.239404798E-1
1.571136569E0,-1.460273385E0,5.302615643E0,-3.880521357E-1
1.573374057E0,-1.374446750E0,4.992754459E0,-3.640756905E-1
1.575612277E0,-1.270905137E0,4.757723808E0,-3.628539443E-1
1.577846957E0,-1.150411963E0,4.562399864E0,-3.675881624E-1
1.580083713E0,-9.920451641E-1,4.422206402E0,-3.680463135E-1
1.582320041E0,-7.982481718E-1,4.323704243E0,-3.704897761E-1
1.584557346E0,-5.810855627E-1,4.285525322E0,-3.798054755E-1
1.586791110E0,-3.543018401E-1,4.289495945E0,-4.010330439E-1
1.589016635E0,-1.406517178E-1,4.305989265E0,-4.529565871E-1
1.591253818E0,4.932736978E-2,4.294993401E0,-5.444336534E-1
1.593492465E0,2.083050460E-1,4.254371166E0,-6.692028642E-1
1.595729465E0,3.350595832E-1,4.203363895E0,-8.127561808E-1
1.597969516E0,4.411974251E-1,4.170988083E0,-9.563095570E-1
1.600217379E0,5.270239711E-1,4.172973156E0,-1.080467939E0
1.602451755E0,5.888741016E-1,4.210541248E0,-1.182635069E0
1.604676975E0,6.340781450E-1,4.287357807E0,-1.266323686E0
1.606913547E0,6.577491760E-1,4.399756908E0,-1.330464482E0
1.609162692E0,6.594290137E-1,4.521166325E0,-1.388649464E0
1.611404026E0,6.378960609E-1,4.658611298E0,-1.444696307E0
1.613638706E0,5.920811296E-1,4.807662010E0,-1.506851792E0
1.615872531E0,5.245805383E-1,4.972748756E0,-1.570381880E0
1.618108615E0,4.225660264E-1,5.147150517E0,-1.619556427E0
1.620343539E0,2.918408811E-1,5.301393986E0,-1.667662144E0
1.622572299E0,1.482875347E-1,5.374545097E0,-1.712713480E0
1.624819858E0,-1.802052557E-2,5.473658085E0,-1.760208249E0
1.627056918E0,-1.773036420E-1,5.609117508E0,-1.825876236E0
1.629298008E0,-3.008511364E-1,5.741369724E0,-1.915673375E0
1.631530918E0,-3.970624208E-1,5.891336918E0,-1.991726160E0
1.633768894E0,-4.767803252E-1,6.070015430E0,-2.038304567E0
1.635992649E0,-5.694791079E-1,6.229603767E0,-2.054339886E0
1.638240573E0,-6.944010854E-1,6.321844578E0,-2.048841953E0
1.640476168E0,-8.362745047E-1,6.365979671E0,-2.046245813E0
1.642716769E0,-9.671524167E-1,6.416986465E0,-2.039831877E0
1.644951449E0,-1.060462117E0,6.498995304E0,-2.013411760E0
1.647189609E0,-1.121701360E0,6.588792324E0,-1.966986060E0
1.649424045E0,-1.181566119E0,6.632316589E0,-1.913535357E0
1.651661105E0,-1.237918377E0,6.660110950E0,-1.853976011E0
1.653897434E0,-1.290605545E0,6.694014072E0,-1.797929168E0
1.656134921E0,-1.339932919E0,6.706995010E0,-1.751808763E0
1.658371799E0,-1.393994451E0,6.722724915E0,-1.713018894E0
1.660608188E0,-1.446681619E0,6.751588345E0,-1.677894115E0
1.662845797E0,-1.492801905E0,6.793737888E0,-1.641394973E0
1.665084140E0,-1.547474384E0,6.845814228E0,-1.591456652E0
1.667318698E0,-1.601841331E0,6.920797825E0,-1.524414182E0
1.669552707E0,-1.665524125E0,6.965848923E0,-1.442710996E0
1.671779941E0,-1.749823451E0,6.958976746E0,-1.366352797E0
1.674029086E0,-1.847409248E0,6.905067921E0,-1.306182623E0
1.676265842E0,-1.960113883E0,6.824739456E0,-1.269530654E0
1.678502597E0,-2.096031427E0,6.743647099E0,-1.255175352E0
1.680727877E0,-2.232101679E0,6.651558876E0,-1.261589408E0
1.682976230E0,-2.335032463E0,6.538396358E0,-1.304502726E0
1.685201022E0,-2.420858860E0,6.416223049E0,-1.357189894E0
1.687438571E0,-2.524553299E0,6.330854893E0,-1.397506952E0
1.689671237E0,-2.641228676E0,6.274960518E0,-1.415985584E0
1.691913669E0,-2.776687860E0,6.216928482E0,-1.405142784E0
1.694162937E0,-2.901762724E0,6.123466015E0,-1.388191223E0
1.696399692E0,-2.995683193E0,5.989380836E0,-1.372308731E0
1.698634372E0,-3.059213161E0,5.835290432E0,-1.361313224E0
1.700860873E0,-3.099377632E0,5.678297997E0,-1.365894675E0
1.703107516E0,-3.128088236E0,5.534439087E0,-1.381471753E0
1.705344211E0,-3.159089565E0,5.396688938E0,-1.399339557E0
1.707583286E0,-3.192229033E0,5.271156311E0,-1.408807993E0
1.709817905E0,-3.225215673E0,5.163796425E0,-1.404531956E0
1.712051730E0,-3.259271622E0,5.069876194E0,-1.393078208E0
1.714279575E0,-3.307835340E0,4.989394665E0,-1.379028320E0
1.716528659E0,-3.371059895E0,4.906927586E0,-1.366505504E0
1.718767307E0,-3.450777769E0,4.805371284E0,-1.351692080E0
1.721004734E0,-3.536909819E0,4.696637630E0,-1.339322090E0
1.723238803E0,-3.617543936E0,4.603480339E0,-1.336725831E0
1.725474765E0,-3.686571836E0,4.534452915E0,-1.352302909E0
1.727712131E0,-3.741549730E0,4.486958027E0,-1.377501130E0
1.729948703E0,-3.777437925E0,4.463439465E0,-1.412167788E0
1.732185764E0,-3.793320417E0,4.457636356E0,-1.450194120E0
1.734422946E0,-3.787975311E0,4.466035843E0,-1.491732955E0
1.736661655E0,-3.758959293E0,4.483750820E0,-1.545336366E0
1.738895969E0,-3.721238375E0,4.496426582E0,-1.604895711E0
1.741132846E0,-3.691764116E0,4.478864193E0,-1.651168704E0
1.743369052E0,-3.676187038E0,4.449389935E0,-1.678046823E0
1.745606540E0,-3.655112267E0,4.455040455E0,-1.685224533E0
1.747843539E0,-3.612351656E0,4.501465797E0,-1.676061511E0
1.750080112E0,-3.542254925E0,4.566828728E0,-1.653154016E0
1.752317477E0,-3.461620569E0,4.608978271E0,-1.615585804E0
1.754555820E0,-3.377932072E0,4.617072105E0,-1.578170419E0
1.756790317E0,-3.299435854E0,4.555985928E0,-1.552055836E0
1.759027377E0,-3.242472649E0,4.465119362E0,-1.509142637E0
1.761263645E0,-3.206584454E0,4.316373825E0,-1.438434958E0
1.763501010E0,-3.175430298E0,4.125173092E0,-1.346041560E0
1.765737521E0,-3.147941351E0,3.939011812E0,-1.227839112E0
1.767974338E0,-3.118161678E0,3.749032736E0,-1.103528023E0
1.770211703E0,-3.094490528E0,3.559206247E0,-9.804387093E-1
1.772450229E0,-3.087160349E0,3.355177402E0,-8.698720932E-1
1.774684848E0,-3.078913450E0,3.131753445E0,-7.544185519E-1
1.776921664E0,-3.060587645E0,2.875342607E0,-6.110179424E-1
1.779157932E0,-3.041345358E0,2.703842402E0,-5.025894046E-1
1.781395236E0,-3.001791716E0,2.659401894E0,-4.682282209E-1
1.783631869E0,-2.976135492E0,2.646726370E0,-4.888449013E-1
1.785868869E0,-2.989269018E0,2.598468065E0,-5.086980462E-1
1.788105990E0,-3.032335043E0,2.490039349E0,-4.776966274E-1
1.790344516E0,-3.101668358E0,2.372447968E0,-4.077525437E-1
1.792579074E0,-3.169932365E0,2.309528828E0,-3.266601861E-1
1.794815891E0,-3.242472649E0,2.274404049E0,-2.698497176E-1
1.797051914E0,-3.330895424E0,2.167044401E0,-2.551889420E-1
1.799289340E0,-3.438255072E0,1.974927306E0,-2.580905557E-1
1.801526401E0,-3.555083036E0,1.736842632E0,-2.612976134E-1
1.803763217E0,-3.658777475E0,1.486540556E0,-2.521346211E-1
1.806000399E0,-3.746589184E0,1.233336926E0,-2.257147133E-1
1.808239047E0,-3.823405504E0,9.824240208E-1,-1.821905524E-1
1.810473666E0,-3.882812262E0,7.432702780E-1,-1.163698286E-1
1.812710483E0,-3.935194016E0,4.967861474E-1,-3.817907721E-2
1.814946445E0,-3.998418570E0,2.528982162E-1,3.359758854E-2
1.817183810E0,-4.076609135E0,5.497787148E-3,9.437867999E-2
1.819420688E0,-4.157396317E0,-2.550362349E-1,1.623374373E-1
1.821657809E0,-4.228256702E0,-5.071708560E-1,2.440406680E-1
1.823895114E0,-4.269948006E0,-7.612907887E-1,3.503312171E-1
1.826133273E0,-4.277125835E0,-1.009912968E0,4.764748812E-1
1.828367648E0,-4.251927376E0,-1.247081399E0,6.053674817E-1
1.830604709E0,-4.188703060E0,-1.482569933E0,7.212791443E-1
1.832840976E0,-4.095546246E0,-1.711338997E0,8.263479471E-1
1.835078159E0,-3.978412628E0,-1.922392964E0,9.109528065E-1
1.837314914E0,-3.823252916E0,-2.084424973E0,9.495900273E-1
1.839548800E0,-3.619834661E0,-2.186744928E0,9.656252265E-1
1.841777438E0,-3.380222797E0,-2.271502495E0,9.575312734E-1
1.844027560E0,-3.113427401E0,-2.360383272E0,9.288206100E-1
1.846261996E0,-2.834262133E0,-2.452013016E0,8.805622458E-1
1.848502048E0,-2.554027557E0,-2.557081938E0,8.190175891E-1
1.850735569E0,-2.287690401E0,-2.689639568E0,7.362453341E-1
1.852972751E0,-2.028988838E0,-2.830596924E0,6.534730792E-1
1.855209506E0,-1.785253644E0,-2.974913836E0,5.876523852E-1
1.857446262E0,-1.561982393E0,-3.095712423E0,5.352706909E-1
1.859683627E0,-1.372461438E0,-3.166267395E0,5.108360648E-1
1.861921848E0,-1.214552879E0,-3.205667973E0,5.206099153E-1
1.864156467E0,-1.079246163E0,-3.258049726E0,5.607742667E-1
1.866393222E0,-9.514226317E-1,-3.372281551E0,6.201809645E-1
1.868629367E0,-8.359690905E-1,-3.548058033E0,6.815729141E-1
1.870866977E0,-7.241807580E-1,-3.780797720E0,7.318165898E-1
1.873103793E0,-6.322455406E-1,-4.030183315E0,7.793113589E-1
1.875337680E0,-5.525276065E-1,-4.265977383E0,8.339837790E-1
1.877562961E0,-4.926628172E-1,-4.456567287E0,8.924741149E-1
1.879804233E0,-4.514294267E-1,-4.588361740E0,9.535606503E-1
1.882051059E0,-4.326453209E-1,-4.671286583E0,1.015716195E0
1.884290805E0,-4.327980280E-1,-4.718628407E0,1.074359298E0
1.886526950E0,-4.549418986E-1,-4.759403706E0,1.127810001E0
1.888761447E0,-4.978551865E-1,-4.796208382E0,1.174999356E0
1.890998019E0,-5.552765131E-1,-4.823086739E0,1.214705586E0
1.893234897E0,-6.362161636E-1,-4.799568176E0,1.243568897E0
1.895472201E0,-7.188356519E-1,-4.857447624E0,1.268308997E0
1.897710666E0,-7.997753024E-1,-4.951826572E0,1.291674614E0
1.899945102E0,-8.695666790E-1,-5.051092148E0,1.307862520E0
1.902182101E0,-9.314168096E-1,-5.119050980E0,1.315651059E0
1.904418186E0,-9.830349088E-1,-5.175097466E0,1.327104688E0
1.906655795E0,-1.026864529E0,-5.264131069E0,1.338711143E0
1.908892368E0,-1.062600136E0,-5.388289452E0,1.347568750E0
1.911129489E0,-1.092685223E0,-5.534591675E0,1.345583439E0
1.913366732E0,-1.119257808E0,-5.701510906E0,1.325119376E0
1.915604953E0,-1.130100727E0,-5.883395672E0,1.283886075E0
1.917835178E0,-1.123381138E0,-6.058256149E0,1.233031511E0
1.920059726E0,-1.118341565E0,-6.134767056E0,1.167974353E0
1.922312412E0,-1.120937705E0,-6.168670177E0,1.087034702E0
1.924549899E0,-1.116661668E0,-6.290079594E0,1.004567862E0
1.926791049E0,-1.094823241E0,-6.449515343E0,9.355401397E-1
1.929023776E0,-1.060003877E0,-6.629873276E0,8.849910498E-1
1.931261142E0,-1.012509108E0,-6.790988922E0,8.443684578E-1
1.933499484E0,-9.448558092E-1,-6.920950413E0,8.211556077E-1
1.935733920E0,-8.666650653E-1,-7.018230915E0,8.116871715E-1
1.937967990E0,-7.767151594E-1,-7.072292328E0,8.097018600E-1
1.940192294E0,-6.873761415E-1,-7.098254204E0,8.068002462E-1
1.942432712E0,-6.024658680E-1,-7.106042862E0,7.939720750E-1
1.944681369E0,-5.195409060E-1,-7.089396477E0,7.849618196E-1
1.946920871E0,-4.462370574E-1,-7.060533047E0,7.759515643E-1
1.949158054E0,-3.863722682E-1,-7.024034023E0,7.570147514E-1
1.951393771E0,-3.396410644E-1,-6.972721577E0,7.392996550E-1
1.953628391E0,-2.964223623E-1,-6.912856579E0,7.177666426E-1
1.955865024E0,-2.628247738E-1,-6.844439507E0,7.012733221E-1
1.958101230E0,-2.351831198E-1,-6.763652802E0,6.846272349E-1
1.960338596E0,-2.127338201E-1,-6.686378479E0,6.779077053E-1
1.962576633E0,-2.000583708E-1,-6.612616062E0,6.769914031E-1
1.964813937E0,-1.937969923E-1,-6.541144848E0,6.786713004E-1
1.967037631E0,-2.025018334E-1,-6.483876228E0,6.861543655E-1
1.969287814E0,-2.150245607E-1,-6.430273056E0,6.885978580E-1
1.971518588E0,-2.449569702E-1,-6.395759106E0,6.873761415E-1
1.973748569E0,-2.878702581E-1,-6.383999825E0,6.931793094E-1
1.975980991E0,-3.433062732E-1,-6.384152889E0,6.976081133E-1
1.978218539E0,-4.163046777E-1,-6.400798798E0,6.968445182E-1
1.980457919E0,-5.018258095E-1,-6.429509640E0,6.997461319E-1
1.982698276E0,-5.839871764E-1,-6.475324154E0,6.976081133E-1
1.984946872E0,-6.556110978E-1,-6.547864437E0,6.918048859E-1
1.987185520E0,-7.267768979E-1,-6.656904221E0,6.809620261E-1
1.989419590E0,-8.106181622E-1,-6.794806957E0,6.514877677E-1
1.991653842E0,-8.874344826E-1,-6.954700947E0,6.110179424E-1
1.993890049E0,-9.721920490E-1,-7.143610954E0,5.630650520E-1
1.996127536E0,-1.066265345E0,-7.368714809E0,5.013676286E-1
1.998364230E0,-1.170875907E0,-7.637189865E0,4.297437072E-1
2.000600864E0,-1.270905137E0,-7.920478821E0,3.567453027E-1
2.002835422E0,-1.350928545E0,-8.192008018E0,2.753475010E-1
2.005064670E0,-1.424232364E0,-8.497593880E0,1.780672222E-1
2.007311374E0,-1.481348276E0,-8.805928230E0,6.750060618E-2
2.009545321E0,-1.517083883E0,-9.084329605E0,-4.413501546E-2
2.011775669E0,-1.532355428E0,-9.330355644E0,-1.553124934E-1
2.014022739E0,-1.533729911E0,-9.552405357E0,-2.577851415E-1
2.016258578E0,-1.516167521E0,-9.746812820E0,-3.478877544E-1
2.018497714E0,-1.480890036E0,-9.916175842E0,-4.192062616E-1
2.020728854E0,-1.432020903E0,-1.006889153E1,-4.647157490E-1
2.022971164E0,-1.381624460E0,-1.020328236E1,-4.880813360E-1
2.025202487E0,-1.326188445E0,-1.032453918E1,-4.893030524E-1
2.027431308E0,-1.264643788E0,-1.043861771E1,-4.732678533E-1
2.029675754E0,-1.194088817E0,-1.053345490E1,-4.534147382E-1
2.031904575E0,-1.127810001E0,-1.059912300E1,-4.347833395E-1
2.034155857E0,-1.051757216E0,-1.061515808E1,-4.268420935E-1
2.036389743E0,-9.645562172E-1,-1.055972195E1,-4.320344329E-1
2.038627170E0,-8.683449626E-1,-1.044274139E1,-4.564690590E-1
2.040853610E0,-7.619016767E-1,-1.024695873E1,-4.975497425E-1
2.043097384E0,-6.440047026E-1,-9.974971771E0,-5.529857874E-1
2.045324924E0,-5.296201706E-1,-9.637468338E0,-6.142250299E-1
2.047576205E0,-4.140139222E-1,-9.245292664E0,-6.814202070E-1
2.049810458E0,-3.071125150E-1,-8.786227226E0,-7.472409010E-1
2.052050083E0,-2.113593817E-1,-8.276001930E0,-7.968736887E-1
2.054283908E0,-1.311833113E-1,-7.732637882E0,-8.283332586E-1
2.056521335E0,-6.429356337E-2,-7.172016144E0,-8.561276197E-1
2.058760043E0,-4.428773187E-3,-6.595511913E0,-8.703302741E-1
2.060994418E0,5.436700583E-2,-6.005721569E0,-8.833111525E-1
2.063231235E0,1.194241568E-1,-5.413487911E0,-8.975137472E-1
2.065467441E0,1.797471046E-1,-4.818810463E0,-9.178250432E-1
2.067704929E0,2.344195396E-1,-4.251927376E0,-9.408851862E-1
2.069941928E0,2.603813112E-1,-3.712380886E0,-9.702067375E-1
2.072178439E0,2.623666227E-1,-3.201544762E0,-1.003651619E0
2.074415561E0,2.356412709E-1,-2.709492683E0,-1.042288780E0
2.076653964E0,1.886046380E-1,-2.248747587E0,-1.077566266E0
2.078888644E0,1.301143020E-1,-1.800983429E0,-1.099404693E0
2.081125522E0,9.010262042E-2,-1.345125318E0,-1.085660219E0
2.083361789E0,7.162395120E-2,-8.458956480E-1,-1.037401915E0
2.085599277E0,7.315111160E-2,-3.860668242E-1,-9.938777685E-1
2.087836459E0,6.902777404E-2,-4.016438872E-2,-9.656252265E-1
2.090072787E0,5.787948146E-2,2.089159191E-1,-9.388998747E-1
2.092310153E0,4.535674304E-2,3.863722682E-1,-9.199630618E-1
2.094548496E0,3.161227703E-2,5.030475259E-1,-9.074403048E-1
2.096783298E0,2.168571576E-2,5.590944290E-1,-9.109528065E-1
2.099020297E0,2.168571576E-2,5.542075038E-1,-9.317222238E-1
2.101253390E0,2.809980139E-2,4.970915914E-1,-9.662361145E-1
2.103478976E0,4.612032697E-2,3.898847401E-1,-1.022741079E0
2.105718417E0,7.070764899E-2,2.451096773E-1,-1.094059706E0
2.107967075E0,9.850201756E-2,6.734789163E-2,-1.176526427E0
2.110207553E0,1.293507218E-1,-1.371392459E-1,-1.270141602E0
2.112445774E0,1.696678251E-1,-3.733913898E-1,-1.375973940E0
2.114677219E0,2.154827118E-1,-6.423248053E-1,-1.489289522E0
2.116914035E0,2.671008408E-1,-9.285151958E-1,-1.612378836E0
2.119150608E0,3.300199509E-1,-1.205237150E0,-1.725541592E0
2.121388095E0,4.141666293E-1,-1.458135366E0,-1.824959874E0
2.123625095E0,5.131267905E-1,-1.704008579E0,-1.902234316E0
2.125861545E0,6.204863787E-1,-1.953547001E0,-1.953699827E0
2.128098727E0,7.252497673E-1,-2.200794697E0,-1.973400116E0
2.130337314E0,8.136724830E-1,-2.448806047E0,-1.960113883E0
2.132571750E0,8.921687007E-1,-2.687043428E0,-1.917658687E0
2.134808566E0,9.575312734E-1,-2.906802177E0,-1.854281425E0
2.137044651E0,1.008233070E0,-3.110525846E0,-1.777617812E0
2.139282565E0,1.054353356E0,-3.293479919E0,-1.691027761E0
2.141519321E0,1.090089083E0,-3.445738077E0,-1.593441963E0
2.143755954E0,1.117577910E0,-3.571423769E0,-1.495856285E0
2.145993197E0,1.137278318E0,-3.659082890E0,-1.404226542E0
2.148231601E0,1.144303322E0,-3.710242748E0,-1.311375022E0
2.150466037E0,1.141248941E0,-3.713907957E0,-1.229519010E0
2.152702853E0,1.127962708E0,-3.673590899E0,-1.160949349E0
2.154939121E0,1.106887817E0,-3.602730513E0,-1.116814375E0
2.157176547E0,1.075428247E0,-3.507435560E0,-1.095892191E0
2.159413364E0,1.042136073E0,-3.390302181E0,-1.089478135E0
2.161650119E0,1.003193498E0,-3.251177549E0,-1.101542711E0
2.163887362E0,9.634872079E-1,-3.093879700E0,-1.131780624E0
2.166126193E0,9.191994667E-1,-2.928029776E0,-1.178053617E0
2.168360385E0,8.689557910E-1,-2.753475189E0,-1.237765670E0
2.170597507E0,8.129089475E-1,-2.565481424E0,-1.307098866E0
2.172833591E0,7.472409010E-1,-2.370004416E0,-1.390176535E0
2.175070834E0,6.805039048E-1,-2.175749302E0,-1.493870974E0
2.177307651E0,6.151412725E-1,-1.977828979E0,-1.597718000E0
2.179541659E0,5.572618246E-1,-1.761888027E0,-1.690264106E0
2.181769870E0,5.167919993E-1,-1.542587519E0,-1.766927719E0
2.184020297E0,4.717406929E-1,-1.359633327E0,-1.841147900E0
2.186254855E0,3.767511547E-1,-1.207375169E0,-1.906204939E0
2.188494663E0,2.574796975E-1,-1.101848245E0,-1.979050636E0
2.190727756E0,1.594358236E-1,-1.054964304E0,-2.067778826E0
2.192962314E0,9.346238524E-2,-1.059851170E0,-2.153910875E0
2.195189914E0,4.367686436E-2,-1.111011147E0,-2.226756573E0
2.197438815E0,-2.748893574E-3,-1.165836334E0,-2.277611017E0
2.199676486E0,-4.734205827E-2,-1.184467673E0,-2.290286541E0
2.201918308E0,-9.422596544E-2,-1.182329655E0,-2.274709463E0
2.204149203E0,-1.547016203E-1,-1.183551431E0,-2.241111755E0
2.206385959E0,-2.215913683E-1,-1.188285589E0,-2.192700863E0
2.208622104E0,-3.011565804E-1,-1.202641010E0,-2.129781723E0
2.210859653E0,-3.885102868E-1,-1.239750981E0,-2.063350201E0
2.213096469E0,-4.813618064E-1,-1.297325015E0,-1.995849490E0
2.215333286E0,-5.791002512E-1,-1.362229466E0,-1.935831904E0
2.217570651E0,-6.708827615E-1,-1.434464335E0,-1.874439955E0
2.219809116E0,-7.516697049E-1,-1.509295344E0,-1.809382915E0
2.222043735E0,-8.228355050E-1,-1.602604985E0,-1.741882205E0
2.224280490E0,-8.700248003E-1,-1.718211174E0,-1.668120265E0
2.226516513E0,-8.946121335E-1,-1.869400382E0,-1.596649051E0
2.228753879E0,-8.955284357E-1,-2.015091658E0,-1.530064702E0
2.230990695E0,-8.611672521E-1,-2.184454203E0,-1.480279207E0
2.233224582E0,-7.832819819E-1,-2.342515469E0,-1.453248382E0
2.235449985E0,-6.617197990E-1,-2.479501963E0,-1.456455469E0
2.237691440E0,-5.117523670E-1,-2.568688393E0,-1.500743151E0
2.239937961E0,-3.431535661E-1,-2.601064205E0,-1.586417079E0
2.242177585E0,-1.499674171E-1,-2.586556196E0,-1.703397751E0
2.244414096E0,6.246097013E-2,-2.537381411E0,-1.843285918E0
2.246648471E0,2.950479090E-1,-2.473851442E0,-1.996460319E0
2.248885348E0,5.413793325E-1,-2.403449297E0,-2.161699295E0
2.251122104E0,8.051204085E-1,-2.327243805E0,-2.326785803E0
2.253359408E0,1.066418052E0,-2.246151447E0,-2.494315624E0
2.255597629E0,1.319163442E0,-2.162462950E0,-2.658179998E0
2.257832309E0,1.564425945E0,-2.082286835E0,-2.812423706E0
2.260066317E0,1.790904164E0,-2.010357618E0,-2.957046032E0
2.262290866E0,2.000125647E0,-1.940413475E0,-3.085938454E0
2.264529696E0,2.194227934E0,-1.877341628E0,-3.197879553E0
2.266765353E0,2.367102861E0,-1.821294785E0,-3.296381474E0
2.269004794E0,2.533716202E0,-1.769982100E0,-3.380528212E0
2.271244846E0,2.682767391E0,-1.729206800E0,-3.448792458E0
2.273495029E0,2.811660051E0,-1.701259732E0,-3.501479626E0
2.275729770E0,2.927266359E0,-1.658651829E0,-3.533244610E0
2.277966465E0,3.018896103E0,-1.576643229E0,-3.529731989E0
2.280199619E0,3.095101595E0,-1.424079657E0,-3.436727762E0
2.282436984E0,3.154966354E0,-1.211651206E0,-3.281110048E0
2.284673801E0,3.186120510E0,-9.683741331E-1,-3.149010420E0
2.286910678E0,3.196199656E0,-6.785185933E-1,-3.041192532E0
2.289148043E0,3.201391935E0,-4.323398769E-1,-2.895806789E0
2.291386508E0,3.208569765E0,-1.971567571E-1,-2.701398849E0
2.293621066E0,3.197879553E0,8.093964309E-2,-2.483778000E0
2.295857639E0,3.167947054E0,3.752239645E-1,-2.261423111E0
2.298093967E0,3.123048544E0,7.255551815E-1,-2.042580605E0
2.300331516E0,3.063947439E0,1.107804179E0,-1.823738217E0
2.302568210E0,2.989269018E0,1.508378983E0,-1.598787069E0
2.304805209E0,2.899166346E0,1.936137438E0,-1.376432061E0
2.307042331E0,2.781880379E0,2.355801821E0,-1.167668939E0
2.309280978E0,2.653293133E0,2.752711535E0,-9.738719463E-1
2.311515109E0,2.501645803E0,3.103959084E0,-7.999280095E-1
2.313752170E0,2.331825256E0,3.406948090E0,-6.459900141E-1
2.315988193E0,2.151620150E0,3.667787552E0,-5.131267905E-1
2.318225864E0,1.965764403E0,3.893502474E0,-3.975205719E-1
2.320462375E0,1.773189068E0,4.081648827E0,-3.005456924E-1
2.322699252E0,1.579850197E0,4.231158257E0,-2.244929820E-1
2.324936618E0,1.405753613E0,4.338823318E0,-1.765400618E-1
2.327175327E0,1.260367751E0,4.408461571E0,-1.395827085E-1
2.329409763E0,1.145219564E0,4.454429150E0,-9.269879758E-2
2.331646762E0,1.066570759E0,4.475351334E0,-5.650503561E-2
2.333882724E0,1.027017236E0,4.467563152E0,-4.474587739E-2
2.336120090E0,1.025031924E0,4.436103344E0,-3.985895589E-2
2.338356662E0,1.053589821E0,4.377307415E0,-5.711590126E-2
2.340593784E0,1.113454580E0,4.287510395E0,-8.872817457E-2
2.342831149E0,1.200350165E0,4.182746887E0,-1.324050426E-1
2.345069614E0,1.303739190E0,4.042248249E0,-1.884519309E-1
2.347303989E0,1.419039965E0,3.881132364E0,-2.504547536E-1
2.349538058E0,1.534340739E0,3.712533474E0,-3.174972236E-1
2.351765781E0,1.651932359E0,3.536756992E0,-3.845396638E-1
2.354016391E0,1.768149495E0,3.365867615E0,-4.428772926E-1
2.356251254E0,1.882839441E0,3.171917677E0,-4.990769029E-1
2.358488315E0,1.984853864E0,2.963612795E0,-5.467243791E-1
2.360713229E0,2.066404343E0,2.725375175E0,-5.873469114E-1
2.362963840E0,2.120007753E0,2.446362495E0,-6.113234162E-1
2.365198215E0,2.131919622E0,2.118480682E0,-6.198754907E-1
2.367438205E0,2.091602564E0,1.710269928E0,-6.096435189E-1
2.369668491E0,1.962710023E0,1.195768714E0,-5.748242140E-1
2.371894564E0,1.747227311E0,6.053674817E-1,-5.141957998E-1
2.374133823E0,1.455691934E0,-2.000583708E-2,-4.323398769E-1
2.376382602E0,1.111621976E0,-6.151412725E-1,-3.190243840E-1
2.378619540E0,7.493789196E-1,-1.128726244E0,-1.895209402E-1
2.380849155E0,4.156937897E-1,-1.515403986E0,-6.429356337E-2
2.383092746E0,1.438587606E-1,-1.767385840E0,4.856378585E-2
2.385329623E0,-3.970624134E-2,-1.866956949E0,1.273654103E-1
2.387568881E0,-1.398881376E-1,-1.874745488E0,1.705841124E-1
2.389803256E0,-1.571450830E-1,-1.812589884E0,1.915062517E-1
2.392040073E0,-1.050688252E-1,-1.727374196E0,1.934915632E-1
2.394276889E0,-2.748893574E-3,-1.661400795E0,1.908953935E-1
2.396514254E0,1.296561509E-1,-1.631315589E0,1.860084683E-1
2.398752658E0,2.724458873E-1,-1.630399346E0,1.847867370E-1
2.400984592E0,4.210388660E-1,-1.649030685E0,1.872301996E-1
2.403214084E0,5.545129180E-1,-1.682017446E0,1.956295967E-1
2.405460117E0,6.670648456E-1,-1.715767741E0,2.098322064E-1
2.407697543E0,7.588473558E-1,-1.736995339E0,2.325869352E-1
2.409936801E0,8.336783648E-1,-1.737300754E0,2.663372457E-1
2.412171176E0,8.891143799E-1,-1.717753053E0,3.109304011E-1
2.414408542E0,9.202684760E-1,-1.683086514E0,3.639229834E-1
2.416646945E0,9.344711304E-1,-1.630093932E0,4.205807149E-1
2.418881320E0,9.303477407E-1,-1.566869378E0,4.856378734E-1
2.421118137E0,9.141598344E-1,-1.496161699E0,5.531384945E-1
2.423354465E0,8.808676600E-1,-1.416596532E0,6.217080951E-1
2.425592197E0,8.402451277E-1,-1.334587812E0,6.791294217E-1
2.427829135E0,7.863363028E-1,-1.246165156E0,7.206682563E-1
2.430065524E0,7.249443531E-1,-1.164767265E0,7.498371005E-1
2.432302951E0,6.588181853E-1,-1.085812926E0,7.666358948E-1
2.434540927E0,5.815436840E-1,-1.001819015E0,7.785477638E-1
2.436772982E0,4.958698750E-1,-9.164505601E-1,7.880161405E-1
2.438997958E0,3.956879675E-1,-8.148942590E-1,7.973318696E-1
2.441237155E0,2.884811163E-1,-6.951646209E-1,8.115344644E-1
2.443486545E0,1.716531366E-1,-5.593998432E-1,8.319984674E-1
2.445722812E0,4.642575979E-2,-4.112650156E-1,8.571966290E-1
2.447950717E0,-7.131851465E-2,-2.573269904E-1,8.874344826E-1
2.450197055E0,-1.930334121E-1,-1.105666086E-1,9.248499870E-1
2.452435886E0,-3.049744666E-1,2.397646010E-2,9.624181986E-1
2.454673496E0,-4.037819207E-1,1.423316002E-1,9.926560521E-1
2.456907260E0,-4.903720617E-1,2.484694421E-1,1.007011414E0
2.459143222E0,-5.561928153E-1,3.370448947E-1,1.006858587E0
2.461380588E0,-6.113234162E-1,4.072943926E-1,9.943358898E-1
2.463617404E0,-6.554583907E-1,4.688390791E-1,9.709703326E-1
2.465854282E0,-6.945537925E-1,5.328271985E-1,9.379835725E-1
2.468091647E0,-7.309002876E-1,6.099489331E-1,8.975137472E-1
2.470330112E0,-7.721336484E-1,6.847799420E-1,8.509352803E-1
2.472564670E0,-8.136724830E-1,7.451028824E-1,7.994698882E-1
2.474801242E0,-8.579602242E-1,7.872526050E-1,7.417431474E-1
2.477037509E0,-9.053022861E-1,7.965682745E-1,6.704245806E-1
2.479274936E0,-9.485210180E-1,7.611380816E-1,5.904012322E-1
2.481512057E0,-9.801332951E-1,6.901249886E-1,5.028948188E-1
2.483748752E0,-9.926560521E-1,5.896376967E-1,4.106541574E-1
2.485985690E0,-9.859365225E-1,4.633412957E-1,3.049744666E-1
2.488224277E0,-9.447031021E-1,3.313944042E-1,2.008219510E-1
2.490458713E0,-8.718574047E-1,1.928807050E-1,1.029307917E-1
2.492695834E0,-7.695375085E-1,4.535674304E-2,1.389718428E-2
2.494931858E0,-6.478226185E-1,-1.099557430E-1,-6.643159688E-2
2.497169528E0,-5.065600276E-1,-2.692388594E-1,-1.258382350E-1
2.499406284E0,-3.666718602E-1,-4.285219610E-1,-1.656972021E-1
2.501643161E0,-2.255619913E-1,-5.806274414E-1,-1.858557463E-1
2.503880465E0,-8.781187981E-2,-7.082982659E-1,-1.876883507E-1
2.506118869E0,4.306599870E-2,-8.054258227E-1,-1.759291887E-1
2.508353244E0,1.623374373E-1,-8.672759533E-1,-1.556179225E-1
2.510590060E0,2.698497176E-1,-8.998045325E-1,-1.267545372E-1
2.512826328E0,3.643811047E-1,-9.051495790E-1,-1.026253626E-1
2.515063754E0,4.396702647E-1,-8.811731339E-1,-7.864890248E-2
2.517300571E0,4.995350540E-1,-8.399397135E-1,-5.955936015E-2
2.519534335E0,5.401576161E-1,-7.776314616E-1,-4.306599870E-2
2.521762606E0,5.652030706E-1,-6.931793094E-1,-3.527746722E-2
2.524010409E0,5.784893632E-1,-5.816964507E-1,-4.077525437E-2
2.526235507E0,5.749769211E-1,-4.566217661E-1,-4.398229718E-2
2.528487216E0,5.676465034E-1,-3.352122903E-1,-5.085453019E-2
2.530720859E0,5.543602109E-1,-2.026545405E-1,-6.765332818E-2
2.532961277E0,5.363397002E-1,-7.116580009E-2,-8.918632567E-2
2.535194919E0,5.070181489E-1,5.803219974E-2,-1.036943719E-1
2.537431613E0,4.778493345E-1,1.956295967E-1,-1.241583601E-1
2.539666050E0,4.453207552E-1,3.455969989E-1,-1.434006095E-1
2.541895786E0,4.120286107E-1,5.125159621E-1,-1.650863290E-1
2.544142123E0,3.746131063E-1,6.710354686E-1,-1.757764816E-1
2.546378879E0,3.439171314E-1,8.524624705E-1,-1.802052408E-1
2.548617892E0,3.193297982E-1,1.037401915E0,-1.795943826E-1
2.550852573E0,2.857322097E-1,1.205542564E0,-1.730275750E-1
2.553089328E0,2.457205504E-1,1.360396862E0,-1.667662114E-1
2.555325961E0,2.029599845E-1,1.497077942E0,-1.518000066E-1
2.557563266E0,1.484402567E-1,1.613447785E0,-1.359175146E-1
2.559801730E0,8.338310570E-2,1.684002757E0,-1.178969890E-1
2.562036411E0,1.114829071E-2,1.710880876E0,-9.880745411E-2
2.564273166E0,-6.261368841E-2,1.719585657E0,-8.582656831E-2
2.566506320E0,-1.201877370E-1,1.740049601E0,-8.017606288E-2
2.568735080E0,-1.586722434E-1,1.780977607E0,-8.277224004E-2
2.570983432E0,-1.725694388E-1,1.821294785E0,-9.132435173E-2
2.573220554E0,-1.681406647E-1,1.852754235E0,-1.070541367E-1
2.575460788E0,-1.629483104E-1,1.862375379E0,-1.143845171E-1
2.577696323E0,-1.594358236E-1,1.852448821E0,-1.290452778E-1
2.579930637E0,-1.594358236E-1,1.833053827E0,-1.853975952E-1
2.582167453E0,-1.547016203E-1,1.800219893E0,-2.539672256E-1
2.584403720E0,-1.440114826E-1,1.761277199E0,-3.005456924E-1
2.586641147E0,-1.313360333E-1,1.707521081E0,-3.349068761E-1
2.588877963E0,-1.178969890E-1,1.636966109E0,-3.497203588E-1
2.591114780E0,-1.174388453E-1,1.542281985E0,-3.477350473E-1
2.593352084E0,-1.148426682E-1,1.437824130E0,-3.236058652E-1
2.595590305E0,-1.307251602E-1,1.330159068E0,-2.826778889E-1
2.597824985E0,-1.429424733E-1,1.235780358E0,-2.280054539E-1
2.600059115E0,-1.543961912E-1,1.175304770E0,-1.635591686E-1
2.602283664E0,-1.577559561E-1,1.154688001E0,-9.392052889E-2
2.604523776E0,-1.571450830E-1,1.148579359E0,-2.290744707E-2
2.606772494E0,-1.795943826E-1,1.106582403E0,6.108652428E-2
2.609012180E0,-2.365575731E-1,9.972375035E-1,1.580613852E-1
2.611246982E0,-3.216205537E-1,8.507825732E-1,2.657263875E-1
2.613472323E0,-4.263839424E-1,6.986771226E-1,3.779728711E-1
2.615704440E0,-5.335907936E-1,5.491678715E-1,4.963280261E-1
2.617944125E0,-6.482807398E-1,4.021020532E-1,6.232352853E-1
2.620191989E0,-7.565566301E-1,2.730567753E-1,7.588473558E-1
2.622420993E0,-8.535314798E-1,1.499674171E-1,8.958339095E-1
2.624669834E0,-9.405797720E-1,3.390302137E-2,1.035416603E0
2.626903537E0,-1.011134744E0,-6.902777404E-2,1.156673312E0
2.629143710E0,-1.058782220E0,-1.409571618E-1,1.240361929E0
2.631379367E0,-1.073290229E0,-1.722639948E-1,1.284191489E0
2.633613742E0,-1.051146388E0,-1.690569520E-1,1.299157619E0
2.635850619E0,-1.014952660E0,-1.455386430E-1,1.299463034E0
2.638086826E0,-9.662361145E-1,-1.160643995E-1,1.286634922E0
2.640324252E0,-9.091202021E-1,-9.529497474E-2,1.269988894E0
2.642561069E0,-8.570439219E-1,-8.552113175E-2,1.244790673E0
2.644797885E0,-8.077165484E-1,-8.888089657E-2,1.219592452E0
2.647035251E0,-7.670940161E-1,-1.017090604E-1,1.194088817E0
2.649273654E0,-7.367035151E-1,-1.266018152E-1,1.162476540E0
2.651508029E0,-7.160868049E-1,-1.525636017E-1,1.130711555E0
2.653744846E0,-7.053966522E-1,-1.855503172E-1,1.102611780E0
2.655981174E0,-7.060074806E-1,-2.255619913E-1,1.080315232E0
2.658218784E0,-7.263187766E-1,-2.614503205E-1,1.059240341E0
2.660455356E0,-7.565566301E-1,-2.997821271E-1,1.042899728E0
2.662692172E0,-8.066475391E-1,-3.400992155E-1,1.037401915E0
2.664929538E0,-8.724682927E-1,-3.715587854E-1,1.045343161E0
2.667168185E0,-9.506590366E-1,-3.979786932E-1,1.056796908E0
2.669402377E0,-1.043357849E0,-4.045455158E-1,1.071915746E0
2.671639438E0,-1.141554475E0,-3.892738819E-1,1.095586777E0
2.673875583E0,-1.246928692E0,-3.509420753E-1,1.120479584E0
2.676112888E0,-1.350470304E0,-2.918408811E-1,1.147968531E0
2.678349887E0,-1.455080986E0,-2.157881409E-1,1.178053617E0
2.680586642E0,-1.558164477E0,-1.336267740E-1,1.203099132E0
2.682823886E0,-1.654070377E0,-5.283984542E-2,1.225853801E0
2.685062473E0,-1.758528352E0,1.954768784E-2,1.241278172E0
2.687296909E0,-1.863139033E0,8.827003092E-2,1.252884626E0
2.689530917E0,-1.961182833E0,1.690569520E-1,1.264491081E0
2.691756747E0,-2.059684992E0,2.353358418E-1,1.271363258E0
2.694003025E0,-2.158645153E0,2.773328125E-1,1.275486588E0
2.696242404E0,-2.266768217E0,2.880229652E-1,1.275944829E0
2.698484348E0,-2.363132238E0,2.667953968E-1,1.270141602E0
2.700720554E0,-2.433687210E0,2.451096773E-1,1.262047648E0
2.702957187E0,-2.493246555E0,2.208277881E-1,1.252884626E0
2.705191135E0,-2.554485798E0,1.661553532E-1,1.232573390E0
2.707427646E0,-2.603965759E0,8.093964309E-2,1.193936110E0
2.709661227E0,-2.639090538E0,-2.748893574E-2,1.139263630E0
2.711886691E0,-2.667343140E0,-1.666134894E-1,1.074817419E0
2.714126559E0,-2.687043428E0,-3.129157126E-1,1.003193498E0
2.716375522E0,-2.686738014E0,-4.440990388E-1,9.266825914E-1
2.718612643E0,-2.665968657E0,-5.403103232E-1,8.494081497E-1
2.720842075E0,-2.617557526E0,-6.091853380E-1,7.748825550E-1
2.723085422E0,-2.547766209E0,-6.517932415E-1,6.982190013E-1
2.725322482E0,-2.463924885E0,-6.716463566E-1,6.206390858E-1
2.727561557E0,-2.363895893E0,-6.820310354E-1,5.442809463E-1
2.729796176E0,-2.252412796E0,-6.818783283E-1,4.584543705E-1
2.732032748E0,-2.128559828E0,-6.757696867E-1,3.628539443E-1
2.734269748E0,-1.997376680E0,-6.747006774E-1,2.635883391E-1
2.736506686E0,-1.859168410E0,-6.979135275E-1,1.618792862E-1
2.738745639E0,-1.715309620E0,-7.383833528E-1,6.505715102E-2
2.740979953E0,-1.556942821E0,-7.887797356E-1,-2.672535367E-2
2.743216891E0,-1.386358619E0,-8.431467414E-1,-1.123992056E-1
2.745453037E0,-1.207833290E0,-8.781188130E-1,-1.966986060E-1
2.747690463E0,-1.021061301E0,-8.587238193E-1,-2.672535479E-1
2.749927280E0,-8.443684578E-1,-7.832819819E-1,-3.291036487E-1
2.752164035E0,-6.716463566E-1,-6.664539576E-1,-3.808744848E-1
2.754401156E0,-5.067127347E-1,-4.961752892E-1,-4.106541574E-1
2.756639621E0,-3.585779071E-1,-3.607159257E-1,-4.358523488E-1
2.758874240E0,-2.246456891E-1,-2.590068579E-1,-4.514294267E-1
2.761111118E0,-9.621127695E-2,-1.789835095E-1,-4.608978331E-1
2.763347385E0,2.214386500E-2,-1.096503139E-1,-4.608978331E-1
2.765584689E0,1.316414624E-1,-5.360342562E-2,-4.523457289E-1
2.767821323E0,2.359467000E-1,-2.138028387E-3,-4.402811229E-1
2.770058383E0,3.245221674E-1,6.154467165E-2,-4.233296216E-1
2.772295749E0,4.111123085E-1,1.508837193E-1,-3.929390609E-1
2.774534213E0,4.720461071E-1,2.528982162E-1,-3.613267839E-1
2.776768588E0,5.071708560E-1,3.553708494E-1,-3.300199509E-1
2.779002597E0,5.303837657E-1,4.822781086E-1,-2.877175212E-1
2.781229709E0,5.413793325E-1,6.143777370E-1,-2.344195396E-1
2.783479282E0,5.372560024E-1,7.370089293E-1,-1.777617931E-1
2.785715793E0,5.140430927E-1,8.260425329E-1,-1.237002090E-1
2.787955661E0,4.732678533E-1,8.935431242E-1,-7.727445662E-2
2.790189975E0,4.150829315E-1,9.492846131E-1,-3.604105115E-2
2.792428439E0,3.445279896E-1,1.001666307E0,-5.803219974E-3
2.794662875E0,2.616030276E-1,1.045801282E0,1.206458826E-2
2.796899875E0,1.600466967E-1,1.084133148E0,3.084869497E-2
2.799135959E0,3.619376570E-2,1.116967082E0,5.207626149E-2
2.801373569E0,-1.001819000E-1,1.137736559E0,6.811147183E-2
2.803610080E0,-2.415972054E-1,1.151481032E0,7.910704613E-2
2.805846957E0,-3.856086731E-1,1.156673312E0,8.765916526E-2
2.808084323E0,-5.209153295E-1,1.158047795E0,7.681630552E-2
2.810323093E0,-6.388123035E-1,1.161713004E0,6.230825558E-2
2.812557651E0,-7.431175709E-1,1.175762892E0,4.321871698E-2
2.814794223E0,-8.284859657E-1,1.211498499E0,2.306016348E-2
2.817027438E0,-8.874344826E-1,1.268461704E0,-3.054326167E-3
2.819255832E0,-9.251554012E-1,1.338405728E0,-3.237585723E-2
2.821504672E0,-9.355401397E-1,1.418734550E0,-7.131851465E-2
2.823741489E0,-9.237809777E-1,1.499826908E0,-1.174388453E-1
2.825981845E0,-8.897252083E-1,1.585195303E0,-1.742493063E-1
2.828217258E0,-8.429940343E-1,1.677741408E0,-2.347249687E-1
2.830451633E0,-7.866417170E-1,1.764026165E0,-3.036000133E-1
2.832688449E0,-7.218900323E-1,1.833206654E0,-3.822489381E-1
2.834924778E0,-6.511823535E-1,1.890169740E0,-4.647157490E-1
2.837162448E0,-5.713117123E-1,1.918880463E0,-5.470298529E-1
2.839399325E0,-4.905247986E-1,1.929417849E0,-6.270532012E-1
2.841636264E0,-4.051563740E-1,1.918116927E0,-7.072292566E-1
2.843873080E0,-3.200933933E-1,1.899485469E0,-7.835873961E-1
2.846111484E0,-2.415972054E-1,1.862680793E0,-8.553640842E-1
2.848345859E0,-1.667662114E-1,1.827250719E0,-9.184358716E-1
2.850583041E0,-9.804387391E-2,1.798081875E0,-9.741773605E-1
2.852819248E0,-3.924809024E-2,1.770287514E0,-1.023962855E0
2.855056491E0,1.114829071E-2,1.752267003E0,-1.065196276E0
2.857293491E0,5.681046844E-2,1.740507841E0,-1.105360627E0
2.859527866E0,9.605856240E-2,1.726305127E0,-1.133154988E0
2.861757968E0,1.356120855E-1,1.721876383E0,-1.151175499E0
2.864006015E0,1.704314053E-1,1.735773563E0,-1.160643935E0
2.866240207E0,2.018909603E-1,1.769218445E0,-1.160185814E0
2.868479708E0,2.298380435E-1,1.815949678E0,-1.154993415E0
2.870713535E0,2.535090744E-1,1.895514846E0,-1.140943527E0
2.872950961E0,2.751947939E-1,2.006844997E0,-1.112232924E0
2.875187534E0,3.205515444E-1,2.189188242E0,-1.064585447E0
2.877424533E0,3.795000315E-1,2.446515322E0,-9.981538057E-1
2.879658664E0,4.291328490E-1,2.673604488E0,-9.355401397E-1
2.881888156E0,4.521929920E-1,2.860071182E0,-8.784242272E-1
2.884134494E0,4.560109079E-1,3.004388094E0,-8.226827979E-1
2.886371616E0,4.294382632E-1,3.103195429E0,-7.735081315E-1
2.888610873E0,3.695734739E-1,3.144428730E0,-7.359399199E-1
2.890845370E0,2.877175212E-1,3.124117613E0,-7.110471725E-1
2.893082370E0,1.742493063E-1,3.049897432E0,-7.024950385E-1
2.895319125E0,3.649919853E-2,2.932458639E0,-7.115052938E-1
2.897556308E0,-1.204931661E-1,2.774091721E0,-7.305948138E-1
2.899791842E0,-2.964223623E-1,2.588236094E0,-7.696902156E-1
2.902017062E0,-4.871650338E-1,2.394286394E0,-8.197811842E-1
2.904266086E0,-6.861543655E-1,2.206445217E0,-8.895725012E-1
2.906502109E0,-8.839219809E-1,2.025781870E0,-9.653198123E-1
2.908742771E0,-1.078635335E0,1.866956949E0,-1.052062631E0
2.910976352E0,-1.264032960E0,1.734704614E0,-1.142318010E0
2.913213412E0,-1.441489220E0,1.638646007E0,-1.231046200E0
2.915450473E0,-1.600925088E0,1.580002904E0,-1.311069489E0
2.917688937E0,-1.740202308E0,1.545030951E0,-1.391856432E0
2.919923312E0,-1.858099341E0,1.534035325E0,-1.465160251E0
2.922160373E0,-1.961182833E0,1.527468562E0,-1.529606581E0
2.924396457E0,-2.047314882E0,1.515862107E0,-1.583057284E0
2.926634128E0,-2.120160580E0,1.490663886E0,-1.627803206E0
2.928870883E0,-2.179719925E0,1.454164743E0,-1.660331726E0
2.931107761E0,-2.230727196E0,1.423621416E0,-1.676825047E0
2.933345065E0,-2.266768217E0,1.402546644E0,-1.685682654E0
2.935580600E0,-2.300365686E0,1.386205912E0,-1.674992561E0
2.937803439E0,-2.328007460E0,1.374599576E0,-1.641089439E0
2.940040011E0,-2.348318815E0,1.362840414E0,-1.589929461E0
2.942279209E0,-2.356565475E0,1.339932919E0,-1.517847419E0
2.944528232E0,-2.349235058E0,1.305724502E0,-1.433547974E0
2.946756076E0,-2.331214428E0,1.253190041E0,-1.336878538E0
2.949004673E0,-2.300060272E0,1.185842156E0,-1.236544013E0
2.951239352E0,-2.251954794E0,1.104749799E0,-1.133765936E0
2.953480747E0,-2.191937208E0,1.008996725E0,-1.028391600E0
2.955712253E0,-2.124436617E0,9.068294764E-1,-9.205739498E-1
2.957949191E0,-2.040137291E0,7.959573865E-1,-8.126034737E-1
2.960185215E0,-1.941024303E0,6.763805151E-1,-7.032586336E-1
2.962422641E0,-1.829999566E0,5.455026627E-1,-5.988006592E-1
2.964659396E0,-1.707979202E0,4.059199691E-1,-4.967861474E-1
2.966896335E0,-1.573588848E0,2.649627924E-1,-4.007275999E-1
2.969133883E0,-1.431715369E0,1.287398487E-1,-3.083342314E-1
2.971372104E0,-1.279762745E0,-4.581489484E-4,-2.231185287E-1
2.973606662E0,-1.126282811E0,-1.163698286E-1,-1.415680200E-1
2.975843234E0,-9.651671052E-1,-2.167044431E-1,-6.719517708E-2
2.978079807E0,-7.987062931E-1,-3.048217595E-1,-1.221730490E-3
2.980317111E0,-6.282749176E-1,-3.785837293E-1,5.619960278E-2
2.982553744E0,-4.462370574E-1,-4.318817258E-1,9.911288321E-2
2.984790500E0,-2.658790946E-1,-4.523457289E-1,1.336267740E-1
2.987027926E0,-8.155050874E-2,-4.596760869E-1,1.595885456E-1
2.989266574E0,1.056796908E-1,-4.511239827E-1,1.832595766E-1
2.991500827E0,2.916881442E-1,-4.366159439E-1,2.044871449E-1
2.993738071E0,4.702135324E-1,-4.291328490E-1,2.269364446E-1
2.995974033E0,6.424775124E-1,-4.277583957E-1,2.480112910E-1
2.998211520E0,8.045095205E-1,-4.454734921E-1,2.675589919E-1
3.000448215E0,9.650143981E-1,-4.740314186E-1,2.835941911E-1
3.002685153E0,1.114523649E0,-5.085453391E-1,2.944370508E-1
3.004922702E0,1.253800869E0,-5.525276065E-1,3.028364480E-1
3.007160922E0,1.378570199E0,-5.937610269E-1,3.061962128E-1
3.009395541E0,1.487456918E0,-6.311765313E-1,3.020728528E-1
3.011632297E0,1.584126353E0,-6.585127115E-1,2.942843437E-1
3.013868564E0,1.674992561E0,-6.736316681E-1,2.838996351E-1
3.016105685E0,1.760055542E0,-6.753115058E-1,2.663372457E-1
3.018342563E0,1.839468002E0,-6.550002694E-1,2.474004179E-1
3.020579562E0,1.921476603E0,-6.189591885E-1,2.385428846E-1
3.022813694E0,2.003943443E0,-5.610797405E-1,2.272418737E-1
3.025042148E0,2.085646629E0,-4.874704778E-1,2.147191316E-1
3.027286350E0,2.171167850E0,-3.993531466E-1,2.011273801E-1
3.029524692E0,2.259743214E0,-2.893974185E-1,1.815796942E-1
3.031755161E0,2.348624229E0,-1.637118906E-1,1.595885456E-1
3.033989169E0,2.441475630E0,-2.596177347E-2,1.388191283E-1
3.036237094E0,2.533258200E0,1.238529310E-1,1.182024255E-1
3.038472202E0,2.627636909E0,2.797762752E-1,1.014036313E-1
3.040699618E0,2.719572067E0,4.405865669E-1,8.933904022E-2
3.042949619E0,2.816699743E0,6.099489331E-1,8.842274547E-2
3.045183810E0,2.916423321E0,7.984008789E-1,1.058324054E-1
3.047424533E0,3.009732962E0,9.810495973E-1,1.368338168E-1
3.049654208E0,3.083953142E0,1.131322384E0,1.783726513E-1
3.051879977E0,3.136487484E0,1.251662850E0,2.197587788E-1
3.054119662E0,3.174208641E0,1.364978433E0,2.620611787E-1
3.056368198E0,3.190854549E0,1.466534734E0,3.005456924E-1
3.058605502E0,3.189938307E0,1.555110216E0,3.254384696E-1
3.060834995E0,3.172834158E0,1.625970602E0,3.463605940E-1
3.063078647E0,3.133127928E0,1.678810358E0,3.608686328E-1
3.065315402E0,3.072194099E0,1.710422635E0,3.666718602E-1
3.067554477E0,2.987436533E0,1.721723676E0,3.709479272E-1
3.069789096E0,2.890156269E0,1.717600346E0,3.688098788E-1
3.072025851E0,2.784018278E0,1.707521081E0,3.678936064E-1
3.074262485E0,2.674215317E0,1.687820673E0,3.582724631E-1
3.076499789E0,2.560899734E0,1.680337548E0,3.364340365E-1
3.078738254E0,2.450485945E0,1.691027761E0,3.000875413E-1
3.080972995E0,2.341751814E0,1.712560773E0,2.539672256E-1
3.083209994E0,2.246915102E0,1.756848454E0,1.994474977E-1
3.085446018E0,2.174985647E0,1.828625083E0,1.478293836E-1
3.087683322E0,2.131614208E0,1.920560360E0,9.880745411E-2
3.089919894E0,2.105652571E0,2.024254799E0,5.131268129E-2
3.092156955E0,2.096642256E0,2.114204645E0,1.496619824E-2
3.094394076E0,2.099543810E0,2.184606791E0,-1.542434748E-2
3.096632602E0,2.102903605E0,2.219731569E0,-4.459316283E-2
3.098864291E0,2.091755390E0,2.205376148E0,-6.795875728E-2
3.101089633E0,2.068389654E0,2.143831491E0,-8.429940045E-2
3.103328647E0,2.035708427E0,2.043802500E0,-1.009454802E-1
3.105577914E0,1.991726160E0,1.934304833E0,-1.065959856E-1
3.107817356E0,1.952478051E0,1.823432803E0,-9.392052889E-2
3.110051181E0,1.902845263E0,1.694540143E0,-7.773260027E-2
3.112276400E0,1.842827678E0,1.534188032E0,-5.329799280E-2
3.114524081E0,1.767385840E0,1.347568750E0,-1.664607786E-2
3.116749545E0,1.691485882E0,1.142776132E0,2.825251780E-2
3.119001621E0,1.614058733E0,9.210320711E-1,8.429940045E-2
3.121234836E0,1.532050014E0,6.653849483E-1,1.485929638E-1
3.123475193E0,1.452942967E0,3.743076921E-1,2.312124968E-1
3.125708713E0,1.373377800E0,6.643159688E-2,3.234531581E-1
3.127945529E0,1.281900764E0,-2.751947939E-1,4.363104999E-1
3.130179966E0,1.167210817E0,-6.624833345E-1,5.867360830E-1
3.132409702E0,1.038776398E0,-1.049619198E0,7.528914213E-1
3.134656039E0,8.891143799E-1,-1.448361516E0,9.298896194E-1
3.136892856E0,7.194465399E-1,-1.856572151E0,1.111621976E0
3.139132052E0,5.364924073E-1,-2.261881351E0,1.295645237E0
3.141366489E0,3.463605940E-1,-2.646573782E0,1.473559737E0
3.143603244E0,1.731802970E-1,-2.992781639E0,1.645671010E0
3.145839877E0,1.618792862E-2,-3.276070356E0,1.803426862E0
3.148074374E0,-9.666942805E-2,-3.452304840E0,1.940108061E0
3.150303439E0,-1.687515229E-1,-3.510337114E0,2.055408716E0
3.152550266E0,-2.025018334E-1,-3.445432663E0,2.143526077E0
3.154786777E0,-1.974621862E-1,-3.287676811E0,2.216371775E0
3.157026218E0,-1.713477075E-1,-3.080746174E0,2.267684460E0
3.159260776E0,-1.412625909E-1,-2.864041805E0,2.291966438E0
3.161497653E0,-1.175915599E-1,-2.667953968E0,2.290591955E0
3.163734470E0,-1.079704314E-1,-2.506685495E0,2.263103008E0
3.165971774E0,-1.099557430E-1,-2.379320145E0,2.214691877E0
3.168210117E0,-1.151480973E-1,-2.286926746E0,2.152689219E0
3.170444308E0,-1.241583601E-1,-2.215150118E0,2.080606937E0
3.172681369E0,-1.302670091E-1,-2.170098782E0,2.006081581E0
3.174917697E0,-1.414152980E-1,-2.138333797E0,1.940108061E0
3.177155368E0,-1.640173197E-1,-2.118480682E0,1.888642669E0
3.179391940E0,-2.003637999E-1,-2.097100496E0,1.857793927E0
3.181628940E0,-2.538145185E-1,-2.063350201E0,1.853823304E0
3.183866061E0,-3.355177343E-1,-2.020436764E0,1.876578093E0
3.186104709E0,-4.466952085E-1,-1.955226898E0,1.930945039E0
3.188338840E0,-5.960517526E-1,-1.883144855E0,2.022880316E0
3.190575046E0,-7.709119320E-1,-1.787544370E0,2.145358801E0
3.192808445E0,-9.702067375E-1,-1.673159957E0,2.283719778E0
3.195049411E0,-1.184009552E0,-1.541518450E0,2.426814795E0
3.197286411E0,-1.403768301E0,-1.397812366E0,2.568688393E0
3.199523044E0,-1.630704761E0,-1.255022645E0,2.704300404E0
3.201756259E0,-1.856572151E0,-1.119563222E0,2.825251818E0
3.203998996E0,-2.086410284E0,-9.986119866E-1,2.938872576E0
3.206233432E0,-2.310445070E0,-9.019425511E-1,3.049897432E0
3.208471531E0,-2.524247885E0,-8.394815922E-1,3.164587498E0
3.210706455E0,-2.718502998E0,-7.945829630E-1,3.273168802E0
3.212943881E0,-2.890156269E0,-7.838928103E-1,3.366020203E0
3.215180637E0,-3.013856411E0,-7.875580192E-1,3.443294764E0
3.217417514E0,-3.104417086E0,-8.003861904E-1,3.502395868E0
3.219651889E0,-3.165045500E0,-8.610145450E-1,3.550654173E0
3.221881381E0,-3.190091133E0,-9.880745411E-1,3.593873024E0
3.224127902E0,-3.174666643E0,-1.181260705E0,3.634800911E0
3.226364414E0,-3.116940022E0,-1.416596532E0,3.682142973E0
3.228603549E0,-3.013092756E0,-1.680795670E0,3.741855145E0
3.230838351E0,-2.869386673E0,-1.973705649E0,3.823863745E0
3.233074924E0,-2.690403223E0,-2.279290915E0,3.929390669E0
3.235311557E0,-2.475836754E0,-2.588236094E0,4.034001350E0
3.237548861E0,-2.238363028E0,-2.865874290E0,4.119369984E0
3.239787570E0,-1.975843668E0,-3.076164722E0,4.179540157E0
3.242022067E0,-1.708895564E0,-3.207500696E0,4.194658756E0
3.244259067E0,-1.444238186E0,-3.281873465E0,4.151440144E0
3.246495029E0,-1.188896537E0,-3.356093645E0,4.039499283E0
3.248732455E0,-9.531024694E-1,-3.440698385E0,3.867387772E0
3.250969211E0,-7.307475209E-1,-3.546988964E0,3.639993191E0
3.253206088E0,-5.393940210E-1,-3.669620275E0,3.378084898E0
3.255443454E0,-3.627012372E-1,-3.779728651E0,3.123353958E0
3.257681918E0,-1.861611903E-1,-3.897320271E0,2.898097515E0
3.259916537E0,-6.566801574E-3,-3.972303867E0,2.688876152E0
3.262153293E0,1.153008118E-1,-4.052327156E0,2.474156857E0
3.264389377E0,1.768454909E-1,-4.119064331E0,2.276236534E0
3.266626926E0,1.536326110E-1,-4.175569534E0,2.079996109E0
3.268863559E0,8.017606288E-2,-4.216650009E0,1.902997971E0
3.271100680E0,1.832595794E-3,-4.228409290E0,1.801899791E0
3.273337924E0,-1.087340117E-1,-4.226271152E0,1.765553236E0
3.275576205E0,-2.669481039E-1,-4.196491718E0,1.776548862E0
3.277807834E0,-4.660901725E-1,-4.106389046E0,1.811979055E0
3.280035861E0,-6.905831695E-1,-3.986812115E0,1.864360690E0
3.282283908E0,-9.505063295E-1,-3.908926725E0,1.945605755E0
3.284521274E0,-1.233031511E0,-3.888768196E0,2.076636314E0
3.286761020E0,-1.541060328E0,-3.960544825E0,2.270738840E0
3.288994907E0,-1.849699974E0,-3.976274490E0,2.512794256E0
3.291232333E0,-2.129934311E0,-3.986659288E0,2.778367758E0
3.293470981E0,-2.399784088E0,-3.974136591E0,3.033098698E0
3.295705356E0,-2.615725040E0,-3.980856180E0,3.268587112E0
3.297942111E0,-2.790432453E0,-3.965431690E0,3.470325470E0
3.300178073E0,-2.933527708E0,-3.909232140E0,3.665038824E0
3.302415500E0,-3.032640457E0,-3.862348318E0,3.894418716E0
3.304652316E0,-3.062420130E0,-3.848603725E0,4.151134968E0
3.306889194E0,-3.035084009E0,-3.869678497E0,4.405865669E0
3.309126559E0,-2.937803745E0,-3.917784214E0,4.628067970E0
3.311365024E0,-2.793181419E0,-3.948480129E0,4.804149628E0
3.313599277E0,-2.622902632E0,-3.951839924E0,4.930293560E0
3.315834933E0,-2.453234911E0,-3.941913366E0,4.984507561E0
3.318072544E0,-2.265088320E0,-3.898236513E0,4.958087921E0
3.320310336E0,-2.053270817E0,-3.807675838E0,4.858669281E0
3.322547275E0,-1.828319669E0,-3.639687777E0,4.694957733E0
3.324783786E0,-1.594511032E0,-3.418554544E0,4.481154919E0
3.327020968E0,-1.353677392E0,-3.165961742E0,4.215122700E0
3.329259189E0,-1.129184365E0,-2.887560129E0,3.888920784E0
3.331493686E0,-9.286679029E-1,-2.601369619E0,3.517362118E0
3.333730930E0,-7.649559975E-1,-2.311972141E0,3.125950098E0
3.335967014E0,-6.441574097E-1,-2.012190104E0,2.725528002E0
3.338204379E0,-5.627595782E-1,-1.715156913E0,2.333505154E0
3.340440891E0,-5.221370459E-1,-1.419803500E0,1.956906796E0
3.342678012E0,-4.990769029E-1,-1.134987593E0,1.600925088E0
3.344915377E0,-4.789183438E-1,-9.046914577E-1,1.319316268E0
3.347153842E0,-4.425718784E-1,-7.548767328E-1,1.130711555E0
3.349388217E0,-3.889684379E-1,-6.892086864E-1,1.034653068E0
3.351625278E0,-3.207042515E-1,-6.759223938E-1,1.010829210E0
3.353861545E0,-2.449569702E-1,-6.872233748E-1,1.048244715E0
3.356095981E0,-1.939497143E-1,-6.846272349E-1,1.157589674E0
3.358320712E0,-1.505782902E-1,-6.890559793E-1,1.278999090E0
3.360560275E0,-1.020144969E-1,-6.924157739E-1,1.385900497E0
3.362809604E0,-5.482515693E-2,-6.969972253E-1,1.475545049E0
3.365051059E0,-2.122756653E-2,-7.159340382E-1,1.561371565E0
3.367285739E0,6.872233935E-3,-7.565566301E-1,1.645976424E0
3.369519260E0,3.741549700E-2,-7.984008789E-1,1.727985024E0
3.371751621E0,6.795875728E-2,-8.426886201E-1,1.811368227E0
3.373981174E0,1.012509167E-1,-8.749117255E-1,1.890933394E0
3.376229770E0,1.237002090E-1,-8.984300494E-1,1.968207836E0
3.378465914E0,1.266018152E-1,-9.130908251E-1,2.029294252E0
3.380702304E0,1.175915599E-1,-9.176723361E-1,2.064724445E0
3.382942600E0,1.024726480E-1,-9.356928468E-1,2.068237066E0
3.385176791E0,8.613199741E-2,-9.607383013E-1,2.043496847E0
3.387415317E0,7.223481685E-2,-9.920451641E-1,2.011426449E0
3.389647311E0,5.345070735E-2,-1.017243385E0,1.979356170E0
3.391872592E0,3.329215571E-2,-1.049619198E0,1.948507428E0
3.394112277E0,2.076941915E-2,-1.072373986E0,1.915215254E0
3.396361057E0,1.221730467E-2,-1.079398870E0,1.882075787E0
3.398598422E0,1.389718428E-2,-1.070999503E0,1.838093519E0
3.400827732E0,2.458732575E-2,-1.046870351E0,1.789376974E0
3.403071628E0,3.695734590E-2,-9.900598526E-1,1.766469598E0
3.405308566E0,5.940664560E-2,-9.213374853E-1,1.758375645E0
3.407547396E0,9.056077152E-2,-8.576548100E-1,1.703703165E0
3.409781772E0,1.331686229E-1,-7.893906236E-1,1.622458100E0
3.412018710E0,1.797471046E-1,-7.076873779E-1,1.525330544E0
3.414252964E0,2.298380435E-1,-6.430884004E-1,1.434158921E0
3.416480136E0,2.819143236E-1,-5.882632136E-1,1.359022498E0
3.418716708E0,3.316998184E-1,-5.164865851E-1,1.311985850E0
3.420950961E0,3.692680299E-1,-3.666718602E-1,1.290910959E0
3.423190525E0,4.031710625E-1,-1.562287807E-1,1.283427835E0
3.425430331E0,4.372268021E-1,-3.054326226E-4,1.267239928E0
3.427679294E0,4.705189466E-1,1.143845171E-1,1.239903688E0
3.429916049E0,5.007568002E-1,1.913535446E-1,1.198823094E0
3.432152744E0,5.254968405E-1,2.443460971E-1,1.147815824E0
3.434384128E0,5.513058901E-1,2.826778889E-1,1.095586777E0
3.436611056E0,5.681046844E-1,3.029891551E-1,1.035874724E0
3.438848361E0,5.885686874E-1,3.207042515E-1,9.822713137E-1
3.441096957E0,6.064364910E-1,3.397938013E-1,9.384417534E-1
3.443335666E0,6.194173694E-1,3.578143120E-1,9.068294764E-1
3.445571628E0,6.359107494E-1,3.769038618E-1,8.923214078E-1
3.447806674E0,6.458373070E-1,3.767511547E-1,8.802568316E-1
3.450044223E0,6.542366743E-1,3.680463135E-1,8.802568316E-1
3.452281955E0,6.577491760E-1,3.582724631E-1,8.851437569E-1
3.454519931E0,6.586654782E-1,3.448334336E-1,8.936958313E-1
3.456754428E0,6.556110978E-1,3.182607889E-1,9.020952582E-1
3.458991489E0,6.423248053E-1,2.773328125E-1,9.127854109E-1
3.461227817E0,6.301075220E-1,2.289217561E-1,9.246972799E-1
3.463465121E0,6.130032539E-1,1.747074574E-1,9.390525818E-1
3.465701694E0,5.943718553E-1,1.143845171E-1,9.582948685E-1
3.467938754E0,5.684100986E-1,5.299255997E-2,9.810495973E-1
3.470176059E0,5.435173512E-1,-1.206458826E-2,1.000139117E0
3.472414340E0,5.186246037E-1,-7.834346592E-2,1.018006921E0
3.474648898E0,4.900666475E-1,-1.456913650E-1,1.039539933E0
3.476885654E0,4.592179358E-1,-2.046398520E-1,1.042594314E0
3.479121799E0,4.312708676E-1,-2.623666227E-1,1.017701507E0
3.481356418E0,3.988949955E-1,-3.503312171E-1,9.877691269E-1
3.483584262E0,3.229950070E-1,-5.186246037E-1,9.631817937E-1
3.485833041E0,1.912008226E-1,-7.757988572E-1,9.340129495E-1
3.488070102E0,6.261368748E-3,-1.093754172E0,9.091202021E-1
3.490311618E0,-2.131919712E-1,-1.430493712E0,8.717046976E-1
3.492543430E0,-4.433354437E-1,-1.743867517E0,8.280278444E-1
3.494780063E0,-6.684392691E-1,-1.987144589E0,7.835873961E-1
3.497016330E0,-8.617781401E-1,-2.124131203E0,7.483099103E-1
3.499253635E0,-1.010829210E0,-2.143068075E0,7.200574279E-1
3.501490512E0,-1.107498646E0,-2.056172371E0,6.950119138E-1
3.503727328E0,-1.153466344E0,-1.899943590E0,6.831000447E-1
3.505964694E0,-1.150717378E0,-1.703397751E0,6.814202070E-1
3.508203098E0,-1.113454580E0,-1.502728462E0,6.863071322E-1
3.510437534E0,-1.042136073E0,-1.329242826E0,6.899722815E-1
3.512674533E0,-9.410378933E-1,-1.198975801E0,6.827946305E-1
3.514910617E0,-8.222246170E-1,-1.116356254E0,6.731734872E-1
3.517148227E0,-6.969972253E-1,-1.075122833E0,6.609562039E-1
3.519384799E0,-5.748242140E-1,-1.062905550E0,6.449210048E-1
3.521620456E0,-4.686863720E-1,-1.061378360E0,6.275113225E-1
3.523852329E0,-3.740022480E-1,-1.066876173E0,6.123924255E-1
3.526093539E0,-2.904664278E-1,-1.078177214E0,6.020076871E-1
3.528332004E0,-2.180788964E-1,-1.095434070E0,6.062837839E-1
3.530570285E0,-1.632537395E-1,-1.113454580E0,6.212499738E-1
3.532806125E0,-1.107193232E-1,-1.120632291E0,6.583600044E-1
3.535042514E0,-6.902777404E-2,-1.111621976E0,7.151705027E-1
3.537279330E0,-3.329215571E-2,-1.081995010E0,7.901542187E-1
3.539511569E0,-1.939497143E-2,-1.039845347E0,8.651378751E-1
3.541735202E0,-6.719517522E-3,-9.976956844E-1,9.448558092E-1
3.543991916E0,1.237002108E-2,-9.373727441E-1,1.029766083E0
3.546226352E0,1.252273750E-2,-8.402451277E-1,1.120784998E0
3.548467929E0,-8.246680722E-3,-7.367035151E-1,1.215163708E0
3.550699436E0,-4.459316283E-2,-6.146831512E-1,1.300990224E0
3.552936984E0,-8.750644326E-2,-4.633412957E-1,1.385747790E0
3.555173312E0,-1.339322031E-1,-2.913827300E-1,1.474170566E0
3.557410373E0,-1.950187236E-1,-1.262963861E-1,1.542740226E0
3.559644565E0,-2.641992271E-1,1.084285788E-2,1.610088110E0
3.561874545E0,-3.292563558E-1,1.116356254E-1,1.698052645E0
3.564120578E0,-3.901901841E-1,1.685988009E-1,1.790751457E0
3.566357516E0,-4.485278130E-1,1.794416606E-1,1.873523712E0
3.568596896E0,-5.009095073E-1,1.647808999E-1,1.940260768E0
3.570831393E0,-5.422956347E-1,1.449277848E-1,1.976454496E0
3.573068149E0,-5.690209866E-1,1.090394482E-1,1.996918440E0
3.575304721E0,-5.870414972E-1,7.788532227E-2,2.029752493E0
3.577542331E0,-5.926920176E-1,5.971207842E-2,2.076025486E0
3.579777743E0,-6.042984724E-1,4.413501546E-2,2.102903605E0
3.582003268E0,-6.023131609E-1,1.618792862E-2,2.110081196E0
3.584252109E0,-5.748242140E-1,-2.076941915E-2,2.112677336E0
3.586487949E0,-5.311473012E-1,-5.558873713E-2,2.101834536E0
3.588728549E0,-4.737260044E-1,-1.052215397E-1,2.029905319E0
3.590962131E0,-3.978259861E-1,-1.588249654E-1,1.917811394E0
3.593195651E0,-3.083342314E-1,-2.188424766E-1,1.793500304E0
3.595418124E0,-2.089159191E-1,-2.790127099E-1,1.668120265E0
3.597656833E0,-1.084285825E-1,-3.489567637E-1,1.537700534E0
3.599894992E0,-1.404990070E-2,-4.114177525E-1,1.404837370E0
3.602138217E0,8.307767659E-2,-4.605923891E-1,1.277013779E0
3.604386569E0,1.765400618E-1,-5.109887719E-1,1.158964038E0
3.606622837E0,2.799290121E-1,-5.433646441E-1,1.058171272E0
3.608859897E0,3.875939846E-1,-5.430592299E-1,9.819658995E-1
3.611093539E0,4.882340431E-1,-5.195409060E-1,9.254608750E-1
3.613331149E0,5.801692605E-1,-4.848742783E-1,8.895725012E-1
3.615569308E0,6.598871946E-1,-4.488332272E-1,8.720101118E-1
3.617803989E0,7.284567952E-1,-4.075998366E-1,8.678867817E-1
3.620040683E0,7.831292152E-1,-3.820962012E-1,8.733845949E-1
3.622276828E0,8.310821652E-1,-3.756821156E-1,8.933904171E-1
3.624514377E0,8.579602242E-1,-3.130684495E-1,9.306532145E-1
3.626750949E0,8.610145450E-1,-2.185370475E-1,9.433286786E-1
3.628987827E0,8.478809595E-1,-1.357648075E-1,9.520334601E-1
3.631222141E0,8.257371187E-1,-6.612616032E-2,9.656252265E-1
3.633451694E0,7.996225953E-1,-1.221730467E-2,9.949467778E-1
3.635698337E0,7.606799603E-1,2.000583708E-2,1.033889413E0
3.637935336E0,7.148650289E-1,2.458732575E-2,1.071457624E0
3.640174350E0,6.624833345E-1,3.817907767E-3,1.105207920E0
3.642408725E0,6.169738770E-1,-4.016438872E-2,1.146288633E0
3.644645480E0,5.784893632E-1,-1.062905490E-1,1.189660072E0
3.646882358E0,5.482515693E-1,-1.857030392E-1,1.225853801E0
3.649119723E0,5.264131427E-1,-2.835941911E-1,1.259451389E0
3.651358188E0,5.042692423E-1,-3.924809098E-1,1.280831695E0
3.653592746E0,4.845688641E-1,-5.181664228E-1,1.277777433E0
3.655829318E0,4.673119187E-1,-6.404922009E-1,1.274723053E0
3.658065586E0,4.489859641E-1,-7.506006956E-1,1.288772941E0
3.660302890E0,4.243986309E-1,-8.581129313E-1,1.313818455E0
3.662539584E0,3.924809098E-1,-9.654725194E-1,1.341307402E0
3.664776645E0,3.607159257E-1,-1.064432740E0,1.373683214E0
3.667014010E0,3.203988075E-1,-1.164309144E0,1.403462887E0
3.669252536E0,2.739730477E-1,-1.262963891E0,1.419803500E0
3.671486117E0,2.228130996E-1,-1.355357289E0,1.423926830E0
3.673717258E0,1.733330190E-1,-1.424843192E0,1.417054653E0
3.675949253E0,1.221730486E-1,-1.463785887E0,1.401782990E0
3.678197787E0,7.024950534E-2,-1.483486295E0,1.385289669E0
3.680435276E0,2.260201424E-2,-1.475239515E0,1.362993121E0
3.682673679E0,-3.344487399E-2,-1.451110363E0,1.338100314E0
3.684908481E0,-9.651670605E-2,-1.414611220E0,1.313207507E0
3.687146945E0,-1.667662114E-1,-1.367116451E0,1.288314819E0
3.689381381E0,-2.370157093E-1,-1.313513041E0,1.266018271E0
3.691618137E0,-3.219259977E-1,-1.264643788E0,1.237307549E0
3.693854404E0,-4.016439021E-1,-1.204779029E0,1.194088817E0
3.696091769E0,-4.838052690E-1,-1.143692493E0,1.147052169E0
3.698328403E0,-5.551238060E-1,-1.088867307E0,1.097724795E0
3.700565463E0,-6.262896061E-1,-1.038929105E0,1.047175765E0
3.702802829E0,-6.866125464E-1,-9.915869832E-1,9.954048991E-1
3.705041293E0,-7.443392873E-1,-9.395107627E-1,9.547823668E-1
3.707275607E0,-7.968736887E-1,-8.729264140E-1,9.068294764E-1
3.709508640E0,-8.480336666E-1,-8.064948320E-1,8.578075171E-1
3.711730563E0,-8.846855760E-1,-7.451028824E-1,8.051204085E-1
3.713974155E0,-9.111055136E-1,-6.728680730E-1,7.476990819E-1
3.716222934E0,-9.387471676E-1,-5.958990455E-1,6.963863969E-1
3.718460483E0,-9.639453292E-1,-5.225952268E-1,6.414085031E-1
3.720687900E0,-9.928087592E-1,-4.528038502E-1,5.789475441E-1
3.722935519E0,-1.019381404E0,-3.880521357E-1,5.080871582E-1
3.725169955E0,-1.039845347E0,-3.341432810E-1,4.297437072E-1
3.727410007E0,-1.053131700E0,-2.866485119E-1,3.478877544E-1
3.729640048E0,-1.036638379E0,-2.310597748E-1,2.527455091E-1
3.731865756E0,-9.760099649E-1,-1.412625909E-1,1.362229437E-1
3.734105441E0,-9.111055136E-1,-6.475171447E-2,3.298672289E-2
3.736354037E0,-8.749117255E-1,-1.572977938E-2,-7.040221989E-2
3.738591342E0,-8.646797538E-1,2.657263726E-2,-1.656972021E-1
3.740820835E0,-8.669704795E-1,6.673702598E-2,-2.536617815E-1
3.743064487E0,-8.655960560E-1,1.091921628E-1,-3.268128932E-1
3.745301242E0,-8.504771590E-1,1.695151031E-1,-3.900374472E-1
3.747540316E0,-8.098546267E-1,2.232712507E-1,-4.091269970E-1
3.749774570E0,-7.890852094E-1,2.180788964E-1,-4.040873647E-1
3.752010287E0,-7.858781219E-1,1.889100820E-1,-4.115704596E-1
3.754248630E0,-8.057312369E-1,1.771509200E-1,-4.214970171E-1
3.756485995E0,-8.107708693E-1,2.306016237E-1,-4.237877727E-1
3.758725009E0,-7.984008789E-1,2.898555696E-1,-4.442517459E-1
3.760958957E0,-7.846564054E-1,3.454442918E-1,-4.720461071E-1
3.763195590E0,-7.686212063E-1,3.984368443E-1,-5.120577812E-1
3.765432041E0,-7.524332404E-1,4.491386712E-1,-5.642867684E-1
3.767669406E0,-7.356344461E-1,5.229006410E-1,-6.372851729E-1
3.769906100E0,-7.142542005E-1,6.414085031E-1,-7.223481536E-1
3.772143039E0,-6.902777553E-1,7.562511563E-1,-8.231409192E-1
3.774380221E0,-6.598871946E-1,8.770498037E-1,-9.387471676E-1
3.776618869E0,-6.230825782E-1,1.008538485E0,-1.065196276E0
3.778853000E0,-5.862779021E-1,1.145066857E0,-1.181718826E0
3.781090121E0,-5.542075038E-1,1.289994717E0,-1.299615860E0
3.783326328E0,-5.305364728E-1,1.442558289E0,-1.430951834E0
3.785563815E0,-5.201517344E-1,1.607339144E0,-1.558622718E0
3.787800571E0,-5.222898126E-1,1.760360956E0,-1.685224533E0
3.790037387E0,-5.461135507E-1,1.881006837E0,-1.808619261E0
3.792274691E0,-5.865833759E-1,1.974011064E0,-1.926058173E0
3.794512912E0,-6.301075220E-1,2.036777496E0,-2.019215107E0
3.796744540E0,-6.768386960E-1,2.075262070E0,-2.097711325E0
3.798972446E0,-7.287622094E-1,2.101834536E0,-2.166586399E0
3.801220920E0,-7.816020846E-1,2.156201601E0,-2.203543663E0
3.803458041E0,-8.222246170E-1,2.283261538E0,-2.193617105E0
3.805697849E0,-8.529205918E-1,2.413681269E0,-2.172542334E0
3.807931613E0,-8.840747476E-1,2.521193504E0,-2.147802114E0
3.810169040E0,-9.219483733E-1,2.612823486E0,-2.116037130E0
3.812407443E0,-9.747881889E-1,2.695137501E0,-2.067167997E0
3.814641879E0,-1.033125877E0,2.758209229E0,-1.991573453E0
3.816878879E0,-1.094670534E0,2.793334007E0,-1.889100790E0
3.819114902E0,-1.157589674E0,2.831054926E0,-1.762193561E0
3.821352328E0,-1.233642340E0,2.887101889E0,-1.617112994E0
3.823589084E0,-1.332907915E0,2.964223623E0,-1.468367338E0
3.825826022E0,-1.429271936E0,3.054631710E0,-1.323134065E0
3.828063571E0,-1.532813668E0,3.162296772E0,-1.173014045E0
3.830301791E0,-1.634980798E0,3.274695873E0,-1.014494419E0
3.832536350E0,-1.733940959E0,3.369990826E0,-8.643743396E-1
3.834772861E0,-1.811062694E0,3.441920280E0,-7.166976333E-1
3.837009189E0,-1.870011210E0,3.492774725E0,-5.761986375E-1
3.839246555E0,-1.904066920E0,3.558900833E0,-4.392121136E-1
3.841480991E0,-1.912313700E0,3.619834661E0,-3.118467033E-1
3.843710483E0,-1.887726307E0,3.660609961E0,-1.915062517E-1
3.845957614E0,-1.835344672E0,3.671605587E0,-7.849618047E-2
3.848196078E0,-1.756390333E0,3.656792164E0,3.115412779E-2
3.850433139E0,-1.652543187E0,3.592803955E0,1.320996135E-1
3.852667514E0,-1.539685845E0,3.481321096E0,2.243402600E-1
3.854903781E0,-1.430646420E0,3.362660408E0,3.141374588E-1
3.857141147E0,-1.320537925E0,3.233156919E0,3.940080702E-1
3.859377963E0,-1.219439745E0,3.087923765E0,4.653266072E-1
3.861614780E0,-1.113607287E0,2.919630527E0,5.328271985E-1
3.863852145E0,-1.016937971E0,2.733163834E0,5.977316499E-1
3.866090549E0,-9.202684760E-1,2.540741205E0,6.540839672E-1
3.868325046E0,-8.284859657E-1,2.347249746E0,7.006624341E-1
3.870562289E0,-7.405213714E-1,2.145358801E0,7.458664775E-1
3.872798252E0,-6.611089110E-1,1.953241587E0,7.860308290E-1
3.875035434E0,-5.798638463E-1,1.776854277E0,8.203920126E-1
3.877272128E0,-5.073235631E-1,1.606728315E0,8.507825732E-1
3.879508273E0,-4.390594065E-1,1.453706622E0,8.727737069E-1
3.881743502E0,-3.740022480E-1,1.327410221E0,8.912523985E-1
3.883984836E0,-3.155119121E-1,1.243721604E0,9.085093141E-1
3.886219272E0,-2.654209435E-1,1.176068306E0,9.257662892E-1
3.888457004E0,-2.160935849E-1,1.118036151E0,9.309586287E-1
3.890692356E0,-1.666134894E-1,1.070999503E0,9.274461865E-1
3.892930026E0,-1.253800988E-1,1.039845347E0,9.289733171E-1
3.895166782E0,-8.521570265E-2,1.012356400E0,9.315695167E-1
3.897403659E0,-4.764748737E-2,9.873109460E-1,9.330966473E-1
3.899637912E0,-1.725694351E-2,9.709703326E-1,9.356928468E-1
3.901867160E0,1.450804994E-2,9.581421614E-1,9.443976879E-1
3.904113803E0,4.734205827E-2,9.442449808E-1,9.532552361E-1
3.906350803E0,7.269296050E-2,9.242390990E-1,9.656252265E-1
3.908589877E0,1.007927656E-1,9.127854109E-1,9.828822017E-1
3.910824252E0,1.200350225E-1,9.014843702E-1,9.964739084E-1
3.913061008E0,1.395827085E-1,8.926268220E-1,1.011287451E0
3.915297885E0,1.601994038E-1,8.849910498E-1,1.024879217E0
3.917535251E0,1.797471046E-1,8.820894361E-1,1.038623691E0
3.919773654E0,1.896736622E-1,8.952230215E-1,1.055880547E0
3.922008090E0,1.970040351E-1,8.952230215E-1,1.070541382E0
3.924245090E0,1.997529417E-1,9.085093141E-1,1.078024387E0
3.926481113E0,1.934915632E-1,9.582948685E-1,1.058629513E0
3.928718600E0,1.811215430E-1,1.010829210E0,1.031751394E0
3.930955539E0,1.676825136E-1,1.007316828E0,1.012050986E0
3.933189242E0,1.620320082E-1,9.601274729E-1,9.885326624E-1
3.935414890E0,1.554652005E-1,8.753699064E-1,9.636399150E-1
3.937656284E0,1.458440721E-1,7.518224120E-1,9.385944605E-1
3.939902866E0,1.403462887E-1,6.013968587E-1,9.172141552E-1
3.942142368E0,1.295034289E-1,4.195117056E-1,8.918632865E-1
3.944378634E0,1.157589629E-1,2.147191316E-1,8.614727259E-1
3.946612949E0,9.300423414E-2,-4.428773187E-3,8.249735236E-1
3.948849643E0,6.704246253E-2,-2.078468949E-1,7.774787545E-1
3.951086642E0,3.145955876E-2,-4.013384581E-1,7.225008607E-1
3.953323825E0,-1.069014147E-2,-5.618433356E-1,6.640105247E-1
3.955562534E0,-4.718934000E-2,-7.406741381E-1,5.931501389E-1
3.957796848E0,-9.666942805E-2,-8.962920308E-1,5.309945941E-1
3.960033725E0,-1.543961912E-1,-1.037096500E0,4.686863720E-1
3.962267062E0,-2.095267773E-1,-1.164767265E0,4.065308273E-1
3.964495883E0,-2.755002379E-1,-1.283580542E0,3.419318199E-1
3.966744235E0,-3.373503387E-1,-1.375821233E0,2.785545588E-1
3.968981235E0,-4.036292136E-1,-1.446070790E0,2.165517360E-1
3.971221286E0,-4.639521539E-1,-1.469130874E0,1.571450830E-1
3.973457065E0,-5.276348591E-1,-1.476461291E0,9.300423414E-2
3.975691379E0,-5.853615999E-1,-1.486235142E0,2.886338346E-2
3.977928195E0,-6.342308521E-1,-1.492496490E0,-3.772092983E-2
3.980164218E0,-6.782131195E-1,-1.495245457E0,-9.926560521E-2
3.982401828E0,-7.159340382E-1,-1.493260145E0,-1.595885456E-1
3.984638461E0,-7.473936081E-1,-1.486540556E0,-2.173153162E-1
3.986875522E0,-7.790058851E-1,-1.489594936E0,-2.738203406E-1
3.989112643E0,-8.118399382E-1,-1.491427541E0,-3.329215646E-1
3.991351413E0,-8.410087228E-1,-1.492038369E0,-3.894265890E-1
3.993585849E0,-8.602510095E-1,-1.484402537E0,-4.347833395E-1
3.995822299E0,-8.854491711E-1,-1.461953282E0,-4.703662395E-1
3.998058750E0,-8.972083330E-1,-1.444849014E0,-4.973970354E-1
4.000296115E0,-9.017898440E-1,-1.431409955E0,-5.169447064E-1
4.002533054E0,-8.891143799E-1,-1.421941519E0,-5.314527750E-1
4.004769809E0,-8.717046976E-1,-1.414916635E0,-5.459607840E-1
4.007003329E0,-8.446739316E-1,-1.420261741E0,-5.470298529E-1
4.009230258E0,-8.119926453E-1,-1.441641927E0,-5.393940210E-1
4.011480258E0,-7.693848014E-1,-1.464244008E0,-5.282457471E-1
4.013717014E0,-7.299839854E-1,-1.461342335E0,-5.119050741E-1
4.015956943E0,-6.853908300E-1,-1.445307136E0,-5.004513264E-1
4.018190646E0,-6.301075220E-1,-1.439045787E0,-4.828889668E-1
4.020427219E0,-5.687155724E-1,-1.442710996E0,-4.566217661E-1
4.022664096E0,-5.015203953E-1,-1.456150055E0,-4.169155359E-1
4.024901400E0,-4.303545654E-1,-1.449125051E0,-3.747658134E-1
4.027139865E0,-3.591887653E-1,-1.452942967E0,-3.373503387E-1
4.029374301E0,-3.081815243E-1,-1.470963478E0,-2.991712391E-1
4.031611362E0,-2.597704530E-1,-1.496161699E0,-2.461786866E-1
4.033847568E0,-2.163990140E-1,-1.514029503E0,-1.748601794E-1
4.036084811E0,-1.696678251E-1,-1.544114590E0,-7.437284291E-2
4.038321750E0,-1.380555481E-1,-1.525330544E0,4.108068720E-2
4.040558322E0,-9.972374886E-2,-1.466534734E0,1.933388561E-1
4.042795810E0,-5.222897977E-2,-1.372919679E0,3.642283976E-1
4.045034396E0,2.657263726E-2,-1.243416190E0,5.575672388E-1
4.047268832E0,1.560760736E-1,-1.108873129E0,7.611380816E-1
4.049503635E0,3.165809214E-1,-9.602801800E-1,9.430232048E-1
4.051730747E0,4.735732675E-1,-8.310821652E-1,1.056185961E0
4.053967075E0,6.273586154E-1,-7.527387142E-1,1.112843752E0
4.056216098E0,7.735081315E-1,-7.654141784E-1,1.138500094E0
4.058452914E0,9.291260242E-1,-8.607091308E-1,1.146746755E0
4.060685336E0,1.094975948E0,-9.949467778E-1,1.152549982E0
4.062928928E0,1.274417639E0,-1.135598540E0,1.152244568E0
4.065163119E0,1.462869525E0,-1.255786180E0,1.142470717E0
4.067402133E0,1.661095262E0,-1.370018005E0,1.143692493E0
4.069633151E0,1.859473825E0,-1.485624313E0,1.154688001E0
4.071858920E0,2.051743746E0,-1.585195303E0,1.173014045E0
4.074098605E0,2.233170509E0,-1.682170153E0,1.192561626E0
4.076347263E0,2.393522739E0,-1.784948230E0,1.199586630E0
4.078584750E0,2.534327269E0,-1.879937768E0,1.196684957E0
4.080813999E0,2.659401894E0,-1.972178459E0,1.185231328E0
4.083057712E0,2.767219543E0,-2.068847895E0,1.158811331E0
4.085294589E0,2.855184078E0,-2.173763990E0,1.118799686E0
4.087533480E0,2.926044464E0,-2.283108950E0,1.061378360E0
4.089768100E0,2.979495287E0,-2.403143883E0,9.940304756E-1
4.092003146E0,3.015841722E0,-2.516612053E0,9.144652486E-1
4.094234409E0,3.030349731E0,-2.626109600E0,8.260425329E-1
4.096473972E0,3.027600765E0,-2.731636763E0,7.313584089E-1
4.098702792E0,3.006678820E0,-2.822197437E0,6.377432942E-1
4.100941684E0,2.975066423E0,-2.898097515E0,5.430592299E-1
4.103189486E0,2.938719988E0,-2.952006340E0,4.592179358E-1
4.105427890E0,2.892141581E0,-2.972928524E0,3.804163337E-1
4.107665378E0,2.837163687E0,-2.969415903E0,3.152064681E-1
4.109899203E0,2.767983198E0,-2.944981337E0,2.571742535E-1
4.112136264E0,2.686585426E0,-2.904511452E0,2.125810981E-1
4.114373385E0,2.565634012E0,-2.869386673E0,1.774563491E-1
4.116611789E0,2.370157242E0,-2.870455742E0,1.414152980E-1
4.118846164E0,2.035403013E0,-2.940247059E0,1.027780771E-1
4.121083225E0,1.594358325E0,-3.030044317E0,5.833763257E-2
4.123319309E0,1.162781954E0,-3.078608036E0,1.404990070E-2
4.125556918E0,7.933612466E-1,-3.033709526E0,-2.565634064E-2
4.127793430E0,4.746423066E-1,-2.918256044E0,-5.726861581E-2
4.130027438E0,1.997529417E-1,-2.755155087E0,-7.971791178E-2
4.132256137E0,-2.229658142E-2,-2.539672375E0,-8.811730891E-2
4.134506198E0,-2.018909603E-1,-2.287384987E0,-8.857546002E-2
4.136741000E0,-3.413209617E-1,-1.998140216E0,-7.635815442E-2
4.138980442E0,-4.399756789E-1,-1.692860365E0,-6.001751125E-2
4.141213840E0,-5.064072609E-1,-1.382082582E0,-4.474587739E-2
4.143451205E0,-5.465716720E-1,-1.057255030E0,-2.779436857E-2
4.145688266E0,-5.549710989E-1,-7.368562222E-1,-1.802052557E-2
4.147924838E0,-5.426010489E-1,-4.288274050E-1,-2.031126991E-2
4.150162204E0,-5.158756971E-1,-1.525636017E-1,-3.375030309E-2
4.152400180E0,-4.810563922E-1,9.789115191E-2,-5.925392732E-2
4.154633517E0,-4.528038502E-1,3.278819323E-1,-8.994990587E-2
4.156871860E0,-4.295909703E-1,5.520694852E-1,-1.255328059E-1
4.159108371E0,-4.089742899E-1,7.640396953E-1,-1.624901593E-1
4.161346103E0,-3.949243724E-1,9.602801800E-1,-1.970040351E-1
4.163582309E0,-3.802636266E-1,1.129948020E0,-2.218967974E-1
4.165819064E0,-3.697261810E-1,1.278999090E0,-2.469422817E-1
4.168056430E0,-3.582724631E-1,1.411098719E0,-2.634356320E-1
4.170294894E0,-3.399465084E-1,1.522276163E0,-2.774855494E-1
4.172524814E0,-3.294090927E-1,1.614364147E0,-2.843577862E-1
4.174748325E0,-3.819434941E-1,1.744020224E0,-3.039054573E-1
4.177002658E0,-5.291619897E-1,1.937511802E0,-3.520110846E-1
4.179240085E0,-6.624833345E-1,2.084424973E0,-4.027129114E-1
4.181481357E0,-7.396050692E-1,2.157576084E0,-4.312708676E-1
4.183713657E0,-7.626652718E-1,2.169029713E0,-4.387539625E-1
4.185951022E0,-7.524332404E-1,2.134821415E0,-4.302018583E-1
4.188189426E0,-7.180721164E-1,2.067320824E0,-4.192062616E-1
4.190423862E0,-6.757696867E-1,1.979203343E0,-3.984368443E-1
4.192660800E0,-6.371324658E-1,1.884977460E0,-3.740022480E-1
4.194896701E0,-6.073527932E-1,1.788460732E0,-3.484986126E-1
4.197134555E0,-5.786421299E-1,1.689653277E0,-3.252857327E-1
4.199371066E0,-5.535966158E-1,1.595732689E0,-3.095559776E-1
4.201607944E0,-5.210680366E-1,1.501659513E0,-3.036000133E-1
4.203845004E0,-4.802927971E-1,1.393994451E0,-2.962696552E-1
4.206083652E0,-4.213443100E-1,1.267850757E0,-2.864958048E-1
4.208317905E0,-3.323107064E-1,1.108415008E0,-2.704605758E-1
4.210555270E0,-2.014328092E-1,8.946121335E-1,-2.396118939E-1
4.212788425E0,-3.573561832E-2,6.426302195E-1,-2.063197345E-1
4.215016696E0,1.206458881E-1,4.101960063E-1,-1.692096740E-1
4.217265414E0,2.507601976E-1,2.183843255E-1,-1.357648075E-1
4.219501376E0,3.544545472E-1,6.093380973E-2,-1.049161032E-1
4.221738437E0,4.353941977E-1,-6.078109145E-2,-7.788532227E-2
4.223978061E0,4.923573732E-1,-1.626428664E-1,-5.574145541E-2
4.226212619E0,5.335907936E-1,-2.446515262E-1,-3.741549700E-2
4.228450534E0,5.545129180E-1,-3.046690524E-1,-2.031126991E-2
4.230685764E0,5.560401082E-1,-3.446807265E-1,-7.024950348E-3
4.232923068E0,5.418374538E-1,-3.711006343E-1,6.261368748E-3
4.235159702E0,5.218316317E-1,-3.816380501E-1,1.710422710E-2
4.237396701E0,4.885394871E-1,-3.834706545E-1,2.901609987E-2
4.239632296E0,4.369213581E-1,-3.738495409E-1,4.566217586E-2
4.241866244E0,3.744603992E-1,-3.532328308E-1,6.001751125E-2
4.244106967E0,3.022255898E-1,-3.275764883E-1,7.284568250E-2
4.246344028E0,2.249511331E-1,-3.042109013E-1,8.582656831E-2
4.248581577E0,1.452332139E-1,-2.869539559E-1,1.010981947E-1
4.250817416E0,6.750060618E-2,-2.950479090E-1,1.003346145E-1
4.253054233E0,6.414085161E-3,-3.448334336E-1,6.658431143E-2
4.255291293E0,-4.062253982E-2,-4.337143302E-1,2.916881628E-2
4.257525486E0,-7.803803682E-2,-5.215262175E-1,3.054326226E-4
4.259752536E0,-1.091921628E-1,-6.096435189E-1,-1.496619824E-2
4.261990939E0,-1.365283877E-1,-6.855435371E-1,-1.786780916E-2
4.264238254E0,-1.605048478E-1,-7.675521970E-1,-1.114829071E-2
4.266477267E0,-1.818851233E-1,-8.460483551E-1,1.832595794E-3
4.268714512E0,-2.005165219E-1,-9.159924388E-1,1.237002108E-2
4.270948520E0,-2.131919712E-1,-9.862419367E-1,2.061670274E-2
4.273185580E0,-2.194533348E-1,-1.049161077E0,2.886338346E-2
4.275422641E0,-2.205223590E-1,-1.103680730E0,3.344487399E-2
4.277661105E0,-2.165517360E-1,-1.148732066E0,3.940080851E-2
4.279892795E0,-2.122756690E-1,-1.176679134E0,4.184427112E-2
4.282119235E0,-1.991420686E-1,-1.198823094E0,4.550946131E-2
4.284355502E0,-1.797471046E-1,-1.208902359E0,4.810563847E-2
4.286591891E0,-1.563815027E-1,-1.210582256E0,5.070181563E-2
4.288831027E0,-1.314887404E-1,-1.201419234E0,5.589416996E-2
4.291070530E0,-1.041525230E-1,-1.181260705E0,6.597344577E-2
4.293320041E0,-7.528914511E-2,-1.153924465E0,7.009678334E-2
4.295558322E0,-4.764748737E-2,-1.125366449E0,6.551529467E-2
4.297793003E0,-1.740965992E-2,-1.096808553E0,5.482515693E-2
4.300026828E0,1.404990070E-2,-1.067028880E0,4.306599870E-2
4.302263217E0,4.550946131E-2,-1.034958482E0,3.115412779E-2
4.304500766E0,7.467827946E-2,-1.000291824E0,1.924225502E-2
4.306737338E0,1.014036313E-1,-9.607383013E-1,1.359175146E-2
4.308974094E0,1.258382350E-1,-9.103419185E-1,3.054326167E-3
4.311211215E0,1.516472995E-1,-8.573493958E-1,-2.748893574E-3
4.313447055E0,1.736384481E-1,-8.020660877E-1,-1.084285788E-2
4.315669955E0,1.896736622E-1,-7.452555895E-1,-2.031126991E-2
4.317906833E0,2.020436823E-1,-6.847799420E-1,-2.611448988E-2
4.320142978E0,2.118175179E-1,-6.316346526E-1,-3.313944116E-2
4.322383029E0,2.153300047E-1,-5.771149397E-1,-3.772092983E-2
4.324619907E0,2.116648108E-1,-5.199990273E-1,-4.367686436E-2
4.326856906E0,2.115120888E-1,-4.689917862E-1,-4.963280261E-2
4.329094210E0,2.050980031E-1,-4.190535545E-1,-5.070181563E-2
4.331333041E0,1.950187236E-1,-3.740022480E-1,-5.665775016E-2
4.333567111E0,1.823432744E-1,-3.324634135E-1,-5.787948146E-2
4.335803135E0,1.682933718E-1,-2.982549667E-1,-6.276640296E-2
4.338036716E0,1.542434692E-1,-2.628247738E-1,-6.383541971E-2
4.340278598E0,1.412625909E-1,-2.333505303E-1,-6.750060618E-2
4.342518466E0,1.246165112E-1,-2.087631971E-1,-7.376197726E-2
4.344752598E0,1.053742543E-1,-1.915062517E-1,-7.620543987E-2
4.346988681E0,8.827003092E-2,-1.802052408E-1,-7.880161703E-2
4.349226351E0,7.254024595E-2,-1.725694388E-1,-8.017606288E-2
4.351461520E0,6.032294407E-2,-1.650863290E-1,-8.261952549E-2
4.353698398E0,4.795292020E-2,-1.660026312E-1,-8.277224004E-2
4.355935337E0,3.940080851E-2,-1.670716405E-1,-8.048149943E-2
4.358175388E0,2.947424725E-2,-1.669189334E-1,-7.803803682E-2
4.360420748E0,2.321287990E-2,-1.740965992E-1,-7.330382615E-2
4.362650424E0,1.924225502E-2,-1.837177277E-1,-7.208210230E-2
4.364890353E0,1.420261711E-2,-1.896736622E-1,-6.475171447E-2
4.367119297E0,1.389718428E-2,-2.005165219E-1,-6.123924255E-2
4.369357151E0,1.740965992E-2,-2.090686262E-1,-5.635231733E-2
4.371590915E0,1.970040426E-2,-2.141082734E-1,-4.902193695E-2
4.373828952E0,2.687807009E-2,-2.214386463E-1,-4.398229718E-2
4.376065708E0,3.039054573E-2,-2.312124968E-1,-4.153883830E-2
4.378303256E0,3.772092983E-2,-2.338086665E-1,-3.787364438E-2
4.380540134E0,4.489859566E-2,-2.448042482E-1,-3.543018550E-2
4.382778842E0,5.100724846E-2,-2.449569702E-1,-3.420845419E-2
4.385020236E0,5.833763257E-2,-2.451096773E-1,-3.039054573E-2
4.387250278E0,6.475171447E-2,-2.354885489E-1,-3.145955876E-2
4.389487033E0,6.734789163E-2,-2.270891517E-1,-3.145955876E-2
4.391721530E0,7.254024595E-2,-2.150245607E-1,-3.268129006E-2
4.393963840E0,7.284568250E-2,-2.029599845E-1,-3.375030309E-2
4.396211826E0,7.192938030E-2,-1.823432744E-1,-3.375030309E-2
4.398444735E0,6.750060618E-2,-1.566869318E-1,-3.604105115E-2
4.400669406E0,6.429356337E-2,-1.336267740E-1,-3.726277873E-2
4.402921725E0,5.864306539E-2,-1.116356254E-1,-3.848451003E-2
4.405156528E0,5.177082866E-2,-8.475755155E-2,-4.077525437E-2
4.407397312E0,4.367686436E-2,-6.276640296E-2,-3.955352306E-2
4.409626865E0,3.543018550E-2,-3.955352306E-2,-4.077525437E-2
4.411853976E0,2.718350291E-2,-2.367102914E-2,-3.955352306E-2
4.414096713E0,1.893682219E-2,-6.566801574E-3,-3.588833287E-2
4.416340305E0,1.175915636E-2,3.359758761E-3,-3.344487399E-2
4.418577487E0,4.581489135E-3,1.435533352E-2,-3.100141138E-2
4.420805942E0,-3.054326226E-4,1.939497143E-2,-2.977968007E-2
4.423050144E0,-5.192354787E-3,2.061670274E-2,-2.977968007E-2
4.425284885E0,-5.192354787E-3,2.183843218E-2,-2.489275858E-2
4.427526583E0,-3.970623948E-3,2.306016348E-2,-2.000583708E-2
4.429758579E0,7.635815418E-4,1.939497143E-2,-1.511891466E-2
4.431986057E0,3.207042580E-3,1.435533352E-2,-1.145372353E-2
4.434220371E0,1.038470957E-2,1.191187184E-2,-6.566801574E-3
4.436460849E0,2.015855350E-2,6.872233935E-3,-3.054326226E-4
4.438710117E0,2.993239649E-2,1.832595794E-3,5.803219974E-3
4.440936069E0,3.711006418E-2,-1.985311974E-3,1.084285788E-2
4.443184970E0,4.566217586E-2,-5.803219974E-3,1.328631863E-2
4.445418186E0,4.932736978E-2,-5.955935922E-3,1.695151068E-2
4.447658786E0,5.665775016E-2,-4.886921961E-3,1.954768784E-2
4.449892368E0,6.673702598E-2,1.069014193E-3,2.214386500E-2
4.452129428E0,6.918048859E-2,7.024950348E-3,2.580905706E-2
4.454366549E0,7.437284291E-2,2.031126991E-2,2.840523422E-2
4.456605197E0,8.093964309E-2,3.833179548E-2,2.718350291E-2
4.458839328E0,8.246681094E-2,5.406157300E-2,2.611448988E-2
4.461073704E0,8.414668590E-2,7.590000331E-2,2.122756653E-2
4.463301670E0,8.597928286E-2,1.001819000E-1,1.893682219E-2
4.465550082E0,8.521570265E-2,1.244637966E-1,1.786780916E-2
4.467786594E0,8.445212245E-2,1.438587606E-1,1.542434748E-2
4.470026156E0,7.345654815E-2,1.476766765E-1,1.053742506E-2
4.472260775E0,4.978551716E-2,1.336267740E-1,1.679879380E-3
4.474499301E0,2.596177347E-2,1.061378345E-1,-3.512475174E-3
4.476733981E0,-4.581489484E-4,8.613199741E-2,1.069014193E-3
4.478970981E0,-2.153299935E-2,8.048149943E-2,1.802052557E-2
4.481207004E0,-2.886338346E-2,9.392052889E-2,3.634648025E-2
4.483444308E0,-2.489275858E-2,1.096503139E-1,4.749477282E-2
4.485680881E0,-2.244929783E-2,1.059851199E-1,5.238169432E-2
4.487917941E0,-1.053742506E-2,9.239336848E-2,5.115996301E-2
4.490155124E0,-1.069014193E-3,6.673702598E-2,5.115996301E-2
4.492393832E0,1.404990070E-2,2.626720630E-2,4.993823543E-2
4.494628207E0,3.283400834E-2,-1.771509275E-2,4.978551716E-2
4.496865268E0,5.299255997E-2,-5.451972410E-2,5.238169432E-2
4.499101230E0,7.330382615E-2,-8.399397135E-2,5.604688451E-2
4.501338718E0,9.972374886E-2,-1.197295859E-1,5.742133409E-2
4.503572421E0,1.296561509E-1,-1.566869318E-1,5.864306539E-2
4.505796298E0,1.560760736E-1,-1.899790913E-1,6.246097013E-2
4.508037448E0,1.774563491E-1,-2.304489166E-1,6.490442902E-2
4.510288058E0,1.901318133E-1,-2.719877362E-1,6.123924255E-2
4.512525913E0,1.957823038E-1,-2.952006161E-1,5.986479297E-2
4.514762302E0,2.006692290E-1,-2.988658249E-1,5.986479297E-2
4.516995578E0,1.970040351E-1,-2.915354371E-1,6.856962293E-2
4.519233188E0,1.863138974E-1,-2.755002379E-1,7.574728876E-2
4.521470065E0,1.670716405E-1,-2.484694421E-1,7.330382615E-2
4.523706882E0,1.447750628E-1,-2.043344229E-1,6.230825558E-2
4.525944186E0,1.128573567E-1,-1.467603743E-1,4.138612002E-2
4.528182590E0,8.216137439E-2,-8.903361112E-2,1.817324013E-2
