"Time (s)","Linear Acceleration x (m/s^2)","Linear Acceleration y (m/s^2)","Linear Acceleration z (m/s^2)"
1.530102870E-1,2.709504366E-1,4.480352402E-1,-6.815433502E-1
1.709046360E-1,4.307167530E-1,3.310513496E-1,-3.458929062E-1
1.887967870E-1,2.573460340E-1,1.039018631E-1,-1.274518967E-1
2.066933320E-1,-1.598466635E-1,1.585881710E-1,2.138500214E-1
2.245876190E-1,-2.919574976E-1,1.127870083E-1,2.633695602E-1
2.424846530E-1,-9.102809429E-2,-9.062147141E-2,8.591365814E-2
2.603761320E-1,2.033114433E-2,-2.310819626E-1,-3.956937790E-1
2.782704800E-1,-2.625668049E-2,-2.002801895E-1,-7.237939835E-1
2.961650730E-1,3.848612309E-2,-1.242094040E-1,-1.763505936E-1
3.140591770E-1,-4.928374290E-2,6.365776062E-3,8.718175888E-1
3.319534030E-1,-2.273120880E-1,2.539060116E-1,9.351787567E-1
3.498478730E-1,-3.137202263E-1,6.400218010E-1,8.836460114E-2
3.677424040E-1,-1.078715324E-1,9.679450989E-1,-4.547901154E-1
3.856367520E-1,-1.754155159E-1,1.053946495E0,7.646732330E-1
4.035220050E-1,3.123196363E-1,-6.891767979E-1,7.333850861E-1
4.214253270E-1,3.479712009E-1,1.078703642E0,1.882410049E0
4.393168680E-1,4.035298824E-1,-2.976980209E-1,5.864658356E-1
4.572141450E-1,-1.976484537E0,-2.751955986E-1,1.448331833E0
4.751081880E-1,-1.250889778E0,6.483961344E-1,6.797171593E0
4.930036960E-1,-2.644116879E-1,-1.632247448E0,4.007215500E0
5.108968840E-1,8.840034008E-1,-8.151736259E-1,2.184336662E0
5.287915370E-1,1.757536173E0,-9.164204597E-1,-3.861682415E0
5.466857640E-1,4.774073601E0,-5.647079945E-1,-6.218694210E0
5.645798070E-1,-1.524910212E0,1.041036367E0,-4.458804131E0
5.824741550E-1,-5.353832722E0,1.912831783E0,-2.299986362E0
6.003716160E-1,-7.757630348E-1,1.426205397E0,-1.356647491E0
6.182629730E-1,4.397588253E0,5.307822227E-1,-1.605300903E-1
6.361572600E-1,1.280000091E0,-1.871666193E0,1.262050629E0
6.540403170E-1,9.283816814E-1,-2.786736965E0,3.114404678E-1
6.719458340E-1,3.036278486E0,-2.142914772E0,-1.506069183E0
6.898359710E-1,6.757260799E0,2.603461742E-1,-2.731687546E0
7.077346530E-1,5.433324814E0,2.408120155E0,-3.158197880E0
7.256288790E-1,6.616757512E-1,1.360652685E0,-3.203586578E0
7.435235320E-1,-1.062767982E0,2.583298683E-1,-4.399040699E0
7.614177580E-1,-1.013382435E0,-4.136562347E-1,-5.875545025E0
7.793119840E-1,-2.815700173E-1,-9.403729439E-1,-6.285044193E0
7.972063320E-1,1.053805351E-1,-2.386579514E0,-5.431716442E0
8.151006190E-1,1.309895039E0,-3.001915455E0,-2.725734711E0
8.329949070E-1,-5.054941177E-1,-4.098750591E0,-2.675097466E0
8.508894990E-1,-3.156268597E0,-5.051732063E0,-3.981232643E0
8.687836640E-1,-4.290600777E0,-6.212116241E0,-3.724910259E0
8.866780120E-1,-3.735120773E0,-8.524741173E0,-3.476403952E0
9.045724820E-1,-4.212306023E0,-9.349431038E0,-2.929580688E0
9.224668300E-1,-4.185449600E0,-9.225970268E0,-2.062885761E0
9.403579430E-1,-2.576347828E0,-9.102907181E0,-1.501973391E0
9.582554660E-1,-1.144254684E0,-7.121061325E0,-1.021475315E0
9.761528660E-1,1.450823784E0,-6.620528698E0,-4.404463768E-1
9.940439790E-1,4.869536400E0,-6.618969917E0,7.106361389E-1
1.011935336E0,8.651005745E0,-5.382477283E0,3.545833826E0
1.029820834E0,1.255832958E1,-3.210980177E0,6.270481586E0
1.047714999E0,1.238467121E1,-1.384711266E0,6.507145882E0
1.065621616E0,1.177110958E1,-1.912102222E0,4.111607075E0
1.083515659E0,9.554862976E0,-2.405780315E0,1.066735029E0
1.101410190E0,7.859583378E0,-1.828331947E0,-6.878484488E-1
1.119292026E0,8.094083786E0,-1.237244606E0,-1.144935608E0
1.137187167E0,8.910869598E0,-3.117990494E-2,-3.161254525E-1
1.155095981E0,8.491365433E0,1.273222446E0,-5.115118623E-1
1.172972445E0,7.297291279E0,2.167667866E0,-2.146936417E0
1.190881930E0,5.731815815E0,3.011012316E0,-2.631414890E0
1.208776401E0,5.058453083E0,2.587863684E0,-3.315433741E0
1.226670688E0,5.018027306E0,-6.092462540E-1,-5.982398987E-2
1.244565036E0,4.444743633E0,-1.637925625E0,-1.246955872E0
1.262459872E0,4.155157089E0,2.380819321E-1,-3.007988930E0
1.280353549E0,4.494391441E0,1.104269505E0,-1.529924870E0
1.298247958E0,3.924018383E0,1.564072132E0,-3.291230202E-1
1.316142184E0,2.613827229E0,7.819108963E-1,-8.960437775E-2
1.334036594E0,1.454038620E0,-1.722584248E0,-1.710188389E-1
1.351918918E0,1.973910809E0,-2.024232864E0,-2.358474493E0
1.369825473E0,2.288236618E-1,1.217045784E0,1.194262505E-2
1.387721469E0,3.061282635E0,5.966839790E-1,3.937662125E0
1.405613986E0,2.980321884E0,-1.612529755E-1,4.903062344E0
1.423508151E0,-3.179827690E0,-3.429346085E-1,-7.380955219E0
1.441387973E0,-1.694140434E0,-2.082997799E0,1.049044132E-1
1.459297092E0,-2.942390442E-1,-2.834238052E0,4.592202663E0
1.477191379E0,-2.062138557E0,-2.062031269E0,2.809469700E0
1.495085483E0,9.375238419E-1,3.982684612E-1,-3.405658960E0
1.512980197E0,3.352632523E0,3.102309465E0,-1.143894672E0
1.530874362E0,-2.661951542E0,-4.124958515E-1,-3.728804111E0
1.548768588E0,-1.172746468E1,-3.126146078E0,-6.612895489E0
1.566663180E0,-7.170658588E0,-2.154862881E0,-1.152152061E0
1.584557346E0,-2.070351601E0,-1.331611156E0,3.730951309E0
1.602451755E0,1.677613735E0,-3.857712746E-1,3.155445576E0
1.620343539E0,1.917463779E0,-4.489674568E-1,2.029930115E0
1.638240573E0,8.870997429E-1,-3.105118275E-1,-2.400107861E0
1.656134921E0,-2.634482861E0,1.028294802E0,-4.582667351E0
1.674029086E0,-2.567253113E0,7.201764584E-1,-6.920274734E0
1.691913669E0,-1.089639425E0,-1.427686214E-1,-1.059397697E1
1.709817905E0,-2.847671807E-1,2.231514454E-1,-8.475039482E0
1.727712131E0,1.702764750E0,6.068658829E-1,-6.059122086E0
1.745606540E0,2.460182428E0,4.724335670E-1,-2.350130081E-1
1.763501010E0,-6.866247654E-1,-1.804676056E-1,3.226611137E0
1.781395236E0,-1.224509716E0,2.552693844E0,4.640691757E0
1.799289340E0,-1.606348991E0,4.525061607E0,-2.216849327E-1
1.817183810E0,-3.309712648E0,2.495152473E0,5.613250732E-1
1.835078159E0,-3.986074209E0,-2.904477119E-1,5.414855480E0
1.852972751E0,1.036432266E0,-4.044699669E-1,1.037583542E1
1.870866977E0,1.551408768E0,2.318720818E-1,6.473609924E0
1.888761447E0,1.735400558E0,-6.200160980E-1,3.642892838E-1
1.906655795E0,1.989548683E0,-5.198059082E-1,-2.724348307E0
1.924549899E0,2.628685951E0,-4.309434891E-1,-2.793933392E0
1.942432712E0,1.490137458E0,1.407649040E0,-2.585161686E0
1.960338596E0,-6.129678488E-1,1.772280693E0,-2.794982672E0
1.978218539E0,-2.407029152E0,2.627692223E0,-4.443084717E0
1.996127536E0,-1.318157077E0,4.287923813E0,-5.987784863E0
2.014022739E0,1.211683035E0,4.526451111E0,-5.028240681E0
2.031904575E0,1.499549627E0,9.912118912E-1,-7.994098663E-1
2.049810458E0,5.665778160E0,-6.883497238E-1,7.057944298E0
2.067704929E0,8.284830093E0,-2.655760765E0,8.723273277E0
2.085599277E0,5.359952450E0,-3.311019421E0,5.823587418E0
2.103478976E0,3.736416817E0,-2.119145870E0,4.330215454E-1
2.121388095E0,1.771745682E0,-2.621897697E0,-2.161749601E0
2.139282565E0,-2.551654816E0,-3.796815872E0,-2.790616035E0
2.157176547E0,-1.666991234E0,-9.360203743E-1,-2.919201136E0
2.175070834E0,9.191923141E-1,1.718698025E0,-1.066625118E0
2.192962314E0,2.022360802E0,3.083909988E0,-9.639632702E-1
2.210859653E0,-8.094606400E-1,7.269229889E-1,-1.750229597E0
2.228753879E0,-6.723632812E-1,-1.575516224E0,-3.927975893E-1
2.246648471E0,2.893076420E0,-4.296693802E-1,8.184302330E0
2.264529696E0,5.098533154E0,4.617142677E-1,9.327439308E0
2.282436984E0,2.659931183E0,-9.769806862E-1,7.515648842E0
2.300331516E0,-4.458007812E-1,-3.075906754E0,6.789711952E0
2.318225864E0,-1.591148376E0,-2.445501328E0,3.529163361E0
2.336120090E0,6.249771118E-1,-1.143262863E0,1.117304325E0
2.354016391E0,1.118953705E0,7.767457962E-1,2.504346371E0
2.371894564E0,-2.937704086E0,-1.165909290E0,-8.309703827E0
2.389803256E0,-4.521393299E0,-2.253868580E0,-1.319016838E1
2.407697543E0,-1.282279968E0,-1.843426228E0,-2.722029686E0
2.425592197E0,-8.141717911E-1,-5.106792450E0,-1.433753967E-1
2.443486545E0,-1.567459106E-2,-1.559740067E0,1.321643114E0
2.461380588E0,7.259321213E-1,5.621485710E-1,2.149044275E0
2.479274936E0,2.430647850E0,-8.152523041E-1,9.845471382E-2
2.497169528E0,1.891754150E0,-1.849037170E0,8.594956398E-1
2.515063754E0,1.653866768E0,-2.207592964E0,1.715666294E0
2.532961277E0,3.505503654E0,-2.210127354E0,6.991212368E-1
2.550852573E0,3.336492538E0,-9.028491974E-1,1.128212929E0
2.568735080E0,1.300960064E0,1.580089569E0,3.672177792E-1
2.586641147E0,7.772083282E-1,1.699102879E0,9.635353088E-2
2.604523776E0,-4.246820450E0,2.495766640E0,-1.150388002E0
2.622420993E0,-8.569546700E0,3.527170658E0,-4.747079849E0
2.640324252E0,-4.692954540E0,3.381348372E0,-2.957828283E0
2.658218784E0,-3.397534847E0,2.855468750E0,-2.497014284E0
2.676112888E0,-4.253336906E0,1.406560898E0,-4.087087631E0
2.694003025E0,-3.835817814E0,1.162163734E0,-4.046914577E0
2.711886691E0,-1.793194771E0,6.565914154E-1,-2.851902008E0
2.729796176E0,7.136664391E-1,9.573087692E-1,1.989979267E0
2.747690463E0,2.323366165E0,1.775312424E-1,5.854444027E0
2.765584689E0,3.155565739E0,-2.829123974E0,6.499638557E0
2.783479282E0,3.276740551E0,-3.962491989E0,3.615565538E0
2.801373569E0,3.690759182E0,-2.050367832E0,-2.335390329E0
2.819255832E0,3.614450455E0,-1.252399921E0,-4.882583141E0
2.837162448E0,4.345040321E0,-1.553640842E0,-1.688679338E0
2.855056491E0,2.874223709E0,-3.057958603E0,-6.995470524E-1
2.872950961E0,7.996869087E-1,-3.261250973E0,-7.399234772E-1
2.890845370E0,-3.988718987E-1,-1.412718296E0,-1.531058788E0
2.908742771E0,-1.670980453E-2,1.038053036E0,-5.725268841E0
2.926634128E0,-6.655144691E-1,1.469988823E0,-3.217515945E0
2.944528232E0,-3.668477058E0,3.354344368E-1,-9.628396034E-1
2.962422641E0,-4.072035789E0,-1.057529926E0,1.655743361E0
2.980317111E0,-2.935491562E0,-6.956543922E-1,4.438777924E0
2.998211520E0,-1.653121948E0,3.548622131E-1,6.256262779E0
3.016105685E0,4.853000641E-1,9.374952316E-1,5.625802994E0
3.033989169E0,3.228955746E0,-2.063384056E-1,7.223866463E0
3.051879977E0,3.696719170E0,-1.038707733E0,8.327497482E0
3.069789096E0,3.939355850E0,1.881780624E-1,4.918816566E0
3.087683322E0,3.400637627E0,1.192070961E0,2.518210888E0
3.105577914E0,9.144968987E-1,1.709503174E0,3.080954552E-1
3.123475193E0,-2.526328087E0,6.676530838E-2,-4.652468204E0
3.141366489E0,-5.969305038E0,-4.402747154E-1,-1.033840752E1
3.159260776E0,-5.503788471E0,1.997413635E-1,-6.271536350E0
3.177155368E0,-2.278467178E0,2.972412109E-2,-6.354929924E0
3.195049411E0,-5.504515648E0,-7.670865059E-1,-6.631469250E0
3.212943881E0,-8.091539383E0,-1.841629505E0,-5.450648785E0
3.230838351E0,-8.093458176E0,-2.777296066E0,-4.446294308E-1
3.248732455E0,-1.261011600E0,-3.306720257E0,2.846303463E0
3.266626926E0,7.472002029E0,-1.591377258E0,1.126394987E0
3.284521274E0,6.259854317E0,-1.448676586E0,-2.806746960E0
3.302415500E0,1.652383804E0,-4.159222603E0,-2.123753071E0
3.320310336E0,4.242137909E0,-1.010863304E0,4.099355698E0
3.338204379E0,1.129123497E1,3.040791035E0,2.021156788E0
3.356095981E0,1.537224770E0,2.808796883E0,-1.350152493E0
3.373981174E0,1.548296928E0,2.317764759E0,-7.160977721E-1
3.391872592E0,9.392292500E-1,1.169769287E0,-8.648713231E-1
3.409781772E0,-9.048550129E-1,2.027721405E-1,-3.912550211E-2
3.427679294E0,-2.339354753E0,-1.347100258E0,6.494461298E-1
3.445571628E0,7.503962517E-2,-9.765672684E-1,-1.249974012E0
3.463465121E0,1.303642273E0,-3.954238892E-1,-1.640650153E0
3.481356418E0,1.862422943E0,-1.905145645E0,-4.546450078E-1
3.499253635E0,1.823241711E-1,-3.352816582E0,1.360203981E0
3.517148227E0,-1.196911573E0,-1.265080452E0,4.490204334E0
3.535042514E0,-2.795194626E0,-1.642975807E0,3.435957909E0
3.552936984E0,-3.296926022E0,-1.822977066E0,1.117747784E0
3.570831393E0,-2.608939171E0,-1.176570892E0,-2.043886662E0
3.588728549E0,-1.232495666E0,-4.896621704E-1,-1.989328980E0
3.606622837E0,1.504767537E0,4.619874954E-1,1.680290699E-2
3.624514377E0,1.250905275E0,4.881811142E-1,2.823203802E-2
3.642408725E0,1.305810213E0,2.067253590E0,-2.451231718E0
3.660302890E0,2.447104692E0,3.819595337E0,-3.024470329E0
3.678197787E0,4.709326267E0,4.571487427E0,-1.845490932E0
3.696091769E0,5.872212887E0,4.546288490E0,-1.099982500E0
3.713974155E0,5.737942696E0,3.899852753E0,-2.849860191E-1
3.731865756E0,5.766322613E0,3.661935806E0,1.611577034E0
3.749774570E0,3.070379019E0,-7.343177795E-1,1.345381141E0
3.767669406E0,1.781050414E-1,-3.697535515E0,2.215136766E0
3.785563815E0,1.087094784E0,-1.203077316E0,2.873445272E0
3.803458041E0,1.766150713E0,1.971483231E0,6.836537123E-1
3.821352328E0,-3.103523731E0,1.108835220E0,-3.281478882E0
3.839246555E0,-4.584539890E0,8.030319214E-2,-5.048909664E0
3.857141147E0,-3.399392366E0,-2.769279480E-1,-6.045467257E-1
3.875035434E0,-1.449480534E0,1.953721523E0,-9.259874821E-1
3.892930026E0,4.337767959E-1,3.426133156E0,-1.155068874E-1
3.910824252E0,-2.027629018E-1,4.085709572E0,6.912925243E-1
3.928718600E0,-5.334731936E-1,4.530873299E0,5.366128683E-1
3.946612949E0,-1.055176139E0,4.732848644E0,8.000788689E-1
3.964495883E0,-7.662175894E-1,4.736283302E0,6.073263884E-1
3.982401828E0,-1.046725750E0,4.818898201E0,8.235714436E-1
4.000296115E0,-1.032365561E0,4.791902542E0,1.167416096E0
4.018190646E0,-1.252177954E0,4.210973263E0,2.372031689E0
4.036084811E0,-2.273793459E0,-5.645457268E0,3.290567636E0
4.053967075E0,-4.392624855E0,-2.758987045E1,6.413572788E0
4.071858920E0,-1.758885980E0,-1.939767265E1,4.552845001E0
4.089768100E0,1.563262463E0,-7.149301529E0,2.120817900E-1
4.107665378E0,3.084142447E0,-1.958494186E-1,-3.088814020E0
4.125556918E0,3.077054262E0,3.481907368E0,-1.415217304E1
4.143451205E0,1.626530647E0,3.848768711E0,-6.706791401E0
4.161346103E0,9.214691520E-1,1.801011086E0,-1.388376117E0
4.179240085E0,-2.390306294E-1,-6.913604736E-1,3.764325380E-1
4.197134555E0,-1.072267294E0,-1.551673889E0,1.279586077E0
4.215016696E0,-2.725941539E-1,-4.451503754E-1,1.323446751E0
4.232923068E0,2.049526572E-1,-4.513883591E-1,6.350719929E-1
4.250817416E0,6.892981529E-1,-1.112738609E0,-4.081800580E-3
4.268714512E0,4.284637570E-1,1.135559082E-1,-4.556205869E-2
4.286591891E0,1.777926534E-1,3.058500290E-1,6.239301562E-1
4.304500766E0,2.182153761E-1,6.653261185E-1,8.336905241E-1
4.322383029E0,1.059810743E-1,5.044937134E-1,5.242897272E-1
4.340278598E0,-6.529100239E-2,1.334562302E-1,6.763786077E-3
4.358175388E0,-3.161304593E-1,-1.030206680E-1,-3.427983820E-1
4.376065708E0,-4.656754136E-1,-8.853244781E-2,-3.111363649E-1
4.393963840E0,-5.121387243E-1,1.344747543E-1,-1.209510043E-1
4.411853976E0,-7.179163694E-1,1.197023392E-1,-3.770414367E-2
4.429758579E0,-7.397834063E-1,-5.914211273E-2,1.701668203E-1
4.447658786E0,-5.307035446E-1,-1.016407013E-1,2.764126956E-1
4.465550082E0,-4.120659828E-1,-9.539222717E-2,1.551349014E-1
4.483444308E0,-4.884580672E-1,2.781448364E-1,-6.920624524E-2
4.501338718E0,6.778360009E-1,4.374504089E-3,5.766927600E-1
4.519233188E0,8.635339737E-1,-5.336132050E-1,-3.188184649E-2
4.537127719E0,2.393041104E-1,1.912183762E-1,-9.423815608E-1
4.555021762E0,-2.371381223E-1,1.467905045E-1,-6.709271669E-1
4.572916293E0,9.525166452E-2,-7.108688354E-3,-9.019499272E-2
4.590808689E0,4.711412191E-1,9.733295441E-2,2.924745083E-1
4.608708103E0,4.193055034E-1,-4.399585724E-2,3.568863869E-1
4.626599094E0,2.946638763E-1,-1.139001846E-1,2.550902069E-1
4.644494113E0,4.801514000E-2,-8.538913727E-2,1.407896355E-2
4.662388217E0,-8.576966822E-2,-4.104900360E-2,1.448218077E-1
4.680282748E0,-1.853311062E-1,2.519416809E-2,2.929050326E-1
4.698176975E0,-2.344916165E-1,5.652809143E-2,2.514897883E-1
4.716071384E0,-3.081207871E-1,3.506660461E-3,2.901970148E-1
4.733958591E0,-3.760454059E-1,-1.447200775E-2,3.667734563E-1
4.751848972E0,-3.628025353E-1,-1.780891418E-2,2.602238953E-1
4.769754672E0,-2.721688151E-1,-3.314971924E-3,1.491420567E-1
4.787651889E0,-6.199216843E-2,-1.178550720E-2,1.185636148E-1
4.805543185E0,9.516572207E-2,1.455307007E-3,2.011987567E-2
4.823437778E0,1.091177613E-1,-1.829814911E-2,-8.569473028E-2
4.841331821E0,6.044165790E-2,2.132987976E-2,-1.160515472E-1
4.859226657E0,1.353283525E-1,9.611320496E-2,-5.044869706E-2
4.877117892E0,2.573825717E-1,7.599353790E-2,6.233865768E-2
4.895015170E0,3.698592782E-1,7.102775574E-2,1.199483648E-1
4.912909702E0,4.368687272E-1,7.161903381E-2,1.141134501E-1
4.930801364E0,4.501267970E-1,5.711650848E-2,1.144927591E-1
4.948698459E0,3.780718446E-1,2.483558655E-2,8.686007559E-2
4.966592868E0,2.756822407E-1,2.626800537E-2,2.583940327E-2
4.984487094E0,1.740930229E-1,1.222133636E-2,4.105299711E-3
5.002378573E0,6.664102525E-2,-3.744888306E-2,1.156302355E-2
5.020275851E0,8.518573642E-2,-3.061389923E-2,-1.338133588E-3
5.038170505E0,4.696686938E-2,-1.654052734E-2,4.207635298E-2
5.056064731E0,2.840452641E-2,-1.344871521E-2,9.039063007E-2
5.073958469E0,-2.690798044E-2,-3.170967102E-3,1.103314459E-1
5.091841830E0,-5.327468365E-2,5.375194550E-2,7.638873160E-2
5.109744845E0,1.219699234E-1,6.815910339E-2,4.482226819E-2
5.127645237E0,2.113479674E-1,-3.708839417E-3,-5.805678666E-4
5.145536655E0,2.152822912E-1,-2.779483795E-2,-5.327580869E-2
5.163430942E0,2.534800768E-1,3.253936768E-3,-4.504401982E-2
5.181325290E0,3.247418404E-1,3.202629089E-2,2.591195703E-2
5.199219943E0,4.263258576E-1,-1.476097107E-2,1.106387228E-1
5.217114597E0,4.757441282E-1,-5.299949646E-2,1.302118003E-1
5.235008578E0,3.989030719E-1,-6.978416443E-2,7.074823976E-2
5.252903110E0,2.512997091E-1,-1.729965210E-2,5.279369652E-2
5.270797397E0,2.534526885E-1,5.832386017E-2,3.125662357E-2
5.288691928E0,3.403710425E-1,1.122827530E-1,7.147799432E-2
5.306586154E0,3.157617152E-1,1.025781631E-1,1.001965478E-1
5.324480807E0,2.348513156E-1,-8.782482147E-2,8.963397890E-2
5.342373629E0,1.604132205E-1,-2.729177475E-1,-3.704726696E-3
5.360269260E0,-1.528035104E-2,-2.172451019E-1,-1.921017617E-1
5.378151889E0,-7.998402417E-2,-1.300678253E-1,-2.521668673E-1
5.396058200E0,-6.185333431E-2,-3.263664246E-2,-2.161608487E-1
5.413958286E0,7.250100374E-3,1.528186798E-1,-1.850860566E-1
5.431835422E0,7.660201937E-2,1.951313019E-1,-1.017548293E-1
5.449738253E0,1.998698562E-1,1.083564758E-1,-2.325326204E-2
5.467638767E0,2.388509810E-1,8.027362823E-2,2.707989514E-2
5.485530002E0,2.281451523E-1,6.928443909E-2,3.533849120E-2
5.503412692E0,1.843165606E-1,-1.551628113E-3,7.237313688E-2
5.521318881E0,2.358635068E-1,-4.907226562E-2,8.444774151E-2
5.539216098E0,2.533348203E-1,1.756858826E-2,-8.787560463E-2
5.557107639E0,4.027876258E-1,4.344558716E-2,-2.344000041E-1
5.575001987E0,5.463863611E-1,-2.827835083E-2,-1.945899725E-1
5.592893344E0,5.977367163E-1,1.514720917E-2,-5.072820187E-2
5.610790866E0,6.065521240E-1,1.465969086E-1,1.021220088E-1
5.628685031E0,4.891140461E-1,-1.566696167E-2,1.818109751E-1
5.646579623E0,3.565822244E-1,-2.697582245E-1,2.644240856E-3
5.664474155E0,2.895779312E-1,-2.688665390E-1,-4.164934158E-1
5.682368503E0,2.865886390E-1,-1.070346832E-1,-8.436979055E-1
5.700262912E0,2.630562782E-1,1.230764389E-1,-9.711087942E-1
5.718160251E0,1.744090319E-1,2.715492249E-1,-7.110674977E-1
5.736051547E0,1.811603159E-1,1.845884323E-1,-5.462145805E-1
5.753926670E0,1.171881780E-1,-1.977195740E-1,-8.366361856E-1
5.771828342E0,1.689777672E-1,-8.223323822E-1,-1.195888996E0
5.789731967E0,5.218442678E-1,-9.930181503E-1,-1.380808592E0
5.807632175E0,1.944453835E0,1.217508316E-1,-6.776670218E-1
5.825523715E0,2.795016527E0,6.099033356E-2,-7.232525349E-1
5.843417941E0,1.037908792E0,-2.911586761E-1,-5.247902870E-1
5.861312350E0,3.687174916E-1,2.796840668E-1,-1.426742077E-1
5.879206760E0,1.176582575E-1,2.314491272E-1,-1.360129118E0
5.897101291E0,-1.882141829E-1,5.586481094E-1,-1.865654469E0
5.914995639E0,7.708537579E-2,2.602958679E-2,-5.853974819E-1
5.932878268E0,2.820998430E-1,-5.824747086E-1,1.036194563E0
5.950784518E0,3.812144995E-1,-3.921022415E-1,1.361000538E0
5.968678744E0,4.126331806E-1,-2.741250992E-1,6.625351906E-1
5.986574985E0,3.689802885E-1,1.868429184E-1,5.117821693E-2
6.004467746E0,1.168179512E-1,6.050815582E-1,-1.784892082E-1
6.022362094E0,-1.116950512E-1,8.454475403E-1,2.579903603E-2
6.040256625E0,-4.593468904E-1,1.044180870E0,2.699823380E-1
6.058150668E0,-4.530496597E-1,1.193816662E0,-3.830265999E-2
6.076045016E0,-1.880794764E-1,1.416839123E0,-5.366022587E-1
6.093940463E0,-8.836555481E-2,1.476565361E0,-6.405105591E-1
6.111822543E0,-6.096410751E-2,1.306481838E0,-4.556550980E-1
6.129725497E0,-2.768000364E-1,1.050477982E0,-5.555319786E-1
6.147625766E0,-2.699004412E-1,1.127671242E0,-8.303344250E-1
6.165517368E0,3.626298904E-2,1.115954876E0,-8.894433975E-1
6.183411655E0,1.342966557E-1,8.183517456E-1,-9.532227516E-1
6.201305942E0,2.382478714E-1,6.189870834E-1,-1.159446001E0
6.219200229E0,5.495014191E-1,5.702667236E-1,-1.484176159E0
6.237082980E0,7.861145735E-1,5.894079208E-1,-1.458661795E0
6.254989108E0,7.027474642E-1,2.854347229E-1,-1.292898893E0
6.272880587E0,9.728983641E-1,3.754692078E-1,-1.667307377E0
6.290778110E0,1.473891377E0,4.320535660E-1,-1.928418875E0
6.308675571E0,1.818887115E0,3.531265259E-1,-1.586920738E0
6.326569369E0,1.814789295E0,2.488327026E-1,-1.515961885E0
6.344461215E0,1.626481175E0,2.819070816E-1,-2.127757549E0
6.362355441E0,1.382188082E0,7.150325775E-1,-2.252328396E0
6.380249543E0,9.989455938E-1,1.329573631E0,-1.898286581E0
6.398147373E0,9.009782076E-1,1.436835289E0,-1.556147337E0
6.416041782E0,1.130512238E0,1.683526039E0,-3.749871254E-1
6.433929477E0,8.027479649E-1,1.257524014E0,1.473050117E0
6.451816013E0,-3.966832161E-1,-1.276331902E0,2.297304153E0
6.469722019E0,-6.787556410E-1,-3.647601128E0,1.397025824E0
6.487619480E0,7.368091345E-1,-3.906821251E0,-4.185273647E0
6.505511020E0,1.138207674E0,-2.504566193E0,-3.481657267E0
6.523406345E0,1.021301746E-2,-1.640605927E-2,3.946681023E-1
6.541299594E0,-9.089368582E-1,1.256634712E0,2.110476017E0
6.559193942E0,-1.078982949E0,1.764151573E0,2.850816488E0
6.577088718E0,-1.309070110E0,1.164895058E0,3.046345234E0
6.594971286E0,-1.522048473E0,3.528099060E-1,3.194663525E0
6.612877475E0,-1.132904291E0,1.926422119E-4,2.417866707E0
6.630771823E0,-2.599328458E-1,-1.677818298E-1,9.569507837E-1
6.648666293E0,8.055051565E-1,5.418300629E-2,6.642434597E-1
6.666560519E0,1.170650482E0,8.971214294E-2,9.788560867E-1
6.684437594E0,9.516516924E-1,9.247398376E-2,1.101185083E0
6.702349338E0,4.000399411E-1,2.017784119E-2,5.528309345E-1
6.720243625E0,4.901103973E-1,7.867527008E-2,1.070140600E-1
6.738138217E0,8.440250754E-1,4.776906967E-1,-3.676558733E-1
6.756032504E0,1.003037930E0,8.693418503E-1,-5.858811140E-1
6.773926730E0,1.118127346E0,1.109212875E0,-6.299693584E-1
6.791809604E0,1.148004651E0,1.116117477E0,-4.839868546E-1
6.809712619E0,1.234106064E0,8.662586212E-1,2.089372873E-1
6.827613254E0,1.421483994E0,6.421346664E-1,6.338852644E-1
6.845504611E0,1.543242216E0,5.506477356E-1,3.085763454E-1
6.863399203E0,1.435378075E0,5.206680298E-1,-1.396525204E-1
6.881293430E0,1.064100504E0,4.049768448E-1,-8.016903996E-1
6.899187778E0,8.421154022E-1,-4.195213318E-3,-1.452484965E0
6.917082309E0,2.897532582E-1,-1.728858948E-1,-2.349527121E0
6.934976596E0,-2.254476994E-1,-2.856683731E-1,-2.980852365E0
6.952856479E0,-3.849720657E-1,-2.855176926E-1,-2.667744160E0
6.970753696E0,4.450789690E-1,-6.713981628E-1,-2.010867596E0
6.988649325E0,1.309447646E0,-7.491645813E-1,-1.302714944E0
7.006557041E0,2.011203527E0,-1.000560760E0,-1.135058880E0
7.024448764E0,2.598938942E0,-1.014277458E0,-1.595882416E0
7.042343051E0,2.883472443E0,-9.358329773E-1,-2.015047550E0
7.060237582E0,2.808461428E0,-1.886064529E0,-1.706293344E0
7.078132114E0,2.397079468E0,-3.967011452E0,-1.030348539E0
7.096026706E0,1.355720639E0,-4.620911598E0,-8.893525600E-1
7.113920932E0,1.488217711E-2,-3.319846153E0,-3.497073054E-1
7.131803561E0,-2.209615707E0,-6.077909470E-1,1.923999906E0
7.149706515E0,-1.171136618E0,1.507511139E0,6.566023827E-1
7.167606784E0,-5.173461437E-1,-2.343530655E-1,-1.230081558E0
7.185498569E0,-1.473580003E0,-1.874711990E0,-1.646469593E0
7.203393039E0,-1.551437378E0,-2.139273643E0,-6.814130545E-1
7.221287082E0,-7.604256868E-1,-1.875969887E0,1.150726318E0
7.239181735E0,2.272690833E-1,-1.059417725E0,2.298249245E0
7.257076205E0,4.165967107E-1,-1.024407387E0,1.991157532E0
7.274971835E0,1.676526070E-1,-8.217401505E-1,6.260617971E-1
7.292865024E0,-2.815369368E-1,1.646356583E-1,-1.727838516E-1
7.310759372E0,-3.689348698E-2,9.874668121E-1,7.265553474E-1
7.328653598E0,-1.356022358E-1,1.190203667E0,2.161692142E0
7.346547824E0,-5.719290972E-1,1.365074158E0,2.951840878E0
7.364442600E0,-1.257087708E0,1.851905823E0,3.306367159E0
7.382337192E0,-1.392827749E0,2.137118340E0,3.384966135E0
7.400231113E0,-1.573079109E0,1.907104492E0,3.443624496E0
7.418125705E0,-7.688676119E-1,1.415436745E0,2.719771385E0
7.436020053E0,-1.924723387E-1,8.720102310E-1,1.032499075E0
7.453914584E0,-2.226120234E-1,1.231955051E0,1.133754969E0
7.471797458E0,-9.338311553E-1,1.904546261E0,2.059070826E0
7.489700717E0,-1.605098248E0,2.416288376E0,2.172373056E0
7.507600803E0,-1.791993380E0,2.726872444E0,1.363502264E0
7.525492465E0,-1.615572095E0,2.471526146E0,-1.894688606E-2
7.543386935E0,-1.247953057E0,1.372183800E0,-1.897054195E0
7.561269321E0,6.749522686E-2,3.960638046E-1,-3.891318798E0
7.579163852E0,2.180934429E0,-8.770837784E-1,-4.189527035E0
7.597068759E0,4.217763901E0,-2.425870895E0,-3.037177801E0
7.614952426E0,4.541344166E0,-2.505904198E0,-3.494745493E0
7.632858798E0,4.797531128E0,-1.974534988E-1,-2.675085783E0
7.650753513E0,4.248481750E0,1.976836205E0,6.939606667E-1
7.668650608E0,3.455117702E0,8.875427246E-1,1.304734707E0
7.686545261E0,1.667593002E0,-3.821029663E0,1.975164652E0
7.704436618E0,-1.204714894E0,-7.913170815E0,4.669645786E0
7.722315951E0,-2.541035175E0,-7.169295311E0,2.688728333E0
7.740225314E0,-3.735506296E0,-4.554163933E0,-1.348321342E1
7.758119907E0,-4.433179379E0,1.879395008E0,-4.387251854E0
7.776016452E0,-5.299289703E0,2.745210648E0,3.405966759E0
7.793908725E0,-4.302622318E0,1.848094940E0,6.287090302E0
7.811791293E0,-3.659371376E0,1.386918545E0,6.321578503E0
7.829694735E0,-3.249346256E0,1.166991234E0,5.189835548E0
7.847594577E0,-2.101293087E0,3.426122665E-1,4.528271675E0
7.865486301E0,-1.050308704E0,-1.012731552E0,3.932833910E0
7.883366244E0,4.000096917E-1,-1.040727615E0,3.084765673E0
7.901263705E0,1.544948220E0,-9.567174911E-1,2.128427029E0
7.919157871E0,2.328022718E0,-2.597332001E-1,1.059459448E0
7.937054294E0,3.103848696E0,5.683002472E-1,-2.182495117E0
7.954952609E0,3.063334465E0,9.322643280E-1,-3.963012218E0
7.972842258E0,2.221465111E0,9.187793732E-1,-1.314926624E0
7.990739780E0,9.984221458E-1,1.198240280E0,4.912233353E-2
8.008633700E0,3.614850342E-1,9.064903259E-1,1.830273867E-1
8.026529026E0,2.144596577E-1,7.509965897E-1,4.489646554E-1
8.044419955E0,4.637370706E-1,8.348693848E-1,4.640449882E-1
8.062314242E0,3.306418657E-1,1.165215492E0,-3.403894305E-1
8.080213352E0,2.223392576E-2,7.398576736E-1,-1.326850295E0
8.098102329E0,-9.568222612E-2,-1.120023727E-1,-2.032901287E0
8.115998691E0,-2.673962712E-1,-6.245355606E-1,-2.649169683E0
8.133892917E0,-1.387728304E-1,-2.116823196E-1,-2.998750210E0
8.151784213E0,1.537934691E-1,6.958513260E-1,-2.561110497E0
8.169684299E0,3.808649778E-1,1.171854973E0,-1.709484577E0
8.187579196E0,1.020742059E0,8.027019501E-1,-1.176995277E0
8.205469943E0,1.684635639E0,8.253574371E-2,-1.207389355E0
8.223363559E0,2.164905787E0,-5.823812485E-1,-1.918749809E0
8.241269321E0,1.772752762E0,-1.036400795E0,-3.030712605E0
8.259163852E0,9.158256054E-1,-1.831794739E0,-3.536806107E0
8.277058078E0,5.601486564E-1,-3.343147278E0,-2.331405163E0
8.294952426E0,6.623690724E-1,-4.272630692E0,-8.727682233E-1
8.312846957E0,5.215153098E-1,-3.902870178E0,4.091999531E-1
8.330741428E0,5.679557323E-1,-1.214482307E0,1.445926905E0
8.348636813E0,9.256781936E-1,-1.153917313E-1,-4.117767215E-1
8.366530002E0,6.384679675E-1,-1.690285683E0,-1.060416937E0
8.384424594E0,-1.141563654E-1,-2.839437485E0,6.850045919E-1
8.402322177E0,8.777673244E-1,-2.310989380E0,6.394963264E-1
8.420213473E0,6.378989220E-1,-1.820534706E0,-1.022457123E0
8.438108005E0,4.541414976E-2,-1.283768654E0,-7.758353949E-1
8.456005161E0,-1.198390126E-1,-1.320834160E0,1.024993658E0
8.473896762E0,-4.543408751E-1,-9.792804718E-1,2.223865509E0
8.491775424E0,-6.620014906E-1,-6.410408020E-2,2.354222536E0
8.509682528E0,-6.242771745E-1,8.448963165E-1,2.580094337E0
8.527582858E0,-5.780325532E-1,1.213435650E0,2.807826042E0
8.545474643E0,-8.934510946E-1,1.827264786E0,3.185138226E0
8.563365939E0,-1.498245716E0,1.784928799E0,3.335559130E0
8.581263461E0,-1.644175768E0,1.686613560E0,3.285373211E0
8.599160678E0,-1.451575398E0,1.387187004E0,2.865718365E0
8.617052280E0,-1.075938821E0,9.145951271E-1,2.598026752E0
8.634946567E0,-5.803231597E-1,1.345455170E0,2.658777714E0
8.652840732E0,-3.547987640E-1,1.885762691E0,2.757829666E0
8.670735690E0,-3.886612654E-1,2.069544315E0,2.245700598E0
8.688629916E0,-3.454994261E-1,1.819594383E0,7.066726685E-1
8.706524692E0,7.820495963E-2,1.208769798E0,-1.520894051E0
8.724423557E0,5.904726386E-1,2.446384430E-1,-2.521920204E0
8.742313266E0,1.718567371E0,-5.229358673E-1,-2.617189407E0
8.760207797E0,2.293709040E0,-3.814468384E-1,-2.771893024E0
8.778102145E0,2.814745903E0,6.084833145E-1,-3.123959780E0
8.795984409E0,3.059050322E0,7.721719742E-1,-2.835003614E0
8.813890842E0,2.322394848E0,-3.746986389E-3,-6.029052734E-1
8.831773410E0,1.061663330E-1,-5.890731812E-1,1.137841463E0
8.849676974E0,-2.744962692E0,-1.980081558E0,1.209480762E-1
8.867577243E0,-5.335642338E0,-5.017282486E0,-2.968966246E0
8.885468784E0,-4.591636181E0,-6.871426582E0,-2.598567724E0
8.903363315E0,-2.399781466E0,-3.912159920E0,2.554919720E0
8.921257602E0,3.400311172E-1,5.888319016E-1,4.072400570E0
8.939152133E0,1.465744972E0,1.896264553E0,2.746464252E0
8.957046420E0,2.067942142E0,2.093173027E0,2.354080677E0
8.974940952E0,2.328291655E0,1.075266838E0,3.939194679E0
8.992835483E0,2.514589310E0,4.645566940E-1,4.455308437E0
9.010729770E0,1.847651482E0,-7.764911652E-2,3.819960117E0
9.028627170E0,8.986130357E-1,-1.379299164E-1,3.428070068E0
9.046503695E0,2.861818075E-1,-4.289054871E-1,3.179246902E0
9.064413119E0,-2.340073586E-1,-6.412563324E-1,2.391572475E0
9.082304477E0,-1.180372834E0,-1.272767067E0,4.918236732E-1
9.100201938E0,-1.985327601E0,-9.437303543E-1,-3.312731504E0
9.118096469E0,-1.725662708E0,1.743507385E-1,-2.498321056E0
9.135990695E0,-1.095585585E0,9.307937622E-1,-5.784460306E-1
9.153885348E0,-7.043927908E-1,9.254627228E-1,6.127460003E-1
9.171767490E0,-5.885754824E-1,1.245967865E0,8.093562126E-1
9.189671176E0,-1.667652428E-1,1.616075516E0,3.618279696E-1
9.207571445E0,6.132242084E-2,1.317294121E0,2.856171429E-1
9.225463168E0,5.059669018E-1,7.580986023E-1,4.731759429E-1
9.243357516E0,9.075464010E-1,5.576419830E-1,4.495646060E-1
9.261251987E0,1.089694023E0,7.132434845E-1,5.677872896E-2
9.279146274E0,8.555158377E-1,7.955026627E-1,-2.593437433E-1
9.297040561E0,4.979672730E-1,9.551334381E-1,-4.763835669E-1
9.314935092E0,-5.744934082E-2,7.410411835E-1,-6.566691399E-1
9.332829623E0,-8.140510321E-1,1.751747131E-1,-1.196222425E0
9.350724155E0,-1.382031918E0,-5.526170731E-1,-2.133073330E0
9.368621677E0,-1.612648010E0,-9.004278183E-1,-2.726993084E0
9.386517551E0,-9.116798043E-1,-8.096017838E-1,-2.738347530E0
9.404407504E0,1.735181510E-1,-8.863201141E-1,-2.279233694E0
9.422301730E0,8.804675341E-1,-1.237793922E0,-2.044688940E0
9.440196323E0,8.836832047E-1,-1.334127426E0,-2.487695217E0
9.458078403E0,-4.069898725E-1,-1.433639526E0,-3.049091101E0
9.475984897E0,-1.881172657E0,-2.149765015E0,-2.536341667E0
9.493879672E0,-1.956517935E0,-4.084608078E0,-8.123433590E-1
9.511763156E0,-1.265974045E0,-5.256721497E0,5.335142612E-1
9.529665377E0,-4.750839174E-1,-3.118072510E0,1.483581066E0
9.547556858E0,3.893775344E-1,3.137073517E-1,3.414196730E0
9.565457309E0,9.684364796E-1,9.692831039E-1,-6.069533825E-1
9.583352328E0,8.039373159E-2,4.435691833E-1,-3.507344246E0
9.601246127E0,5.947995186E-1,-4.549264908E-1,-1.235513687E-1
9.619140659E0,1.174855471E0,-1.724946022E0,1.679560900E0
9.637034885E0,1.505507231E0,-2.696489334E0,-8.479229212E-1
9.654929172E0,1.274419069E0,-2.867285728E0,-1.519140959E0
9.672824008E0,7.428157330E-2,-2.785721779E0,8.526945114E-2
9.690718600E0,-9.148865938E-1,-1.227649689E0,1.132858753E0
9.708615757E0,-1.257255077E0,1.952610016E-1,1.827167749E0
9.726507297E0,-1.488350630E0,9.348173141E-1,2.696402788E0
9.744401889E0,-2.363720655E0,1.628374577E0,3.399621248E0
9.762296176E0,-2.309402943E0,2.212365150E0,3.536235332E0
9.780178928E0,-2.123454094E0,2.024920464E0,3.279055119E0
9.798073459E0,-1.078890324E0,1.821867943E0,2.794138432E0
9.815969333E0,-8.188912868E-1,1.874078274E0,1.666392803E0
9.833864414E0,-5.630429983E-1,2.305627346E0,1.189384937E0
9.851756198E0,-8.960955739E-1,2.874180794E0,1.720839739E0
9.869652316E0,-8.161221147E-1,3.048316479E0,2.196413755E0
9.887549045E0,-3.925052881E-1,3.268366814E0,1.850471497E0
9.905443454E0,4.524172544E-1,3.316436291E0,7.637743950E-1
9.923334811E0,1.369805217E0,3.087841034E0,-6.524052620E-1
9.941243258E0,2.049940109E0,2.088353157E0,-2.437308788E0
9.959135043E0,2.452032089E0,-4.705123901E-1,-4.610630035E0
9.977022006E0,2.938853741E0,-2.996146202E0,-5.630072594E0
9.994923862E0,3.326628685E0,-3.006342888E0,-4.409090996E0
1.001281974E1,3.321099281E0,-9.229021072E-1,-3.542357683E0
1.003071292E1,3.059976339E0,1.532214642E0,-1.589735031E0
1.004861038E1,2.057608128E0,2.386770725E0,1.517415047E-2
1.006650162E1,6.530053616E-1,-7.948255539E-1,2.270364761E0
1.008438565E1,-1.055404425E0,-5.540311813E0,4.008802414E0
1.010229062E1,-1.515229702E0,-7.243204117E0,1.122937918E0
1.012017044E1,-1.047617912E0,-4.996367455E0,-6.891740322E0
1.013807853E1,-1.929362059E0,6.218605042E-1,-3.107484579E0
1.015597416E1,-2.470985889E0,2.133932114E0,1.489060163E0
1.017386844E1,-2.629754543E0,1.228967667E0,4.894701004E0
1.019175211E1,-3.292694569E0,4.106502533E-1,5.689480305E0
1.020965427E1,-2.921946526E0,-1.437473297E-2,4.935259342E0
1.022755063E1,-2.507423639E0,-6.688003540E-1,3.571963072E0
1.024544608E1,-1.694874763E0,-7.846317291E-1,2.150881767E0
1.026333762E1,-3.993426561E-1,-3.750782013E-1,6.176775694E-1
1.028123783E1,8.746740222E-1,4.023494720E-1,-1.336650610E0
1.029912937E1,1.436550379E0,7.943019867E-1,-4.770281315E-1
1.031702396E1,1.633993864E0,1.403514862E0,7.966467142E-1
1.033491831E1,1.832048059E0,1.884899139E0,1.020706892E0
1.035281266E1,1.467286229E0,1.848305702E0,5.666378736E-1
1.037070731E1,8.645406961E-1,1.972285271E0,-4.729259014E-1
1.038860440E1,5.447216034E-1,1.399880409E0,-9.795686007E-1
1.040649637E1,5.485707521E-1,1.132644653E0,-8.797802329E-1
1.042439066E1,5.748928189E-1,1.048646927E0,-1.018103600E0
1.044227353E1,6.149463654E-1,1.239970207E0,-1.474982738E0
1.046017972E1,1.009234309E0,1.004356384E0,-1.482886314E0
1.047807407E1,1.112207532E0,2.666139603E-1,-1.589536190E0
1.049595633E1,7.522506714E-1,-5.501174927E-1,-2.358600140E0
1.051386014E1,1.608131528E-1,-6.176528931E-1,-3.317183971E0
1.053175241E1,-4.033010304E-1,-4.666833878E-1,-3.766081810E0
1.054964896E1,-2.946037948E-1,-4.580888748E-1,-3.530002356E0
1.056754941E1,1.735942960E-1,-5.347480774E-1,-3.067743301E0
1.058542899E1,1.038434982E0,-1.089647293E0,-3.347113132E0
1.060333518E1,1.623809576E0,-2.002856255E0,-3.245715141E0
1.062122953E1,1.845941305E0,-3.620691299E0,-5.032814741E-1
1.063911832E1,2.093279362E0,-4.552043915E0,2.194678545E0
1.065701853E1,9.802767634E-1,-3.150018692E0,1.437169790E0
1.067491288E1,-8.010108471E-1,-1.589912415E0,-1.252810717E0
1.069280747E1,-1.209674835E0,-1.249545097E0,-2.207257509E0
1.071070176E1,4.303010702E-1,-3.849437714E0,-4.116562307E-1
1.072859696E1,2.355430365E0,-4.370228767E0,1.871450901E0
1.074649106E1,3.327774048E0,-3.030056000E0,6.940915585E-1
1.076437461E1,1.792274833E0,-3.319136620E0,-1.263898015E0
1.078226810E1,-1.219110489E-1,-3.504955292E0,-4.515297413E-1
1.080015988E1,-6.158622503E-1,-1.977546692E0,4.630055428E-1
1.081805667E1,-1.095675707E0,-3.543586731E-1,8.771464825E-1
1.083595157E1,-1.173975348E0,1.273253441E0,1.858079195E0
1.085384708E1,-1.213981509E0,1.950255871E0,3.513270378E0
1.087174356E1,-1.505931497E0,2.297372341E0,4.345551491E0
1.088963565E1,-2.309107780E0,2.404191494E0,4.337203979E0
1.090753164E1,-2.736912012E0,2.825856686E0,3.780665398E0
1.092542911E1,-2.733804703E0,3.039924622E0,3.073416233E0
1.094332034E1,-2.795456648E0,2.882845879E0,2.753271341E0
1.096121567E1,-1.994656920E0,2.902567863E0,2.944968700E0
1.097910434E1,-1.404893398E0,2.951286316E0,3.132495403E0
1.099699936E1,-8.911447525E-1,2.737623215E0,2.624525785E0
1.101489798E1,-5.892137289E-1,2.453936100E0,2.298566341E0
1.103279020E1,-6.709437370E-1,2.088721752E0,1.967040777E0
1.105069956E1,-5.334311724E-1,1.376268387E0,3.948411942E-1
1.106859403E1,6.666120291E-1,1.928539276E-1,-3.870212078E0
1.108647489E1,2.566303253E0,-1.644322395E0,-7.617123127E0
1.110438016E1,3.674398899E0,-3.086253166E0,-6.986562729E0
1.112226248E1,4.570702553E0,-2.350945473E0,-5.141835690E0
1.114016898E1,4.553465843E0,2.480058670E-1,-1.674833298E-1
1.115806351E1,4.340404510E0,3.006135464E0,4.559538841E0
1.117595780E1,3.820527554E0,3.131884098E0,3.800570965E0
1.119385263E1,2.863255978E0,-4.041280746E-1,2.385916710E-1
1.121173288E1,2.299609184E-1,-8.147364616E0,9.726715088E-1
1.122963846E1,-6.682837009E-1,-1.343946648E1,3.678905964E-1
1.124753867E1,-1.959644437E0,-1.013496685E1,-1.133751869E1
1.126542764E1,-4.113608837E0,1.156969547E0,-2.975492239E0
1.128332468E1,-6.143887997E0,5.690794945E0,2.944886446E0
1.130121903E1,-5.118902206E0,4.128204346E0,5.303339958E0
1.131911380E1,-4.530224800E0,1.318869591E0,7.026909828E0
1.133700809E1,-4.551603794E0,3.385658264E-1,6.632645607E0
1.135490238E1,-3.383131981E0,-1.741571426E-1,5.360646725E0
1.137278495E1,-1.254803419E0,-6.706495285E-1,3.914819479E0
1.139069168E1,7.523608208E-1,-8.079128265E-1,2.618800402E0
1.140858585E1,2.109595537E0,-6.682081223E-1,1.226380348E0
1.142646585E1,3.922929287E0,-1.621389389E-1,-1.354354143E0
1.144436313E1,4.033776283E0,1.181002617E0,-3.249610424E0
1.146226438E1,3.680926323E0,1.784218311E0,-1.651718140E0
1.148015262E1,2.347086906E0,1.596251488E0,-5.996161103E-1
1.149805075E1,1.462567210E0,1.194166183E0,3.764688969E-3
1.151594205E1,4.713541865E-1,9.071807861E-1,1.173377633E-1
1.153383579E1,-5.329488963E-2,9.541254044E-1,4.025766551E-1
1.155172257E1,-3.543056846E-1,1.723858833E0,1.379436553E-1
1.156962497E1,-5.762358904E-1,2.051319122E0,-3.001790941E-1
1.158751950E1,-6.675149798E-1,1.859196663E0,-7.973601222E-1
1.160541410E1,-3.927580118E-1,1.053173065E0,-1.391780615E0
1.162330954E1,-3.734301329E-1,-1.913423538E-1,-1.895763159E0
1.164120298E1,-2.449556291E-1,-1.140490532E0,-3.098726511E0
1.165909934E1,3.821339309E-1,-1.446276665E0,-4.178354263E0
1.167699161E1,1.223656893E0,-1.178825378E0,-3.920498848E0
1.169488755E1,1.975651503E0,-8.083286285E-1,-2.920113325E0
1.171278403E1,2.849551201E0,-6.891908646E-1,-2.207217693E0
1.173067582E1,3.344122410E0,-1.324052811E0,-2.598598957E0
1.174856998E1,2.742056847E0,-2.488343239E0,-2.421868563E0
1.176646433E1,1.700498223E0,-4.638639450E0,-6.528141499E-1
1.178437021E1,4.559306204E-1,-5.357276917E0,7.867047787E-1
1.180225571E1,-1.791792035E0,-3.745716095E0,1.176506162E0
1.182015915E1,-2.580207348E0,-1.063795090E0,1.019109845E0
1.183805350E1,-1.176992297E0,-8.349180222E-1,-5.979667306E-1
1.185594803E1,-6.462738514E-1,-3.489600182E0,-2.376241922E0
1.187384256E1,-2.545221448E-1,-3.378211975E0,-1.239225864E0
1.189172019E1,-7.061408758E-1,-1.923389435E0,5.085014701E-1
1.190962863E1,-7.084406614E-1,-1.616422653E0,1.174671054E0
1.192752915E1,-5.624395609E-1,-1.708412170E0,9.926060438E-1
1.194542044E1,-1.217564821E0,-1.066820145E0,1.039566517E0
1.196331443E1,-1.491003990E0,-2.859077454E-1,9.452800751E-1
1.198120926E1,-1.099413991E0,1.073431015E0,1.489906907E0
1.199910404E1,-1.309429049E0,2.522115231E0,2.830624580E0
1.201699863E1,-1.003092766E0,3.425282001E0,3.588017225E0
1.203488993E1,-1.000536561E0,3.171719074E0,4.054605007E0
1.205278757E1,-1.030072212E0,2.607305050E0,3.947692394E0
1.207068222E1,-1.094131231E0,2.259071827E0,2.919600010E0
1.208857944E1,-1.232329726E0,1.868919373E0,1.742680788E0
1.210647092E1,-1.157991171E0,2.094615459E0,1.705563307E0
1.212434970E1,-1.257446647E0,2.674040318E0,2.675878048E0
1.214225980E1,-1.469809294E0,3.228663921E0,3.007781506E0
1.216015421E1,-1.626302481E0,3.525542259E0,2.549407482E0
1.217804917E1,-1.345501661E0,3.426900387E0,1.808055401E0
1.219594339E1,-1.164441109E-1,2.842195034E0,3.254091740E-1
1.221383811E1,8.182083368E-1,5.663833618E-1,-2.867882013E0
1.223171512E1,1.141519666E0,-2.753180504E0,-6.837162971E0
1.224962607E1,2.260932207E0,-5.423064232E0,-8.557842255E0
1.226751279E1,4.285971642E0,-4.595199585E0,-7.416931152E0
1.228541605E1,4.073371887E0,-6.488828659E-1,-3.236351252E0
1.230331034E1,3.713532448E0,2.258972168E0,6.607062817E-1
1.232120511E1,3.559134722E0,1.486797333E-1,1.964636922E0
1.233909964E1,1.885036349E0,-5.960141182E0,3.231605053E0
1.235699393E1,-2.482920885E-1,-9.412647247E0,2.908238411E0
1.237489164E1,-2.140818357E0,-5.443503380E0,-1.294461966E0
1.239278299E1,-3.437581539E0,-3.076210022E-1,-8.838267326E0
1.241068021E1,-4.454011917E0,2.791124344E0,-1.553920984E0
1.242857486E1,-4.374129295E0,2.297772408E0,4.820807934E0
1.244646659E1,-3.838639736E0,1.117609024E0,7.090663433E0
1.246436087E1,-3.468528271E0,1.020631790E0,6.622344494E0
1.248225571E1,-2.385538816E0,9.406147003E-1,5.327970028E0
1.250014994E1,-1.416442156E0,7.413072586E-1,3.700068712E0
1.251804441E1,-1.584027410E-1,1.818456650E-1,2.354651451E0
1.253592734E1,1.765293360E0,-1.135330200E-1,1.514493585E0
1.255383377E1,2.478927612E0,-2.390193939E-1,6.309119463E-1
1.257171933E1,2.965906620E0,3.692836761E-1,-2.189809322E0
1.258962253E1,2.960217714E0,1.544710159E0,-2.493910313E0
1.260752011E1,2.137632370E0,1.881157875E0,-1.363719702E0
1.262541141E1,1.003345609E0,1.444236755E0,-6.924635172E-1
1.264330619E1,3.766221404E-1,6.269474030E-1,-7.453463078E-1
1.266118588E1,1.229896396E-1,4.156999588E-1,-4.123285413E-1
1.267909519E1,-5.240328312E-1,7.631912231E-1,2.415840030E-1
1.269698954E1,-9.290944338E-1,1.156829834E0,9.534342587E-2
1.271488407E1,-1.063325524E0,1.138738632E0,-1.045282841E0
1.273277866E1,-7.795294523E-1,1.007772446E0,-1.862551689E0
1.275067313E1,-2.201407552E-1,9.128437042E-1,-2.054870129E0
1.276855899E1,1.347175837E-1,2.798852921E-1,-1.997881174E0
1.278645926E1,4.950618744E-1,-4.355030060E-1,-2.265015364E0
1.280435672E1,1.086445212E0,-6.103649139E-1,-2.730537415E0
1.282225125E1,2.137419701E0,-6.737155914E-1,-2.710587978E0
1.284014579E1,3.125372887E0,-5.167608261E-1,-2.471826553E0
1.285804038E1,3.752263069E0,-4.712085724E-1,-2.571224451E0
1.287593760E1,3.276518583E0,-7.629289627E-1,-3.099214792E0
1.289382938E1,1.914278626E0,-2.362109184E0,-2.182254553E0
1.291171115E1,7.866427898E-1,-4.395475388E0,-1.957989931E-1
1.292961545E1,-8.358144760E-1,-4.782298088E0,9.744180441E-1
1.294751279E1,-2.656672239E0,-3.237627983E0,1.391045094E0
1.296540720E1,-4.297077179E0,-1.745469093E0,-4.852959216E-1
1.298330179E1,-3.647523880E0,-1.859611511E0,-3.054516792E0
1.300119614E1,-1.289191604E0,-3.748394012E0,-5.428968072E-1
1.301909085E1,1.475499392E0,-3.129489899E0,1.913565397E0
1.303698514E1,3.008695602E0,-2.005792618E0,6.626418829E-1
1.305487967E1,2.357318878E0,-1.525179863E0,-4.337434769E-1
1.307277146E1,7.042931318E-1,-2.766714096E0,-2.550235987E-1
1.309066904E1,-2.613453865E-1,-2.183641434E0,-1.077940464E-1
1.310856607E1,-2.949059010E-1,-5.132255554E-1,6.473942995E-1
1.312644345E1,-1.788714290E0,-1.629285812E-1,2.130639553E0
1.314434238E1,-1.768678427E0,1.732648849E0,3.078974724E0
1.316223532E1,-2.413953543E0,2.602960587E0,3.774725676E0
1.318013315E1,-2.861852169E0,2.842924118E0,3.923927307E0
1.319802744E1,-2.741227388E0,3.384577274E0,3.492455006E0
1.321592221E1,-2.556744814E0,3.192420006E0,2.986471653E0
1.323380936E1,-1.592845798E0,2.584863663E0,2.646148205E0
1.325170993E1,-7.895733118E-1,2.297198772E0,2.632212639E0
1.326960935E1,-4.692095518E-1,2.618294716E0,3.060482502E0
1.328750046E1,-3.553023338E-1,2.988485336E0,3.048951864E0
1.330539310E1,-8.710157871E-2,2.831940174E0,2.292117119E0
1.332328891E1,1.450383663E-1,2.451039314E0,5.935332775E-1
1.334118283E1,8.450989723E-1,2.180235386E0,-1.755926609E0
1.335907529E1,1.925815582E0,1.120953560E0,-4.293589592E0
1.337697178E1,3.077658415E0,-9.045553207E-1,-6.437832832E0
1.339486771E1,4.311354637E0,-2.516549110E0,-6.361453056E0
1.341276364E1,4.998024940E0,-1.979609489E0,-4.458561420E0
1.343065390E1,4.680537224E0,-1.437044144E-1,-1.650263548E0
1.344854953E1,3.359219551E0,8.926219940E-1,-9.493553638E-1
1.346645639E1,2.122403622E0,-2.319758415E0,-1.400568962E0
1.348434555E1,-7.737235427E-1,-8.227880478E0,4.418396950E0
1.350224271E1,-2.544677496E0,-6.969306946E0,5.185848236E0
1.352013742E1,-4.375818729E0,-1.911161423E0,-1.956894636E0
1.353803196E1,-5.758917809E0,1.846875191E0,-1.022945690E1
1.355592655E1,-4.665498734E0,1.943369865E0,1.644160986E0
1.357381790E1,-3.776038647E0,-8.337402344E-1,7.992437363E0
1.359170493E1,-2.978443146E0,-1.312681198E0,7.418475151E0
1.360960996E1,-2.641808987E0,-5.391340256E-1,5.597384453E0
1.362749576E1,-1.683979273E0,-3.664636612E-1,3.965067863E0
1.364539902E1,-4.202374816E-1,-3.157043457E-2,2.657570124E0
1.366329374E1,1.322699308E0,-2.911376953E-2,1.635518074E-1
1.368118802E1,2.957910538E0,1.298379898E-1,-2.048805714E0
1.369908255E1,2.578875303E0,2.749614716E-1,-4.539527893E-1
1.371697684E1,2.846680164E0,4.435167313E-1,2.623089552E-1
1.373487162E1,2.266410828E0,1.230903625E0,7.412397861E-2
1.375276639E1,1.334232211E0,1.832334518E0,-3.295375109E-1
1.377066110E1,4.579961896E-1,1.783942223E0,-7.147682905E-1
1.378855814E1,3.492213190E-1,1.542948723E0,-4.047812819E-1
1.380644980E1,7.729631662E-1,1.507533073E0,-1.462669075E-1
1.382434427E1,9.416066408E-1,1.419056892E0,-2.170856297E-1
1.384223886E1,6.838822961E-1,1.287377357E0,-3.117051423E-1
1.386013333E1,8.036519587E-2,1.223265648E0,-4.246301651E-1
1.387802787E1,-5.251477361E-1,9.594526291E-1,-7.915588617E-1
1.389592240E1,-5.615808368E-1,-3.724288940E-2,-1.741004467E0
1.391381687E1,-3.714463711E-1,-6.130762100E-1,-3.599899054E0
1.393170176E1,5.274978876E-1,-4.826707840E-1,-5.110840321E0
1.394960306E1,1.775040984E0,-3.894538879E-1,-4.290690899E0
1.396749131E1,2.670809984E0,-5.938014984E-1,-2.695168257E0
1.398539536E1,3.212962866E0,-8.740463257E-1,-2.024476528E0
1.400328958E1,3.414807796E0,-1.213600159E0,-2.889455318E0
1.402118418E1,2.188166142E0,-1.818488121E0,-4.084369659E0
1.403907859E1,6.693115234E-1,-3.341560364E0,-2.647043705E0
1.405696122E1,-9.955123067E-3,-4.693109512E0,4.331415892E-1
1.407485678E1,-8.135904074E-1,-3.822834015E0,2.006098747E0
1.409275351E1,-1.403230071E0,-6.319608688E-1,1.972592831E0
1.411064511E1,-4.756497741E-1,-1.114279747E0,6.725051999E-2
1.412855417E1,-1.439180851E0,-3.709280014E0,-1.074068308E0
1.414644590E1,6.990540028E-2,-4.806962013E0,5.384739637E-1
1.416434043E1,1.685248375E0,-3.313549042E0,8.649660349E-1
1.418223465E1,1.297524095E0,-2.357845306E0,-8.478870392E-1
1.420012943E1,3.447385430E-1,-3.011072159E0,-1.075141311E0
1.421802372E1,-1.058523774E0,-1.849919319E0,5.152078867E-1
1.423591831E1,-1.528798580E0,-3.443908691E-1,6.977356672E-1
1.425381302E1,-1.734588385E0,7.078046799E-1,9.390801191E-1
1.427169510E1,-1.714865565E0,2.021744728E0,2.161558151E0
1.428960208E1,-1.766454339E0,2.840767860E0,3.243644476E0
1.430749967E1,-2.065701485E0,3.255990028E0,3.941916943E0
1.432539121E1,-2.134086847E0,3.239539146E0,3.952603817E0
1.434328574E1,-1.203535318E0,2.876897812E0,3.526986361E0
1.436118021E1,-3.385994434E-1,2.681937218E0,2.156523705E0
1.437907395E1,-5.407671928E-1,2.772472382E0,1.696321011E0
1.439696927E1,-8.301966190E-1,2.991793633E0,2.719861031E0
1.441486362E1,-1.205528140E0,3.239486694E0,2.796874523E0
1.443275833E1,-1.460126400E0,3.264567852E0,2.223482847E0
1.445065268E1,-1.571628571E0,2.369528770E0,1.525425911E0
1.446854032E1,-7.105971575E-1,1.611789703E0,-3.974249363E-1
1.448644199E1,4.916908741E-1,1.162452698E-1,-4.140218258E0
1.450433622E1,2.429800749E0,-1.747597694E0,-7.268209457E0
1.452223105E1,4.473453045E0,-3.394932747E0,-7.282373428E0
1.454012546E1,4.898981571E0,-3.017102242E0,-5.983862400E0
1.455802011E1,4.282443523E0,-3.208780289E-1,-1.296568871E0
1.457591458E1,3.289418221E0,2.674820423E0,3.647570848E0
1.459381211E1,1.747677565E0,1.884606361E0,4.222454071E0
1.461169602E1,5.031752586E-2,-4.804619789E0,3.581382275E0
1.462959824E1,-2.093570948E0,-1.081965542E1,3.339331627E0
1.464749570E1,-3.001187563E0,-8.742587090E0,-4.041115761E0
1.466538730E1,-4.105805397E0,-2.248229980E0,-1.037297440E1
1.468328183E1,-4.272731781E0,2.730607986E0,-5.971970558E-1
1.470117636E1,-3.856705189E0,1.936996460E0,5.174325466E0
1.471907083E1,-3.568750858E0,5.181589127E-1,6.099613190E0
1.473696549E1,-4.093316555E0,2.617282867E-1,5.844181538E0
1.475484848E1,-3.635985613E0,1.018342972E-1,4.766930580E0
1.477275443E1,-1.841310263E0,4.600410461E-1,3.665350199E0
1.479065195E1,-4.900177419E-1,5.304327011E-1,3.149087667E0
1.480854667E1,1.100326777E0,1.965274811E-1,2.666062117E0
1.482642343E1,2.520264626E0,-7.600784302E-4,1.770296097E0
1.484432175E1,3.513488054E0,5.172662735E-1,6.578327417E-1
1.486221793E1,4.282117367E0,1.628894806E0,-2.010064840E0
1.488012088E1,4.005776405E0,1.956118584E0,-2.983111382E0
1.489801645E1,2.573727608E0,1.250660896E0,-1.795627356E0
1.491591080E1,1.506697893E0,7.574329376E-1,-7.255593538E-1
1.493380521E1,9.841712713E-1,4.382352829E-1,-1.099078953E-1
1.495169022E1,1.431082487E0,1.021580696E0,-4.834303260E-1
1.496959415E1,1.047470450E0,1.626813889E0,-1.331409693E0
1.498748130E1,6.295869946E-1,1.821290970E0,-1.732109904E0
1.500536978E1,-1.126313508E-1,1.193764687E0,-1.630631328E0
1.502326999E1,-1.810629070E-1,4.394245148E-2,-1.490335703E0
1.504116214E1,3.162258863E-2,-5.466337204E-1,-2.110898018E0
1.505905680E1,6.682871580E-1,-3.865232468E-1,-3.302190304E0
1.507695395E1,9.376275539E-1,-1.823568344E-1,-4.149089336E0
1.509484586E1,1.831301093E0,-2.839221954E-1,-3.832133770E0
1.511273996E1,3.052767992E0,-5.972576141E-1,-2.895570755E0
1.513063559E1,3.810974598E0,-8.393917084E-1,-2.622708321E0
1.514853305E1,3.411066294E0,-1.756947517E0,-2.394506931E0
1.516642398E1,2.066840172E0,-3.583300591E0,-1.316550374E0
1.518432450E1,6.987153888E-1,-5.368368149E0,-3.263628483E-2
1.520221244E1,-1.222884417E0,-4.283665657E0,1.917875171E0
1.522010825E1,-2.451492786E0,-2.720786095E0,2.214977264E0
1.523799991E1,-2.967130184E0,-1.931445122E0,1.789765120E0
1.525589664E1,-3.060935020E0,-2.661289215E0,1.947393566E-1
1.527379239E1,-1.102917552E0,-4.177333832E0,-1.517539263E0
1.529168619E1,4.035702348E-2,-2.626336098E0,2.043378353E-2
1.530958030E1,4.608329833E-1,-2.182701111E0,-7.430526018E-1
1.532747495E1,-2.255040407E-2,-2.285049438E0,-1.068476319E0
1.534536814E1,-7.765496969E-1,-1.820177078E0,1.143339872E-1
1.536326389E1,-1.199834704E0,-2.835855484E-1,6.687467098E-1
1.538115787E1,-5.392935872E-1,1.396530151E0,8.592383862E-1
1.539905222E1,-4.896099567E-1,2.307686806E0,2.037717104E0
1.541695487E1,-8.577471375E-1,2.777582169E0,3.490742922E0
1.543484391E1,-6.711095572E-1,3.471717358E0,4.457880974E0
1.545273600E1,-1.567283750E0,2.870724678E0,4.545040607E0
1.547063187E1,-1.836389422E0,2.768935680E0,3.951180935E0
1.548852817E1,-1.767482877E0,2.451200008E0,2.488945961E0
1.550642234E1,-1.106390595E0,2.317647457E0,1.412442684E0
1.552431479E1,-7.695955634E-1,2.685251236E0,2.017121315E0
1.554220621E1,-8.050323129E-1,3.179802418E0,2.551501751E0
1.556011399E1,-7.966494560E-1,2.975007534E0,2.520802498E0
1.557800882E1,-7.765039206E-1,2.381351471E0,1.921563148E0
1.559590311E1,-5.238645077E-1,1.662118912E0,2.818899155E-1
1.561379746E1,-2.901113033E-2,3.372011185E-1,-2.382457018E0
1.563168357E1,2.103465796E-1,-1.821886063E0,-5.541836739E0
1.564958402E1,1.714024544E0,-3.150594711E0,-7.014441490E0
1.566748508E1,3.362534046E0,-2.417774200E0,-6.234508514E0
1.568537607E1,2.890454054E0,-8.294343948E-1,-4.462944031E0
1.570327036E1,2.881124258E0,1.803943157E0,-8.621666431E-1
1.572116483E1,2.650052786E0,1.982116699E0,7.065293789E-1
1.573905936E1,1.983118176E0,-2.443867683E0,1.243641615E0
1.575695414E1,-9.707020521E-1,-8.016860962E0,5.148625374E0
1.577484842E1,-2.370073557E0,-8.648491859E0,2.699861288E0
1.579273124E1,-2.398013115E0,-6.786891937E0,-1.005382061E1
1.581063748E1,-3.176876068E0,1.064318657E0,-1.699877501E0
1.582853513E1,-3.943733215E0,3.049684048E0,3.805529594E0
1.584642673E1,-3.860657692E0,1.692648888E0,6.567501545E0
1.586432132E1,-4.015807629E0,1.048162460E0,6.587752819E0
1.588221573E1,-3.444504976E0,1.162513733E0,5.855164528E0
1.590011039E1,-2.156506538E0,4.115381241E-1,4.228935719E0
1.591800467E1,-1.905392110E-1,4.569740295E-1,2.772220135E0
1.593589920E1,1.459997177E0,-1.103458405E-1,1.677375078E0
1.595379404E1,2.217225552E0,-3.829965591E-1,5.503702164E-1
1.597169907E1,3.155235052E0,9.459018707E-2,-1.783453584E0
1.598958005E1,2.993444204E0,1.178564072E0,-2.878103733E0
1.600748184E1,2.121027946E0,2.025812149E0,-1.780617237E0
1.602537186E1,1.234586596E0,1.842197895E0,-4.897000790E-1
1.604325608E1,5.415174961E-1,1.693105698E0,-1.630443335E-1
1.606116092E1,2.211704254E-1,1.427007675E0,-1.061405241E-1
1.607905283E1,2.603877783E-1,1.319570541E0,-1.789594889E-1
1.609695023E1,5.788788199E-1,1.506734848E0,-6.880637407E-1
1.611484476E1,3.331201971E-1,1.347541809E0,-9.435722828E-1
1.613272721E1,2.926433682E-1,1.060657501E0,-1.342122197E0
1.615063407E1,4.334236085E-1,5.423593521E-1,-1.666155696E0
1.616853128E1,4.618776739E-1,-2.026662827E-1,-2.051885605E0
1.618642289E1,6.323938966E-1,-6.175785065E-1,-2.987081766E0
1.620431742E1,8.017717600E-1,-9.184503555E-1,-3.724948406E0
1.622221201E1,7.062963247E-1,-1.202986717E0,-3.395124912E0
1.624010642E1,1.103750110E0,-1.200369835E0,-2.449234962E0
1.625800425E1,2.057947874E0,-1.225701332E0,-2.277496815E0
1.627589572E1,2.343442917E0,-1.668024063E0,-3.332729340E0
1.629378959E1,1.508359432E0,-2.911471367E0,-3.740643501E0
1.631166892E1,1.051898241E0,-4.746554375E0,-1.801372766E0
1.632957938E1,1.018878579E0,-5.439461708E0,5.566644669E-2
1.634747751E1,2.529909015E-1,-3.153672218E0,8.754513264E-1
1.636536838E1,-5.854570866E-1,-9.208831787E-1,7.319026589E-1
1.638326596E1,-1.271851063E0,-5.144052505E-1,-6.353158951E-1
1.640115750E1,-1.712380767E0,-8.928861618E-1,-1.067572594E0
1.641905204E1,-3.130594194E-1,-1.915653229E0,7.085658312E-1
1.643694657E1,1.380419850E0,-2.749582291E0,1.075015783E0
1.645484110E1,1.446434259E0,-3.266197205E0,-6.720347404E-1
1.647273648E1,7.149719596E-1,-3.049541473E0,-1.190723896E0
1.649063022E1,-6.329109073E-1,-2.657657623E0,-3.238394260E-1
1.650852768E1,-1.286230087E0,-4.693937302E-1,7.180141211E-1
1.652641947E1,-1.443281889E0,4.353294373E-1,1.063257575E0
1.654431870E1,-1.056401014E0,1.575286865E0,2.482483625E0
1.656220835E1,-1.407691479E0,2.576004982E0,3.759882927E0
1.658008829E1,-2.652462959E0,2.305782795E0,3.682383060E0
1.659799765E1,-2.719046831E0,2.351523399E0,3.686622620E0
1.661589182E1,-2.034555435E0,2.397777081E0,3.427466869E0
1.663378696E1,-1.252239466E0,2.191646576E0,2.513014793E0
1.665166904E1,-4.116730690E-1,2.425757408E0,1.803781986E0
1.666957279E1,-5.895789862E-1,3.039066792E0,2.138577461E0
1.668746860E1,-1.272616267E0,3.339201927E0,2.705135822E0
1.670536136E1,-1.535841584E0,3.310193062E0,2.784661293E0
1.672325931E1,-1.335219622E0,3.257622719E0,2.106673956E0
1.674115390E1,-1.009219289E0,2.645275593E0,3.886494637E-1
1.675904868E1,2.389113903E-1,1.342702866E0,-1.688223362E0
1.677694291E1,1.786701322E0,-1.313763618E0,-4.825916290E0
1.679484208E1,3.514183044E0,-4.079942703E0,-7.338287354E0
1.681272025E1,5.359944344E0,-3.863121986E0,-6.321767807E0
1.683062931E1,5.228221416E0,-1.112881660E0,-3.821657181E0
1.684852420E1,4.060904980E0,2.249506950E0,-8.329393864E-1
1.686641581E1,2.605992794E0,4.142099380E0,1.343469620E0
1.688431034E1,1.723523378E0,1.180085182E0,1.710074186E0
1.690220462E1,-3.533319235E-1,-6.226353645E0,4.136079788E0
1.692009909E1,-1.996917725E0,-1.180875587E1,3.840138197E0
1.693799393E1,-1.681959033E0,-1.066083622E1,-1.078932476E1
1.695588846E1,-3.089500904E0,-1.033878326E-2,-4.393241882E0
1.697378299E1,-5.522876740E0,4.519993305E0,3.249761105E0
1.699166910E1,-5.568304062E0,3.242985725E0,4.773737907E0
1.700956906E1,-4.264449596E0,1.453798771E0,7.206526756E0
1.702745505E1,-3.616480589E0,1.199427605E0,6.189817429E0
1.704535038E1,-2.720046520E0,3.547306061E-1,4.189939499E0
1.706324424E1,-1.136305809E0,-3.842382431E-1,2.674799919E0
1.708113822E1,6.620708108E-1,-2.042112350E-1,1.626912832E0
1.709903379E1,2.783493996E0,-5.234994888E-1,-1.933308840E-1
1.711693064E1,4.397871017E0,-1.264200211E-1,-2.780105352E0
1.713483683E1,3.555722475E0,1.100193977E0,-2.659271002E0
1.715272861E1,3.222360611E0,2.015360832E0,-8.883836269E-1
1.717062314E1,2.426137924E0,1.923090935E0,1.221466064E-2
1.718852030E1,9.380118251E-1,1.534958839E0,4.426229596E-1
1.720640897E1,4.874578118E-1,1.294081688E0,4.681694508E-1
1.722430674E1,3.212449253E-1,1.068977356E0,3.088971078E-1
1.724220096E1,3.424799740E-1,1.072301865E0,-5.107633770E-2
1.726009568E1,8.688063174E-2,1.240598679E0,-5.462681055E-1
1.727799027E1,-3.180842102E-2,1.618704796E0,-1.400968313E0
1.729588364E1,-1.696759760E-1,1.259891510E0,-2.255279064E0
1.731377964E1,-1.568672210E-1,-7.130336761E-2,-2.611326694E0
1.733166086E1,2.007078379E-1,-7.432899475E-1,-2.967294931E0
1.734956571E1,3.976540565E-1,-6.595640182E-1,-3.295280457E0
1.736746592E1,4.450803399E-1,-7.046346664E-1,-3.826326370E0
1.738535770E1,1.135734558E0,-1.089698792E0,-4.021759987E0
1.740325223E1,2.735884190E0,-1.683900833E0,-3.455579758E0
1.742114585E1,3.393370152E0,-2.202769279E0,-3.231552601E0
1.743904135E1,2.471132755E0,-2.920866013E0,-2.927103519E0
1.745693692E1,1.402910948E0,-4.141931534E0,-1.196613193E0
1.747483030E1,5.565172434E-1,-4.542121887E0,1.985471249E-1
1.749272513E1,-1.118111014E0,-2.695808411E0,5.844979286E-1
1.751061942E1,-1.409346700E0,-9.464969635E-1,1.934917569E-1
1.752851603E1,-1.727944613E0,-4.109592438E-1,5.055735111E-1
1.754641153E1,-1.082609296E0,-2.303587914E0,5.245468616E-1
1.756430326E1,4.790428877E-1,-2.830572128E0,1.268015385E0
1.758218582E1,1.471316099E0,-3.275732994E0,8.779518604E-1
1.760009226E1,1.208095908E0,-3.430044174E0,-1.241285205E0
1.761798685E1,5.228755474E-1,-3.591559410E0,-1.898195863E0
1.763588114E1,-6.564072967E-1,-2.512461662E0,-2.249212265E-1
1.765377591E1,-1.436122179E0,-3.673725128E-1,7.119394541E-1
1.767166904E1,-1.336317062E0,1.226124763E0,1.711161017E0
1.768956198E1,-1.157142043E0,2.101596832E0,2.905841112E0
1.770746213E1,-1.538451195E0,2.476844311E0,3.912738562E0
1.772535404E1,-1.954669595E0,2.881848335E0,4.131377697E0
1.774324564E1,-2.551402092E0,2.044485569E0,3.566252232E0
1.776114310E1,-1.945717812E0,2.428024292E0,3.381735802E0
1.777903757E1,-1.397843361E0,2.662476540E0,2.802373886E0
1.779693216E1,-1.260733366E0,2.628962517E0,2.249544382E0
1.781482669E1,-1.656201601E0,3.164900303E0,2.521979809E0
1.783271244E1,-2.184223890E0,3.722900867E0,2.784763575E0
1.785061582E1,-2.376684189E0,3.535612106E0,2.521946907E0
1.786851169E1,-2.435136795E0,3.042617798E0,1.554479361E0
1.788640506E1,-1.350234747E0,2.137223244E0,-5.209734440E-1
1.790429966E1,7.699112892E-1,6.328744888E-1,-3.827253342E0
1.792219382E1,2.458342075E0,-2.146328926E0,-5.458069801E0
1.794008860E1,2.424774408E0,-5.141926765E0,-5.919306755E0
1.795797599E1,3.769537210E0,-4.082459450E0,-6.762569427E0
1.797587778E1,6.131829739E0,-5.768775940E-2,-3.147555351E0
1.799376883E1,6.779496193E0,2.014424801E0,1.331494093E0
1.801166672E1,5.717864037E0,-1.487694740E0,3.036271572E0
1.802956150E1,2.840322018E0,-6.894663811E0,4.844046593E0
1.804745786E1,-3.725277185E-1,-8.858695030E0,2.608185291E0
1.806535038E1,-3.396153927E0,-5.757569313E0,-6.792061806E0
1.808324515E1,-5.221300125E0,1.061740875E0,-8.477061272E0
1.810113974E1,-5.874279976E0,3.649023056E0,2.020749092E0
1.811903421E1,-5.342891693E0,2.259963989E0,6.927448273E0
1.813692874E1,-4.341752529E0,5.977973938E-1,7.235837936E0
1.815482328E1,-4.119892597E0,7.691268921E-1,5.794434071E0
1.817271781E1,-2.676919460E0,8.777999878E-2,3.391136169E0
1.819061234E1,-4.148108959E-1,6.685161591E-2,2.343666792E0
1.820850956E1,1.089173317E0,-1.951522827E-1,1.686021209E0
1.822640140E1,2.751800537E0,8.749866486E-2,2.954517603E-1
1.824429587E1,4.012626171E0,7.698621750E-1,-2.398711205E0
1.826219046E1,3.440505981E0,1.763100624E0,-2.008176327E0
1.828007669E1,3.040327311E0,2.142345905E0,-9.186140895E-1
1.829796952E1,2.190793753E0,1.977218151E0,-4.413201809E-1
1.831586307E1,1.069657803E0,1.474524498E0,1.640197635E-1
1.833375778E1,7.664089203E-1,1.231019020E0,4.456782341E-2
1.835165164E1,6.015058756E-1,9.798154831E-1,1.265590489E-1
1.836955051E1,4.605096579E-2,1.132569313E0,1.830045879E-2
1.838745554E1,-5.524289608E-1,1.227254868E0,-5.719746351E-1
1.840534696E1,-7.564107776E-1,1.237849236E0,-1.283885717E0
1.842324173E1,-4.846816659E-1,1.003683090E0,-1.350470543E0
1.844113608E1,-2.957438231E-1,1.811971664E-1,-1.839171648E0
1.845901725E1,2.229741067E-1,-1.058182716E0,-3.006334305E0
1.847691410E1,4.310694337E-1,-1.452614784E0,-3.809895039E0
1.849481162E1,1.018961191E0,-1.474832535E0,-3.611361504E0
1.851271378E1,2.002289295E0,-1.219487190E0,-2.747116327E0
1.853060013E1,3.048321009E0,-9.497509003E-1,-2.668726444E0
1.854849576E1,3.238905430E0,-1.335647583E0,-3.555787563E0
1.856638834E1,2.306117296E0,-2.400009155E0,-3.631039619E0
1.858428226E1,1.325167894E0,-4.229764938E0,-1.022145271E0
1.860217704E1,5.506911278E-1,-4.691605568E0,1.406113744E0
1.862007132E1,-4.604163468E-1,-2.706063271E0,1.374606490E0
1.863796805E1,-1.337383389E0,-9.494791031E-1,-1.066597104E-1
1.865585965E1,-2.938783646E0,-7.077207565E-1,-2.040600538E0
1.867375626E1,-1.700845957E0,-2.411179543E0,-4.306828976E-1
1.869164994E1,5.436282158E-1,-3.169815063E0,1.864177704E0
1.870954599E1,2.338644266E0,-2.518532753E0,3.506764174E-1
1.872743857E1,2.169139862E0,-2.411320686E0,-1.294026732E0
1.874533658E1,7.902803421E-1,-2.617923737E0,-8.195222616E-1
1.876322861E1,-8.466646671E-1,-2.296978951E0,4.107186794E-1
1.878112186E1,-1.267826557E0,-4.496641159E-1,7.790461779E-1
1.879902738E1,-9.702177644E-1,9.010906219E-1,1.435504079E0
1.881692191E1,-9.481365085E-1,1.150787354E0,2.464239359E0
1.883481620E1,-1.650138855E0,1.662145138E0,3.149138927E0
1.885269901E1,-1.949505568E0,2.658508301E0,3.630229235E0
1.887060550E1,-2.403299570E0,2.924437523E0,3.677971840E0
1.888850278E1,-2.215460062E0,3.016220570E0,3.240891933E0
1.890639457E1,-1.836044431E0,2.518116951E0,2.367246628E0
1.892428574E1,-1.284087300E0,1.991616249E0,1.836917639E0
1.894218344E1,-1.145169377E0,2.441936493E0,2.369156837E0
1.896007816E1,-1.476689458E0,3.347151756E0,2.773784161E0
1.897797678E1,-1.636221886E0,3.826575279E0,2.450212002E0
1.899586716E1,-1.441787004E0,3.232507706E0,1.494911194E0
1.901376175E1,-1.041307449E0,2.098826408E0,-5.767107010E-1
1.903165744E1,-4.261207581E-2,1.100742817E0,-3.395582438E0
1.904954782E1,1.578278542E0,-7.386312485E-1,-6.023092270E0
1.906744840E1,3.313871145E0,-2.982366562E0,-6.918919563E0
1.908534012E1,4.353962421E0,-2.921104431E0,-5.907427311E0
1.910323459E1,4.553531170E0,-4.143848419E-1,-3.542825699E0
1.912112918E1,3.881162643E0,2.178253651E0,1.186296940E0
1.913900449E1,2.958603382E0,1.231437683E0,2.549776554E0
1.915691855E1,1.999449372E0,-4.622010231E0,1.479838133E0
1.917481272E1,-7.671944499E-1,-9.730368614E0,3.939697266E0
1.919270731E1,-1.905552387E0,-7.792002678E0,5.482134819E-1
1.921060190E1,-3.482723236E0,-3.424132347E0,-1.258345318E1
1.922849961E1,-4.546876431E0,2.144874573E0,-3.353369236E0
1.924639121E1,-4.578785896E0,2.161631584E0,3.742182255E0
1.926428568E1,-3.670840263E0,9.800882339E-1,7.070143700E0
1.928218314E1,-3.844002247E0,1.093757629E0,6.801265717E0
1.930007468E1,-3.848801851E0,8.689880371E-1,5.457478523E0
1.931796946E1,-2.139015913E0,1.751050949E-1,3.751182556E0
1.933586380E1,-2.133957148E-1,4.237651825E-2,2.843017817E0
1.935375852E1,7.400723100E-1,-2.059173584E-2,2.289046526E0
1.937165317E1,1.633854151E0,-3.833208084E-1,1.498805881E0
1.938954465E1,2.499561071E0,2.836303711E-1,4.159126282E-1
1.940743967E1,2.552513361E0,1.291845322E0,-2.163908005E0
1.942533670E1,2.420399427E0,1.739638329E0,-3.183538675E0
1.944323148E1,2.273895741E0,1.759584427E0,-2.045901775E0
1.946112570E1,1.536865234E0,1.479364395E0,-1.079624295E0
1.947902005E1,9.490913153E-1,1.119375229E0,-2.972961068E-1
1.949691483E1,3.217024207E-1,1.342639923E0,1.935245097E-2
1.951480552E1,2.417382598E-2,1.334849358E0,1.212704331E-1
1.953270706E1,-6.074601412E-2,1.518851280E0,-8.759390116E-1
1.955059873E1,-6.565650553E-2,1.375872612E0,-2.102819920E0
1.956849619E1,-1.046636701E-1,8.162498474E-2,-2.641294479E0
1.958638779E1,4.750298709E-2,-1.039257050E0,-3.348646402E0
1.960426688E1,4.408476949E-1,-1.181753159E0,-3.581658602E0
1.962217655E1,8.619495630E-1,-1.027618408E0,-3.271381378E0
1.964006827E1,1.504016399E0,-5.387935638E-1,-2.922410965E0
1.965796616E1,2.391076326E0,-5.411214828E-1,-2.638956070E0
1.967586038E1,2.834878922E0,-1.073053360E0,-3.149067402E0
1.969375492E1,1.843185902E0,-2.192396164E0,-3.830970526E0
1.971164981E1,9.003586769E-1,-3.862944603E0,-2.158318043E0
1.972954117E1,1.395632625E-1,-5.051841736E0,-2.429723740E-3
1.974744248E1,-7.674834728E-1,-3.739134789E0,8.456728458E-1
1.976533329E1,-2.517049313E-1,-1.881663322E0,9.270942211E-2
1.978323105E1,-3.366360664E-1,-1.302468300E0,-6.725258231E-1
1.980112235E1,-7.740853429E-1,-2.082590103E0,-2.261123180E0
1.981901712E1,4.830354452E-2,-3.507834435E0,-1.384109020E0
1.983691172E1,9.897137880E-1,-2.622364998E0,1.244613886E0
1.985480619E1,9.171981812E-1,-1.693549156E0,1.322688580E0
1.987269028E1,1.094743013E0,-2.540311813E0,2.920448780E-2
1.989059525E1,-3.862977028E-3,-3.309748650E0,-2.835763693E-1
1.990849247E1,-1.038990736E0,-1.926958084E0,-5.921660662E-1
1.992638431E1,-1.210513234E0,-1.362800598E-2,3.751826286E-2
1.994427890E1,-1.326178074E0,1.132839203E0,2.086705208E0
1.996217496E1,-1.542708278E0,1.821210384E0,3.705512047E0
1.998006791E1,-1.811385274E0,2.572238445E0,4.390197277E0
1.999796268E1,-2.281007767E0,3.085240364E0,4.406602859E0
2.001585410E1,-2.754741192E0,3.296239853E0,4.142848492E0
2.003373789E1,-2.641618967E0,3.175279617E0,3.318920135E0
2.005164634E1,-1.680562615E0,2.737675190E0,2.054114342E0
2.006953751E1,-1.515041351E0,2.606463432E0,1.994553089E0
2.008743601E1,-1.495353818E0,3.233998299E0,2.581521988E0
2.010533005E1,-1.725288272E0,3.458497047E0,2.506690979E0
2.012321250E1,-1.477500081E0,3.221845150E0,1.833924770E0
2.014110428E1,-8.274388313E-1,2.305652142E0,1.934509277E-1
2.015900144E1,3.250917196E-1,6.802272797E-1,-3.376906395E0
2.017690830E1,2.455849886E0,-1.539603233E0,-5.812650204E0
2.019480277E1,4.241673470E0,-4.265895844E0,-7.667970657E0
2.021269730E1,4.679204941E0,-3.210593224E0,-6.775507927E0
2.023059189E1,3.639227390E0,5.716190338E-1,-2.369518280E0
2.024848941E1,1.519855738E0,3.625192642E0,7.565534115E-1
2.026637778E1,6.826783419E-1,3.555416107E0,1.655408859E0
2.028426383E1,1.067017317E0,-1.774557114E0,1.696481586E0
2.030215842E1,9.793317318E-2,-9.377922058E0,3.898492813E0
2.032005350E1,-2.068747282E-1,-1.135739136E1,5.715355873E-1
2.033794974E1,-2.261965275E0,-5.926066399E0,-9.574328423E0
2.035585587E1,-3.401219130E0,1.619842529E0,-2.675422430E0
2.037374832E1,-3.862328053E0,2.927859306E0,3.500346661E0
2.039164499E1,-3.621948719E0,2.062088013E0,6.984103203E0
2.040953714E1,-3.621757030E0,1.132294655E0,6.656583786E0
2.042743448E1,-2.886095047E0,7.028875351E-1,5.168113708E0
2.044532651E1,-1.184794426E0,4.430074692E-1,3.556217432E0
2.046322122E1,3.208180666E-1,-3.882884979E-2,2.169322968E0
2.048110385E1,2.099571705E0,-2.745513916E-1,9.679873586E-1
2.049901029E1,3.377767563E0,-5.800580978E-1,-4.187036753E-1
2.051689017E1,3.019631147E0,4.154968262E-1,-2.246962070E0
2.053479935E1,2.641956091E0,1.509280205E0,-1.819112778E0
2.055269394E1,2.028487206E0,2.167796612E0,-7.371438742E-1
2.057057962E1,1.188621163E0,2.349598885E0,8.509039879E-3
2.058847470E1,6.297014654E-2,1.748867989E0,3.319987655E-2
2.060636746E1,-4.342463017E-1,1.098868370E0,-2.501914501E-1
2.062426163E1,-2.465113252E-2,7.013044357E-1,-3.070432246E-1
2.064215720E1,3.512753546E-1,9.524068832E-1,-8.013435602E-1
2.066004966E1,6.970543265E-1,1.523150444E0,-1.059771776E0
2.067794425E1,3.868739009E-1,1.409642220E0,-1.459045529E0
2.069583957E1,2.018986046E-1,7.092628479E-1,-2.086466789E0
2.071373349E1,6.133064032E-1,-4.357261658E-1,-3.169480801E0
2.073162815E1,1.352751255E0,-5.669298172E-1,-4.245959759E0
2.074953141E1,1.740269423E0,-5.343770981E-1,-4.231301308E0
2.076741440E1,1.977768183E0,-7.082939148E-1,-3.127916098E0
2.078531125E1,2.267305851E0,-8.045578003E-1,-2.017692566E0
2.080320664E1,2.489422560E0,-9.562473297E-1,-1.933863282E0
2.082110135E1,1.749667406E0,-1.551846504E0,-3.329475880E0
2.083899857E1,6.202473044E-1,-2.680220604E0,-3.771838188E0
2.085690164E1,7.869772911E-1,-4.457396507E0,-1.569749832E0
2.087479587E1,3.691988289E-1,-3.506889343E0,1.358404040E0
2.089269046E1,-3.868260384E-1,-2.148348808E0,1.476281643E0
2.091058530E1,-8.778039217E-1,-1.352166176E0,-8.022430539E-1
2.092848276E1,-1.815014362E0,-2.760888100E0,-1.901970863E0
2.094637436E1,-5.342371464E-1,-4.668976784E0,3.007463813E-1
2.096426883E1,1.472678423E0,-3.956443787E0,1.695491552E0
2.098216336E1,2.315836191E0,-2.715525627E0,3.776979446E-2
2.100005790E1,2.302853107E0,-2.362616539E0,-7.140122652E-1
2.101794077E1,1.120581031E0,-2.774267197E0,7.456004620E-2
2.103584702E1,-5.532956123E-1,-1.855905533E0,2.924476862E-1
2.105374198E1,-1.308647394E0,-4.202938080E-2,3.366916180E-1
2.107163932E1,-1.179866672E0,1.554321766E0,1.979377031E0
2.108952780E1,-1.302301645E0,2.109129906E0,3.685085297E0
2.110742923E1,-1.918965578E0,2.537622929E0,4.754374504E0
2.112531986E1,-2.059426785E0,3.324213982E0,4.612609386E0
2.114321457E1,-2.407205582E0,3.563374519E0,4.257648468E0
2.116110916E1,-2.492344141E0,3.158565521E0,3.531723499E0
2.117899149E1,-2.188358784E0,2.394881248E0,1.973748207E0
2.119689829E1,-1.793291569E0,2.424869537E0,1.702183008E0
2.121479251E1,-1.539237499E0,2.972868919E0,2.415075064E0
2.123268753E1,-1.186597586E0,3.066402435E0,2.638618469E0
2.125058182E1,-5.889933705E-1,2.478595734E0,1.950984955E0
2.126846585E1,-6.144115925E-1,1.929114342E0,2.004647255E-1
2.128637113E1,1.052222252E-1,1.624189377E0,-2.410184860E0
2.130425345E1,1.682855129E0,2.372283936E-1,-5.534412384E0
2.132216019E1,4.223733425E0,-1.906393051E0,-6.720710754E0
2.134005472E1,5.202207565E0,-3.126337051E0,-5.801086426E0
2.135795249E1,4.424143791E0,-1.745085716E0,-4.018941402E0
2.137584360E1,3.258041859E0,1.348028660E0,6.104323864E-1
2.139373856E1,2.221448421E0,2.474337578E0,2.306761265E0
2.141163315E1,2.673254967E0,-1.931506157E0,-2.247078419E-1
2.142952536E1,1.231942177E0,-8.804994583E0,2.913889408E0
2.144741178E1,-1.038568258E0,-8.840295792E0,3.464777708E0
2.146531668E1,-2.961158276E0,-5.630867958E0,-6.990839005E0
2.148321152E1,-3.963282585E0,9.603042603E-1,-7.513401031E0
2.150110581E1,-5.140983582E0,3.172101974E0,1.412082911E0
2.151899314E1,-4.832205296E0,1.072524071E0,6.316176414E0
2.153689505E1,-4.138376236E0,2.466506958E-1,6.760694504E0
2.155478940E1,-3.482457161E0,1.259588242E0,5.502133369E0
2.157268412E1,-1.910079956E0,1.697466850E0,4.079936981E0
2.159057871E1,-6.457257867E-1,6.132478714E-1,3.221435785E0
2.160847495E1,6.606714725E-1,-5.457811356E-1,2.752310276E0
2.162636771E1,2.078450680E0,-9.170207977E-1,2.231476784E0
2.164426566E1,2.814885616E0,-2.325963974E-1,6.939058304E-1
2.166214579E1,3.520092010E0,1.471364021E0,-3.300749302E0
2.168003757E1,2.833381176E0,2.115266800E0,-2.927012444E0
2.169794638E1,2.409835339E0,1.660540581E0,-1.496294737E0
2.171584055E1,9.880759120E-1,1.058072090E0,-8.813778162E-1
2.173373252E1,2.996256053E-1,8.555622101E-1,-1.126531005E0
2.175162998E1,2.619308829E-1,1.417213440E0,-8.100309372E-1
2.176951084E1,2.044266313E-1,1.219626427E0,-9.581661224E-2
2.178742148E1,2.207617313E-1,9.735593796E-1,-2.330264598E-1
2.180531345E1,2.032868117E-1,9.538574219E-1,-8.650487661E-1
2.182319644E1,2.142343819E-1,5.522603989E-1,-1.490029097E0
2.184109232E1,1.235052943E-3,7.387733459E-2,-2.431926489E0
2.185900400E1,1.831845790E-1,-1.755752563E-1,-3.618400335E0
2.187688224E1,2.633455992E-1,-5.431823730E-1,-4.347455978E0
2.189477420E1,4.779013991E-1,-8.168382645E-1,-4.445012569E0
2.191266953E1,1.299517512E0,-1.146535873E0,-3.699342251E0
2.193056583E1,2.534073114E0,-1.359691620E0,-2.946329594E0
2.194846115E1,3.278753519E0,-1.934782028E0,-3.109078407E0
2.196635715E1,2.306165218E0,-3.475482941E0,-1.570007086E0
2.198425107E1,1.082934618E0,-4.397308350E0,8.024293184E-1
2.200214469E1,-8.375278115E-2,-3.612073898E0,1.206510305E0
2.202003855E1,-5.459518433E-1,-2.156016350E0,-2.132654190E-2
2.203793210E1,-6.035752892E-1,-4.622735977E-1,-1.304912329E0
2.205582926E1,-4.307946563E-1,-2.609045982E0,-2.137721300E0
2.207372019E1,7.781424522E-1,-4.720390320E0,3.030727506E-1
2.209161753E1,1.359508991E0,-3.880740166E0,1.287453175E0
2.210951206E1,1.162979603E0,-2.522485733E0,2.010340691E-1
2.212740500E1,8.107363582E-1,-2.344436646E0,-6.548601389E-1
2.214531009E1,-4.598268867E-1,-1.570844650E0,-7.749283314E-2
2.216320487E1,-1.616351604E0,-6.541919708E-1,2.737238407E-1
2.218109934E1,-1.419651747E0,4.389371872E-1,1.223953605E0
2.219899411E1,-1.002345562E0,1.430525780E0,2.772594690E0
2.221688840E1,-1.260869503E0,1.991218090E0,3.888929605E0
2.223478299E1,-1.526809216E0,2.991433620E0,4.392813683E0
2.225267771E1,-2.096642017E0,3.434421062E0,4.373007774E0
2.227057498E1,-2.891127110E0,2.641681671E0,3.795418024E0
2.228846988E1,-1.851488829E0,2.727967262E0,2.629346848E0
2.230636136E1,-1.127528548E0,2.456180096E0,1.646656036E0
2.232425614E1,-7.575518489E-1,2.680831909E0,2.131620407E0
2.234215042E1,-1.329477072E0,3.426174641E0,2.900446892E0
2.236003708E1,-1.641650558E0,3.862874508E0,2.700554371E0
2.237793973E1,-1.561621666E0,3.281635761E0,1.941265583E0
2.239583402E1,-1.127249360E0,2.107239246E0,-9.770894051E-2
2.241372910E1,-7.199823856E-2,5.252094269E-1,-3.653377295E0
2.243162308E1,1.492501974E0,-1.759448051E0,-6.463594437E0
2.244951725E1,3.196406841E0,-4.079853058E0,-7.136054993E0
2.246741312E1,4.243061066E0,-3.639280319E0,-6.483014107E0
2.248529496E1,3.709276199E0,-3.169059753E-1,-4.250134468E0
2.250320163E1,3.046726227E0,3.098689079E0,9.482836723E-2
2.252109439E1,2.910441875E0,3.138986111E0,1.609378815E0
2.253899076E1,3.120110512E0,-2.168272018E0,1.191068888E0
2.255688529E1,4.955416918E-1,-7.184386253E0,5.194889545E0
2.257478049E1,-1.974310637E0,-9.465661049E0,3.154917479E0
2.259267459E1,-3.640396357E0,-9.233494759E0,-1.421882248E1
2.261055435E1,-4.866849899E0,8.055925369E-1,-2.597374201E0
2.262846848E1,-5.922976017E0,3.560535431E0,4.507184029E0
2.264635837E1,-4.981647968E0,1.728818893E0,6.593041420E0
2.266425272E1,-3.726150036E0,1.618014336E0,5.896275997E0
2.268215024E1,-3.221173286E0,1.496784210E0,4.926800251E0
2.270004477E1,-1.497585654E0,1.450033188E-1,3.873472214E0
2.271792777E1,1.534368992E-1,-6.581115723E-1,2.775005341E0
2.273582993E1,1.715669155E0,-1.490019798E0,2.304602146E0
2.275372550E1,2.461702585E0,-1.200041771E0,1.897339821E0
2.277162308E1,3.129333735E0,5.403223038E-1,1.737180948E-1
2.278951358E1,2.737843752E0,2.710813046E0,-4.134902954E0
2.280741318E1,2.032046795E0,2.793375015E0,-3.320213318E0
2.282530399E1,1.440512657E0,1.425437927E0,-1.616091490E0
2.284319852E1,6.482844353E-1,6.124563217E-1,-1.622757316E-1
2.286109305E1,-6.418170929E-1,3.594284058E-1,1.039937586E-1
2.287898758E1,-3.059936762E-1,1.003523827E0,-8.464028239E-1
2.289688211E1,1.320657134E-1,1.602022171E0,-1.280950189E0
2.291477579E1,8.111351728E-1,1.625006676E0,-1.543906569E0
2.293267142E1,1.127549291E0,1.197519302E0,-9.892164469E-1
2.295056607E1,1.149515629E0,9.001369476E-1,-1.143628359E0
2.296846433E1,9.092305303E-1,3.507862091E-1,-2.338152885E0
2.298635532E1,2.463614196E-1,-2.576818466E-1,-3.975596428E0
2.300424973E1,-3.270381391E-1,-5.232343674E-1,-5.464240551E0
2.302214725E1,-3.003574014E-1,-8.150081635E-1,-5.391949654E0
2.304003745E1,1.167834759E0,-1.379631996E0,-3.840268850E0
2.305793338E1,2.198099852E0,-1.721143723E0,-2.561709881E0
2.307582785E1,1.769661427E0,-1.772385597E0,-2.906772137E0
2.309372269E1,8.020808697E-1,-2.426566124E0,-1.638195515E0
2.311161740E1,6.471478939E-1,-3.548822403E0,1.975206137E-1
2.312950418E1,7.320845127E-2,-2.226585388E0,6.520794630E-1
2.314740946E1,-5.993243456E-1,-1.506317139E0,-6.631494164E-1
2.316530088E1,-1.111617327E0,-2.134202957E0,-7.082851529E-1
2.318319553E1,2.545396090E-1,-4.841484070E0,1.086204052E0
2.320109018E1,2.932353497E0,-5.183512688E0,2.170307875E0
2.321898764E1,4.326126575E0,-3.378140450E0,6.382580400E-1
2.323687912E1,3.224353075E0,-2.612360001E0,-1.297225118E0
2.325477372E1,1.052056074E0,-2.665603638E0,-6.294684410E-1
2.327266818E1,-5.935555696E-1,-2.080036163E0,4.772874117E-1
2.329056601E1,-1.914339423E0,-5.476551056E-1,8.299841881E-1
2.330846060E1,-1.898939371E0,4.905023575E-1,1.440193176E0
2.332635208E1,-1.712796450E0,1.197609901E0,2.613725185E0
2.334424668E1,-2.142159939E0,2.352328777E0,3.478146315E0
2.336214139E1,-2.618289232E0,3.164100170E0,4.023509979E0
2.338002402E1,-3.056363106E0,3.086385727E0,4.389791012E0
2.339793015E1,-2.772769928E0,2.501683235E0,3.765505552E0
2.341582505E1,-1.791192412E0,2.348189831E0,2.639804602E0
2.343371946E1,-8.344475627E-1,2.295528412E0,2.403565884E0
2.345161411E1,-4.538069367E-1,2.790558815E0,2.942177534E0
2.346950907E1,-4.157714248E-1,2.847127438E0,2.824035406E0
2.348740586E1,-7.727460861E-1,2.561582565E0,1.667967319E0
2.350528330E1,-1.020121932E0,2.363166809E0,-3.496026993E-2
2.352318094E1,-9.138382077E-1,1.795860767E0,-1.873499870E0
2.354107511E1,3.403115869E-1,5.680198669E-1,-3.962452888E0
2.355897574E1,2.846491098E0,-1.025464058E0,-6.139642715E0
2.357686447E1,5.242638588E0,-2.318290710E0,-6.148168087E0
2.359477048E1,4.766172886E0,-1.952645302E0,-3.203978539E0
2.361265067E1,2.479692459E0,-1.242036819E-1,5.186719894E-1
2.363055021E1,9.473323822E-2,1.736398220E0,1.759919643E0
2.364844181E1,-1.413051605E0,4.514446259E-1,-5.058412552E-1
2.366633817E1,-1.864509940E0,-3.191699028E0,-6.229805946E0
2.368423453E1,-9.044415951E-1,-5.532041550E0,-3.905477524E-1
2.370212674E1,-6.765744090E-1,-5.434019089E0,4.390810966E0
2.372003275E1,-2.008353233E0,-4.549858093E0,-5.341100693E-1
2.373792752E1,-1.464813948E0,-6.626749039E-1,-2.062766552E-1
2.375582175E1,-1.137316465E0,1.128871918E0,3.749166965E0
2.377371970E1,-1.657276869E0,1.081340790E0,5.312985420E0
2.379161106E1,-2.210048914E0,1.070228577E0,4.802386761E0
2.380950614E1,-2.551374912E0,1.139345169E0,4.198919296E0
2.382740219E1,-1.665443659E0,4.915952682E-1,3.153851748E0
2.384529172E1,-7.470200658E-1,-6.076068878E-1,9.919915199E-1
2.386318949E1,1.090429544E0,-8.004770279E-1,-5.259025097E-1
2.388108402E1,1.932173610E0,-4.383430481E-1,-3.158386946E-1
2.389898154E1,1.703367472E0,4.048910141E-1,-2.622689009E-1
2.391687339E1,1.278184414E0,1.350719452E0,-5.004292727E-1
2.393476755E1,1.221812248E0,2.144354343E0,-8.196901083E-1
2.395266239E1,1.118953466E0,2.545162201E0,-1.113283157E0
2.397055692E1,1.333551049E0,2.207035065E0,-6.040530801E-1
2.398845334E1,1.252390504E0,1.237504959E0,-9.654068947E-2
2.400634592E1,1.387162805E0,8.419790268E-1,-3.846768439E-1
2.402424076E1,1.350617647E0,1.146481514E0,-1.154057384E0
2.404213523E1,6.757630110E-1,1.152338982E0,-1.417380929E0
2.406003281E1,3.984546959E-1,1.244039536E0,-1.543448091E0
2.407792429E1,3.062098622E-1,1.058322906E0,-1.841552496E0
2.409581601E1,4.077510238E-1,4.234590530E-1,-2.396662712E0
2.411370206E1,5.559914708E-1,9.806251526E-2,-2.759702206E0
2.413159659E1,3.262059391E-1,-3.666973114E-2,-2.454654694E0
2.414949076E1,3.262337148E-1,-4.148426056E-1,-1.818862557E0
2.416738706E1,6.152267456E-1,-9.478559494E-1,-1.625823975E0
2.418528147E1,1.488516808E0,-1.582201004E0,-1.913576365E0
2.420318564E1,2.294059277E0,-2.122113228E0,-2.824341059E0
2.422106919E1,2.091364622E0,-2.438394547E0,-4.270407200E0
2.423896585E1,1.142662406E0,-3.411608696E0,-4.044797897E0
2.425685935E1,6.439921856E-1,-4.415002823E0,-2.070739269E0
2.427475333E1,1.620264798E-1,-4.514143944E0,-7.405459881E-1
2.429264884E1,-4.895514548E-1,-1.898612976E0,-4.320488572E-1
2.431054197E1,-1.448366493E-1,-7.073497772E-1,-1.031140566E0
2.432843845E1,7.647142410E-1,-6.417541504E-1,-2.353420854E-1
2.434633164E1,1.717537344E-1,-1.802105904E0,-1.061025381E0
2.436422739E1,1.579678178E0,-2.907793999E0,2.116618156E-1
2.438212137E1,1.333320856E0,-3.105251312E0,1.185658693E0
2.440001584E1,7.237871289E-1,-2.611358643E0,-1.174231768E-1
2.441791227E1,1.358510256E-1,-2.205325127E0,-6.065889597E-1
2.443580692E1,-7.969345450E-1,-1.408440590E0,-4.732483625E-1
2.445369974E1,-1.540333033E0,-5.176353455E-2,-8.272147179E-2
2.447159598E1,-1.652538538E0,6.701078415E-1,1.123314381E0
2.448949064E1,-1.109611034E0,1.916372776E0,2.830723524E0
2.450738443E1,-1.506414533E0,2.314079285E0,4.121426582E0
2.452528067E1,-1.812424660E0,2.770499229E0,4.850427151E0
2.454318015E1,-1.719345927E0,2.302494526E0,3.876264095E0
2.456106845E1,-1.325871825E0,1.428965092E0,2.200055122E0
2.457896128E1,-4.694968462E-1,1.563738346E0,1.121659756E0
2.459685477E1,-8.825040460E-1,2.495579720E0,1.615294933E0
2.461475162E1,-1.133199692E0,3.258364677E0,2.550185680E0
2.463264634E1,-1.932210207E0,3.790214539E0,3.422094822E0
2.465054251E1,-2.452024221E0,4.492066860E0,3.342113495E0
2.466844876E1,-2.119368315E0,4.212193966E0,2.349959135E0
2.468634049E1,-1.144868374E0,2.695757866E0,2.284531593E-1
2.470423246E1,4.860886335E-1,6.473474503E-1,-3.226682663E0
2.472212949E1,2.342826843E0,-2.603960991E0,-7.038142681E0
2.474002420E1,3.236385584E0,-5.815179825E0,-9.309267998E0
2.475791880E1,4.646121979E0,-5.199266434E0,-7.774779797E0
2.477581424E1,3.644924641E0,-8.570270538E-1,-2.425294876E0
2.479370780E1,2.285196781E0,1.277989388E0,8.616209030E-3
2.481160147E1,2.266646624E0,-1.321844101E0,-8.119897842E-1
2.482949295E1,1.127817273E0,-4.480947495E0,4.386860847E0
2.484739554E1,-9.679557085E-1,-3.142430305E0,5.519749641E0
2.486528623E1,-3.779020786E0,-2.048120499E0,-7.745649815E-1
2.488318088E1,-5.449066162E0,-1.850031853E0,-1.044347954E1
2.490107547E1,-4.363909721E0,3.027381897E-1,1.490667343E0
2.491897006E1,-2.818821907E0,2.308473587E-1,6.903900623E0
2.493686460E1,-2.816615582E0,4.618186951E-1,6.305016041E0
2.495475913E1,-2.471400499E0,9.787759781E-1,4.711372375E0
2.497265384E1,-8.156769872E-1,6.465682983E-1,3.010858774E0
2.499054837E1,1.033808112E0,4.024915695E-1,1.313129306E0
2.500844657E1,3.164187193E0,-1.277799606E-1,4.290026426E-1
2.502634061E1,3.786936045E0,-2.906646729E-1,3.883032799E-1
2.504423093E1,3.963742256E0,2.999000549E-1,-8.544921875E-4
2.506212650E1,3.085348129E0,1.271044731E0,-4.373707771E-1
2.508002127E1,1.770196319E0,2.220548630E0,-8.888633847E-1
2.509790793E1,6.955424547E-1,2.155499458E0,-8.464595079E-1
2.511579630E1,-2.280850708E-2,1.720640182E0,-6.891319156E-1
2.513370505E1,-2.839298546E-1,1.071771622E0,-5.105276108E-1
2.515159964E1,-3.824357688E-1,8.253993988E-1,-6.250442266E-1
2.516949625E1,-2.812766433E-1,9.293184280E-1,-7.833545804E-1
2.518739206E1,-9.949946404E-2,1.139082909E0,-8.781626821E-1
2.520528348E1,1.551171988E-1,1.113323212E0,-1.240329146E0
2.522317807E1,6.515660882E-1,3.718500137E-1,-1.494673848E0
2.524107230E1,1.263727903E0,-1.058063507E-1,-2.046898127E0
2.525896213E1,1.323539734E0,-1.009988785E-1,-2.936942816E0
2.527686185E1,8.598428369E-1,-1.606264114E-1,-3.724658012E0
2.529474417E1,7.014304399E-1,-7.639284134E-1,-3.944168568E0
2.531265091E1,1.478350282E0,-1.312362671E0,-3.600350857E0
2.533054575E1,2.433582067E0,-1.732076645E0,-3.574085236E0
2.534844315E1,2.541055679E0,-2.415126801E0,-3.291829586E0
2.536633481E1,2.168695927E0,-3.500332832E0,-1.262429953E0
2.538423252E1,2.095957279E0,-3.959492683E0,1.151505351E0
2.540212387E1,-7.729363441E-2,-2.611306190E0,2.203034639E0
2.542001926E1,-6.204081774E-1,-1.175887108E0,-3.344192505E-1
2.543791318E1,-4.426156282E-1,-1.311954498E0,-2.979192495E0
2.545580741E1,-9.984263778E-1,-4.494020462E0,-1.767083406E0
2.547370243E1,8.769023418E-1,-4.521499634E0,1.270422101E0
2.549159824E1,1.093614578E0,-3.301172256E0,1.119161487E0
2.550948990E1,8.204218149E-1,-2.544691086E0,-6.566870213E-2
2.552738901E1,1.352813244E-1,-2.280601501E0,1.510351896E-1
2.554528055E1,-8.206076622E-1,-1.386300087E0,3.393458128E-1
2.556317533E1,-9.466981292E-1,-1.127939224E-1,3.650021553E-2
2.558106986E1,-5.057762861E-1,4.823465347E-1,1.064506054E0
2.559895572E1,-2.498295307E-1,7.455797195E-1,3.306325912E0
2.561685923E1,-5.274369717E-1,2.036777020E0,4.309958458E0
2.563475351E1,-1.400227189E0,2.827507019E0,4.321479797E0
2.565264823E1,-1.780032039E0,3.426981926E0,4.079738617E0
2.567054282E1,-2.202138901E0,3.298450470E0,3.819709778E0
2.568844034E1,-2.275272846E0,2.935136318E0,2.827006817E0
2.570633182E1,-1.719517112E0,2.641345501E0,1.609535217E0
2.572422666E1,-1.494260311E0,2.816107750E0,2.259841681E0
2.574211789E1,-1.609596848E0,3.074463844E0,2.936721563E0
2.576001590E1,-1.645065427E0,3.031126022E0,2.394795418E0
2.577791007E1,-1.240835905E0,2.889060020E0,9.246897697E-1
2.579580497E1,-4.503599405E-1,2.423045635E0,-1.371969461E0
2.581369956E1,1.114749312E0,1.093370438E0,-4.053485394E0
2.583159403E1,2.804018497E0,-1.482187271E0,-6.294361115E0
2.584948795E1,4.297827244E0,-4.098164558E0,-6.761857033E0
2.586738498E1,4.802012444E0,-3.208420753E0,-6.386573792E0
2.588527793E1,5.161117077E0,1.093940735E-1,-3.538558483E0
2.590317270E1,4.713209152E0,3.081330299E0,1.346588135E0
2.592105918E1,3.786046028E0,1.031635284E0,1.884940386E0
2.593894895E1,1.649851680E0,-6.281677246E0,3.217010021E0
2.595685654E1,-6.409927011E-1,-9.798887253E0,4.415216446E0
2.597474778E1,-1.985668540E0,-6.142075539E0,7.163839340E-1
2.599264530E1,-4.622362137E0,-2.058404922E0,-1.469844437E1
2.601054007E1,-5.851511478E0,3.255315304E0,-3.287517548E0
2.602843674E1,-6.489215374E0,2.732820511E0,5.610375404E0
2.604632944E1,-4.791724682E0,1.208897591E0,7.841394424E0
2.606422391E1,-3.667222500E0,1.339884758E0,6.739899635E0
2.608211850E1,-3.037695885E0,5.288534164E-1,5.732403278E0
2.610001615E1,-1.038082957E0,-5.588750839E-1,4.003046513E0
2.611790787E1,8.248763084E-1,-1.476533890E0,2.553331852E0
2.613580204E1,2.295546055E0,-1.585501671E0,1.476043224E0
2.615369681E1,3.419476986E0,-4.961843491E-1,4.325985909E-2
2.617158872E1,5.321642876E0,1.232308388E0,-2.903553009E0
2.618948606E1,4.314713001E0,1.729783058E0,-2.587678671E0
2.620738370E1,2.755277872E0,1.235323906E0,-1.471060395E0
2.622527548E1,9.156688452E-1,8.391523361E-1,-3.854098916E-1
2.624317002E1,-3.929030299E-1,6.164245605E-1,2.142432630E-1
2.626106437E1,-8.602180481E-1,6.128120422E-1,3.413046598E-1
2.627895877E1,-9.715352058E-1,8.157920837E-1,-1.337296069E-1
2.629685379E1,-6.369811296E-1,9.809942245E-1,-9.759409428E-1
2.631474509E1,-3.359596133E-1,1.544632912E0,-2.173413515E0
2.633264292E1,1.871769279E-1,1.737386703E0,-2.634679317E0
2.635053751E1,9.113025069E-1,1.346490860E0,-2.509782314E0
2.636843570E1,1.825052619E0,9.738283157E-1,-2.632769108E0
2.638632163E1,2.141161919E0,6.512165070E-1,-2.833722115E0
2.640420920E1,1.951605797E0,-6.045436859E-2,-2.985714912E0
2.642210385E1,1.749789238E0,-7.809667587E-1,-2.727054834E0
2.643999955E1,2.080052853E0,-1.315958977E0,-2.586168766E0
2.645789347E1,2.195955276E0,-2.183062553E0,-2.957634449E0
2.647579929E1,1.493023872E0,-3.864901543E0,-2.501828194E0
2.649369412E1,8.453111053E-1,-5.591304779E0,-1.271747112E0
2.651158890E1,-6.245231628E-1,-5.185009003E0,8.476364613E-2
2.652948044E1,-2.098109007E0,-2.990190506E0,4.709881544E-1
2.654737845E1,-1.449755073E0,-1.763755798E0,-7.526692748E-1
2.656527280E1,-1.070253253E0,-5.735406876E-1,-7.294651270E-1
2.658316727E1,-8.050510883E-1,-2.893085480E0,-1.227577209E0
2.660106473E1,-4.591953754E-2,-3.100437164E0,-2.306498289E-1
2.661895664E1,-6.174808741E-1,-1.838189125E0,2.249466181E-1
2.663685111E1,-6.440197825E-1,-1.436448097E0,-4.798102379E-2
2.665474540E1,-9.331898093E-1,-1.474400520E0,1.653918028E-1
2.667264017E1,-1.333579183E0,-1.525422096E0,3.771899939E-1
2.669053470E1,-1.246643543E0,-9.329137802E-1,2.553089857E-1
2.670843247E1,-3.549883366E-1,7.526779175E-1,1.006662250E0
2.672632401E1,-5.451485515E-1,2.215982437E0,2.582043409E0
2.674422037E1,-1.544875383E0,2.768488884E0,3.732955456E0
2.676211332E1,-1.748328567E0,2.900126457E0,4.113562584E0
2.678000785E1,-1.902211905E0,2.654879570E0,3.794157505E0
2.679790238E1,-9.355623722E-1,2.472957611E0,3.001612663E0
2.681578916E1,-5.026484728E-1,2.312416553E0,2.043443203E0
2.683369175E1,-7.260693908E-1,2.555683136E0,1.881697178E0
2.685158628E1,-1.324209571E0,3.199907303E0,2.502623081E0
2.686947782E1,-1.648786902E0,3.685734272E0,2.682453632E0
2.688736417E1,-9.549766183E-1,3.578905106E0,1.990851879E0
2.690527005E1,9.231030941E-2,3.401036739E0,6.701328754E-1
2.692316214E1,3.447104692E-1,2.264826298E0,-1.547892094E0
2.694105912E1,6.621409655E-1,-1.317510605E-1,-4.969592571E0
2.695895395E1,1.183783054E0,-3.637928963E0,-7.905594826E0
2.697684842E1,4.242033482E0,-5.330553055E0,-8.466619492E0
2.699474301E1,6.415788174E0,-3.418940544E0,-7.332859039E0
2.701263773E1,5.743898869E0,-3.559112549E-3,-1.699892282E0
2.703053226E1,4.053008556E0,-6.433639526E-1,1.641429663E0
2.704843003E1,2.073497772E0,-4.585476875E0,4.539826393E0
2.706632138E1,-4.124081135E-2,-5.056262016E0,5.087641716E0
2.708421610E1,-3.044291496E0,-2.473237991E0,2.667375803E0
2.710211325E1,-7.179906845E0,-1.410305023E0,-1.229846954E1
2.711999515E1,-5.040313244E0,9.699048996E-1,-3.696355343E0
2.713788919E1,-3.469756365E0,8.540630341E-1,5.280072212E0
2.715578397E1,-3.228483200E0,1.330566406E-2,6.894495010E0
2.717367374E1,-3.216309547E0,5.529928207E-1,5.348997116E0
2.719157688E1,-1.939083099E0,7.043342590E-1,4.075869083E0
2.720947830E1,-4.768946767E-1,5.961523056E-1,3.645399809E0
2.722737290E1,7.269080877E-1,2.344131470E-1,3.148635387E0
2.724526761E1,1.906079888E0,1.054601669E-1,2.313028097E0
2.726316428E1,2.183471441E0,5.274572372E-1,1.126618862E0
2.728105661E1,2.599646568E0,8.164072037E-1,-5.026062727E-1
2.729893924E1,2.053344250E0,1.634355545E0,-3.889631987E0
2.731684598E1,1.483369350E0,1.752199173E0,-3.631141663E0
2.733472660E1,9.998830557E-1,1.235090256E0,-1.268210411E0
2.735263773E1,6.541991234E-1,8.903656006E-1,6.759196520E-3
2.737052689E1,1.089805067E-1,6.048736572E-1,-8.824111521E-2
2.738841513E1,1.065040380E-1,1.005033493E0,-6.562347412E-1
2.740631882E1,8.749008179E-3,1.486606598E0,-8.620800972E-1
2.742421347E1,-1.624061912E-1,1.514437675E0,-1.130421519E0
2.744210794E1,-2.519164979E-2,8.581647873E-1,-1.265885115E0
2.746000272E1,3.840003014E-1,2.034215927E-1,-1.498182774E0
2.747789725E1,7.129072547E-1,-3.138542175E-2,-2.373235941E0
2.749579178E1,8.114019632E-1,-1.660146713E-1,-3.530868530E0
2.751368930E1,8.383908272E-1,-9.128971100E-1,-4.417937756E0
2.753158115E1,1.550213456E0,-1.328172684E0,-4.727645397E0
2.754947336E1,3.050853252E0,-1.164316177E0,-4.325275421E0
2.756737040E1,3.562573433E0,-2.102787971E0,-3.445358753E0
2.758526499E1,3.056813955E0,-4.426710129E0,-1.612756491E0
2.760315964E1,1.464349985E0,-6.109841347E0,-2.617776394E-2
2.762105429E1,-6.571439505E-1,-4.885408401E0,1.383144975E0
2.763895035E1,-2.156582117E0,-2.158628464E0,2.449466228E0
2.765682871E1,-1.327872276E0,-1.422275543E0,6.607404947E-1
2.767472727E1,-1.359922886E-1,-1.280407906E0,-1.311162591E0
2.769262131E1,3.482624888E-1,-2.948148727E0,-2.461692810E0
2.771052225E1,2.739464939E-1,-2.836923599E0,-1.874821782E-1
2.772841245E1,-8.346478343E-1,-2.451544762E0,5.960751176E-1
2.774630765E1,-6.705448627E-1,-2.215885162E0,-5.713299513E-1
2.776420841E1,-4.019802213E-1,-1.649168968E0,-3.372408152E-1
2.778209476E1,-7.471817136E-1,-9.285573959E-1,2.304832935E-1
2.779998874E1,-5.870645046E-1,6.335592270E-1,6.296501160E-1
2.781788425E1,-1.737728119E-1,2.039564610E0,1.760916710E0
2.783578464E1,-8.136405945E-1,2.504846096E0,3.185834885E0
2.785367460E1,-1.739381790E0,2.607409000E0,3.907067060E0
2.787156626E1,-2.131319523E0,3.100145340E0,4.073822975E0
2.788946500E1,-1.706058025E0,3.330096245E0,3.840028763E0
2.790736032E1,-1.655300617E0,2.682950020E0,4.051838875E0
2.792525626E1,-1.164622545E0,2.076997757E0,3.919529915E0
2.794314572E1,-2.274036407E-1,1.880352020E0,2.612536430E0
2.796104020E1,1.709045172E-1,2.257785797E0,3.507480621E-1
2.797893766E1,-3.650511503E-1,3.451055527E0,1.450438261E0
2.799683286E1,-5.759054422E-1,3.756452084E0,1.758463383E0
2.801472831E1,-7.916705012E-1,2.910006046E0,2.646939754E-1
2.803262583E1,-4.083288312E-1,1.663600922E0,-2.570800781E0
2.805051474E1,9.319136143E-1,-3.566846848E-1,-5.968056679E0
2.806842166E1,2.637653828E0,-3.201147079E0,-7.323103905E0
2.808631113E1,5.113776684E0,-4.147524834E0,-7.235851288E0
2.810420884E1,4.866124153E0,-1.902660370E0,-5.120229721E0
2.812210587E1,4.059922695E0,2.180406094E0,-4.063980579E-1
2.813999784E1,3.555985451E0,2.438342571E0,2.395365238E0
2.815789212E1,2.938827038E0,-4.194053650E0,3.284665823E0
2.817578696E1,6.058895588E-2,-9.485439301E0,4.424349308E0
2.819368174E1,-1.374046445E0,-6.884848595E0,1.192471385E0
2.821157627E1,-5.348068237E0,-4.681435585E0,-1.278509331E1
2.822946878E1,-5.450969696E0,1.540916920E0,-3.327815533E0
2.824736557E1,-6.482634068E0,1.528941154E0,5.836552620E0
2.826526004E1,-5.377932549E0,1.015001297E0,7.581883430E0
2.828315451E1,-4.536429405E0,1.424326897E0,5.856262207E0
2.830104941E1,-3.245037079E0,1.155782700E0,4.634107113E0
2.831894321E1,-1.300213337E0,7.737064362E-1,3.485212326E0
2.833683829E1,2.462582588E-1,3.994178772E-2,2.510986805E0
2.835473294E1,2.163680553E0,-2.654418945E-1,1.829543948E0
2.837261936E1,3.197277546E0,4.097957611E-1,1.271774888E0
2.839051956E1,3.862618446E0,1.355210304E0,2.752918005E-1
2.840842002E1,3.666935444E0,2.161992073E0,-1.766528368E0
2.842631162E1,3.138284445E0,1.687661171E0,-3.355736256E0
2.844419413E1,1.793673158E0,1.066729546E0,-2.239394903E0
2.846210068E1,8.004761934E-1,6.359214783E-1,-1.044807315E0
2.847999546E1,1.468968689E-1,7.188205719E-1,-4.823650420E-1
2.849788993E1,6.449251622E-2,1.193222046E0,-3.286727369E-1
2.851578446E1,-1.294718087E-1,1.530361176E0,-4.498903155E-1
2.853366874E1,-4.034025669E-1,1.574861526E0,-9.429234266E-1
2.855157383E1,-6.747538447E-1,1.022693634E0,-1.696809769E0
2.856946323E1,-6.459789276E-1,5.445098877E-2,-2.492703915E0
2.858734842E1,-3.626650572E-2,-1.515235901E-1,-3.497855663E0
2.860525760E1,9.808459282E-1,-3.585166931E-1,-3.794744015E0
2.862315219E1,1.778095961E0,-8.571910858E-1,-3.708756447E0
2.864104691E1,2.723739386E0,-1.279153824E0,-3.330607414E0
2.865894150E1,3.828743935E0,-1.432733536E0,-3.064773560E0
2.867683628E1,4.325659275E0,-1.943847656E0,-3.174939156E0
2.869473056E1,2.889106512E0,-3.056906700E0,-2.493788719E0
2.871261356E1,1.278014302E0,-4.851893425E0,-6.172874570E-1
2.873051993E1,-1.124087274E-1,-4.648727417E0,2.099597454E0
2.874841580E1,-1.928326845E0,-2.183795929E0,9.041124582E-1
2.876630912E1,-1.001109362E0,-4.923906326E-1,-6.570030451E-1
2.878420389E1,-1.466981322E-1,-2.556591034E0,-2.172883272E0
2.880209812E1,-1.585166454E-1,-4.988616943E0,-2.365165710E0
2.881999271E1,-6.969302893E-1,-4.558063507E0,-4.852126837E-1
2.883788749E1,-1.500548363E0,-3.092200279E0,1.101382136E0
2.885577005E1,-1.376107931E0,-2.399324417E0,7.865523100E-1
2.887366483E1,-1.038629413E0,-1.682590485E0,4.868535995E-1
2.889157138E1,-1.189776897E0,-7.360858917E-1,-1.536397934E-1
2.890946494E1,-6.449611187E-1,7.323951721E-1,3.236579895E-1
2.892736069E1,2.700411081E-1,2.417727470E0,2.095551014E0
2.894525522E1,-8.189927340E-1,2.065891266E0,3.233033657E0
2.896313779E1,-1.813789606E0,2.143069267E0,4.177297592E0
2.898104447E1,-1.951056480E0,3.169841290E0,4.177086353E0
2.899893918E1,-2.373352766E0,3.395360947E0,3.900210142E0
2.901683384E1,-1.870936394E0,3.319120407E0,3.846209764E0
2.903472806E1,-1.018877745E0,3.046561241E0,3.516641140E0
2.905262290E1,-6.188651323E-1,2.685727119E0,2.656045914E0
2.907051737E1,-1.206099749E0,2.722676754E0,1.692696571E0
2.908840091E1,-1.909615993E0,3.946534634E0,2.561332703E0
2.910630667E1,-1.639102697E0,4.126549244E0,2.685010433E0
2.912419931E1,-8.588389158E-1,3.166463375E0,1.336546898E0
2.914209574E1,-9.944200516E-2,1.358495712E0,-2.308892727E0
2.915999137E1,4.003492594E-1,-9.707574844E-1,-6.458904266E0
2.917788504E1,5.279018879E-1,-4.412511826E0,-7.891861916E0
2.919577958E1,3.229892254E0,-5.318896294E0,-8.904111862E0
2.921366989E1,5.374774933E0,-2.733069420E0,-8.043567657E0
2.923156888E1,5.341207027E0,2.424106598E-1,-2.872678757E0
2.924946164E1,5.462660313E0,-1.079713821E0,3.378801346E-1
2.926735813E1,3.980092764E0,-5.885833740E0,3.940042019E0
2.928525278E1,3.512063026E-1,-6.405442238E0,5.449126244E0
2.930314749E1,-2.042963505E0,-3.075652122E0,3.343020439E0
2.932104203E1,-6.434556484E0,-1.177103996E0,-3.747674227E0
2.933893662E1,-8.252751350E0,1.081122398E0,-7.078934669E0
2.935683133E1,-6.577571392E0,1.078376770E0,4.144377708E0
2.937472873E1,-4.985020161E0,2.594137192E-1,7.152696609E0
2.939262040E1,-4.008116722E0,9.697532654E-1,5.819592476E0
2.941051517E1,-2.590884447E0,7.449789047E-1,4.316655159E0
2.942840995E1,-1.274047375E0,2.701101303E-1,3.160349369E0
2.944628995E1,5.684912205E-3,8.008003235E-3,2.465794802E0
2.946418759E1,1.391222477E0,1.667881012E-2,2.068737268E0
2.948208243E1,2.734396935E0,3.407344818E-1,1.355356455E0
2.949998856E1,3.232820749E0,6.869239807E-1,3.972663879E-1
2.951788285E1,3.339729786E0,1.289401054E0,-9.266353250E-1
2.953577738E1,3.053326130E0,1.295883179E0,-2.787962437E0
2.955367252E1,1.954857349E0,5.563535690E-1,-2.670214891E0
2.957156675E1,8.571118712E-1,7.045059204E-1,-1.390554070E0
2.958946164E1,6.178317070E-1,9.387550354E-1,-4.918992817E-1
2.960735599E1,3.553090990E-1,1.055409431E0,-4.204987586E-1
2.962525028E1,-5.419082940E-2,9.550781250E-1,-8.456865549E-1
2.964314408E1,-3.755087256E-1,1.011906624E0,-1.073483825E0
2.966102805E1,-6.954594851E-1,9.545288086E-1,-1.403447390E0
2.967892215E1,-5.916734338E-1,6.350374222E-1,-1.864590764E0
2.969681760E1,5.030775070E-2,4.152650833E-1,-2.684508324E0
2.971471170E1,5.317221880E-1,4.019556046E-1,-3.765155554E0
2.973260672E1,6.604025364E-1,-1.519556046E-1,-4.325277328E0
2.975051248E1,1.137533426E0,-7.984275818E-1,-4.484009266E0
2.976840696E1,2.035392284E0,-1.089977264E0,-4.055481911E0
2.978630210E1,2.653693914E0,-1.593489647E0,-3.629285812E0
2.980419657E1,2.330389023E0,-3.140429497E0,-2.419527292E0
2.982209110E1,1.076082706E0,-5.055607796E0,-5.461647511E-1
2.983998593E1,-5.786204338E-2,-5.925506592E0,2.392177582E-1
2.985788041E1,-1.285443664E0,-3.907381058E0,1.285269141E0
2.987577787E1,-2.090615273E0,-1.447803497E0,2.090401173E0
2.989366977E1,-3.308295012E-1,-7.153234482E-1,-2.659157813E-1
2.991156137E1,8.042557240E-1,-2.202179909E0,-1.664098978E0
2.992944876E1,1.480333209E0,-3.125905037E0,4.043052793E-1
2.994734146E1,6.844902635E-1,-2.322631836E0,8.352894783E-1
2.996523734E1,2.231213450E-2,-1.991986275E0,-1.172850609E0
2.998313956E1,-2.478805780E-1,-1.686648369E0,-1.654503107E0
3.000102561E1,-8.906610608E-1,-1.644718170E0,-4.074704647E-1
3.001892289E1,-1.306672931E0,-8.270292282E-1,2.480251789E-1
3.003681968E1,-8.771695495E-1,8.438873291E-1,1.377435803E0
3.005471408E1,-1.304931641E0,1.260048866E0,2.619373798E0
3.007260434E1,-1.706932306E0,2.600703716E0,3.816046715E0
3.009051358E1,-2.415805817E0,3.002970219E0,4.017211914E0
3.010839286E1,-2.501487970E0,3.253885269E0,3.641130924E0
3.012629013E1,-2.116010666E0,3.172055244E0,3.668981552E0
3.014419443E1,-1.494011164E0,2.572657108E0,3.611089230E0
3.016208890E1,-5.345118046E-2,1.994230747E0,1.989572406E0
3.017998362E1,-1.124675274E-1,2.292482376E0,1.410943747E0
3.019787845E1,-6.622029543E-1,3.079482079E0,2.009216309E0
3.021577286E1,-7.447599769E-1,3.439231873E0,2.085991144E0
3.023366758E1,-9.848198891E-1,2.958309174E0,1.304560661E0
3.025156186E1,-5.521532297E-1,2.247528076E0,-1.025430679E0
3.026945792E1,5.382423401E-1,9.796552658E-1,-4.616023064E0
3.028735135E1,1.829119802E0,-1.517499924E0,-6.109529018E0
3.030524594E1,3.976056576E0,-3.987097740E0,-6.120199203E0
3.032314072E1,4.784660339E0,-3.089609146E0,-5.785816193E0
3.034103519E1,3.945249081E0,4.836311340E-1,-1.935429335E0
3.035892966E1,3.176451206E0,3.085639000E0,1.772311211E0
3.037682157E1,2.679768801E0,2.991724014E-1,1.959668875E0
3.039471878E1,1.600281119E0,-7.287965775E0,2.379751444E0
3.041261386E1,-8.121155500E-1,-1.119794941E1,2.709827662E0
3.043050815E1,-3.467593670E0,-7.148004532E0,-2.190768003E0
3.044840134E1,-3.157094002E0,7.837009430E-2,-9.588388443E0
3.046630057E1,-4.021350861E0,3.898851395E0,-5.072855949E-1
3.048419193E1,-5.420870304E0,1.956974030E0,5.567638397E0
3.050208695E1,-4.972689629E0,5.021257401E-1,6.952886581E0
3.051998124E1,-4.335055351E0,9.745578766E-1,5.548309326E0
3.053787900E1,-2.962990522E0,5.923194885E-1,4.218031883E0
3.055577060E1,-1.124843717E0,3.587255478E-1,3.153555632E0
3.057366532E1,1.041603088E0,4.238033295E-1,2.494577885E0
3.059155991E1,2.292386293E0,3.571805954E-1,1.872908831E0
3.060945920E1,2.791014433E0,2.827301025E-1,7.347279787E-1
3.062733908E1,3.433390141E0,8.614511490E-1,-1.206387281E0
3.064523313E1,3.759464979E0,1.957450867E0,-3.688763618E0
3.066312845E1,2.545194864E0,1.298006058E0,-2.595999956E0
3.068102115E1,1.668087602E0,7.543458939E-1,-7.703521848E-1
3.069891648E1,6.292461753E-1,6.167736053E-1,1.921135485E-1
3.071680893E1,1.303478479E-1,8.090829849E-1,1.833922863E-1
3.073470572E1,-9.205566347E-2,1.048961639E0,-1.722377837E-1
3.075260129E1,-3.681589663E-1,1.174529076E0,-4.821543694E-1
3.077049582E1,-7.781983614E-1,1.096439362E0,-1.012430072E0
3.078838828E1,-8.360896111E-1,6.252603531E-1,-1.833547950E0
3.080628482E1,-4.479796886E-1,1.590108871E-1,-2.574533939E0
3.082418009E1,3.882560432E-1,5.680847168E-2,-3.034501791E0
3.084207261E1,1.139328599E0,1.227140427E-1,-2.936430693E0
3.085996897E1,1.293428659E0,-4.268550873E-2,-2.342720509E0
3.087786307E1,1.619260788E0,-9.489479065E-1,-1.818100452E0
3.089575882E1,2.619975805E0,-1.767983437E0,-1.723492146E0
3.091365287E1,3.566317081E0,-2.119392395E0,-2.347963572E0
3.093156064E1,3.545236588E0,-2.948149681E0,-2.314513206E0
3.094945462E1,2.528409243E0,-3.722025871E0,-1.160004139E0
3.096734964E1,9.883923531E-1,-3.821266174E0,1.589651108E-1
3.098524161E1,-9.381481409E-1,-3.639505386E0,3.958387375E-1
3.100313608E1,-3.296755075E0,-3.092092514E0,-4.916727543E-3
3.102103061E1,-3.658145189E0,-1.352144241E0,-2.189967155E0
3.103892795E1,-2.104094982E0,-2.292909622E-1,-1.952310681E0
3.105681992E1,-2.185509503E-1,-1.917110443E0,-2.446267605E0
3.107470249E1,-7.210725546E-2,-1.936547279E0,-1.191012383E0
3.109260922E1,-2.574337721E-1,-1.576478958E0,5.666974187E-1
3.111050394E1,-4.172973633E-1,-8.219375610E-1,1.408475757E0
3.112839579E1,-4.797993302E-1,-6.653852463E-1,7.662681937E-1
3.114629306E1,-3.312898576E-1,-9.091558456E-1,1.976891756E-1
3.116418753E1,-9.961479902E-2,-6.103553772E-1,1.891763210E-1
3.118208200E1,1.797070503E-1,8.048200607E-1,1.579720259E0
3.119997678E1,3.578174114E-2,1.583466530E0,2.749862194E0
3.121787162E1,-1.013515115E0,1.850870609E0,3.433645248E0
3.123576303E1,-1.720321655E0,2.148108006E0,3.516957998E0
3.125366068E1,-1.722483873E0,2.514882088E0,3.323226452E0
3.127155551E1,-1.476895213E0,2.554116726E0,2.638574123E0
3.128944553E1,-4.569215775E-1,2.076855659E0,5.089583397E-1
3.130734458E1,-5.220603347E-1,1.747986794E0,2.445476055E-1
3.132523862E1,-1.219290257E0,2.435211182E0,1.704841852E0
3.134313382E1,-1.718130112E0,3.305091381E0,2.477941990E0
3.136102549E1,-1.932519436E0,4.091327667E0,2.535711765E0
3.137892307E1,-1.687890291E0,4.004445076E0,1.937505722E0
3.139681791E1,-5.359340906E-1,3.230564117E0,4.090292454E-1
3.141471250E1,8.355214596E-1,1.743262768E0,-1.782411814E0
3.143260691E1,1.838402033E0,-7.690210342E-1,-4.713362694E0
3.145050156E1,2.920310020E0,-3.448709488E0,-6.727092743E0
3.146840073E1,4.303647995E0,-3.656797409E0,-7.553616524E0
3.148629099E1,5.319938660E0,-1.046451569E0,-5.781468391E0
3.150418558E1,5.065963745E0,1.609387398E0,-1.245411158E0
3.152207993E1,4.027626991E0,2.226495743E-1,1.301676512E0
3.153997489E1,2.130998611E0,-6.665338516E0,1.727042437E0
3.155786942E1,-6.174587607E-1,-1.090082645E1,3.651581049E0
3.157576401E1,-2.312239885E0,-5.249349594E0,1.596187830E0
3.159365848E1,-6.983964443E0,-8.492755890E-2,-7.856626987E0
3.161155326E1,-7.706480026E0,2.795214653E0,-6.162880898E0
3.162944413E1,-6.082041740E0,2.376999378E0,3.186278343E0
3.164734256E1,-5.421653748E0,2.007427216E-1,7.457376480E0
3.166523984E1,-4.871230602E0,4.167413712E-1,6.661487579E0
3.168313187E1,-3.876741171E0,3.437576294E-1,4.878364086E0
3.170102640E1,-1.923178434E0,1.141328812E-1,3.072885036E0
3.171892099E1,-2.807405591E-1,-3.870363235E-1,2.124847651E0
3.173681180E1,1.153383493E0,-5.631113052E-1,1.778961420E0
3.175471036E1,2.800567627E0,-4.409084320E-1,1.355224848E0
3.177260501E1,3.716126204E0,3.424692154E-1,3.961956501E-2
3.179049955E1,3.965181589E0,1.794096470E0,-2.905038357E0
3.180839780E1,3.319358587E0,1.962557793E0,-3.204422712E0
3.182627689E1,1.983524680E0,8.038406372E-1,-1.435767651E0
3.184418369E1,1.277165532E0,-4.535484314E-2,-2.069138587E-1
3.186206333E1,6.128511429E-1,1.702032089E-1,3.119102120E-1
3.187997300E1,5.917785168E-1,1.189412117E0,7.462333143E-2
3.189786753E1,3.644320071E-1,1.466643333E0,-5.868303776E-1
3.191576181E1,-4.882389307E-2,8.440933228E-1,-1.372761130E0
3.193365659E1,-2.791252732E-1,2.888021469E-1,-1.802918911E0
3.195155142E1,-1.869734973E-1,-1.145973206E-1,-1.582362413E0
3.196944535E1,-2.797990739E-1,-2.402782440E-2,-1.369117022E0
3.198734043E1,-2.893298268E-1,3.295907974E-1,-1.853901386E0
3.200523514E1,-1.280457675E-1,6.259403229E-1,-2.938267231E0
3.202312973E1,5.530287027E-1,6.928424835E-1,-3.404545784E0
3.204102445E1,1.503162622E0,2.247829437E-1,-3.043512583E0
3.205892197E1,2.457900286E0,-4.982252121E-1,-2.590044498E0
3.207681491E1,3.391308784E0,-1.386467934E0,-2.580637693E0
3.209470816E1,3.242522240E0,-2.116543770E0,-2.688707352E0
3.211259970E1,1.765864015E0,-3.432844162E0,-1.822226763E0
3.213049741E1,5.763245821E-1,-4.905550003E0,-3.834202886E-1
3.214839646E1,-1.458830595E0,-4.743103027E0,1.290369034E0
3.216628989E1,-3.671908855E0,-2.757979393E0,1.974677444E0
3.218418143E1,-3.727705002E0,-4.472970963E-1,-3.454712629E-1
3.220207621E1,-2.309525490E0,-3.860845566E-1,-1.612156987E0
3.221997043E1,-3.871375322E-1,-2.467638016E0,-2.432303667E0
3.223785703E1,-1.175363883E-1,-3.548542976E0,-1.495161533E0
3.225575980E1,-9.977113605E-1,-2.508605957E0,3.718566895E-2
3.227365458E1,-1.348279715E0,-1.443916321E0,9.278867245E-1
3.229154911E1,-7.330369949E-1,-1.081100464E0,1.234820247E0
3.230944089E1,-1.822452545E-1,-5.928936005E-1,9.843419790E-1
3.232733817E1,1.308323741E-1,2.932157516E-1,4.290657043E-1
3.234523331E1,-1.313980222E-1,1.469691277E0,8.965281248E-1
3.236311179E1,-4.970910549E-1,2.374078751E0,2.011699438E0
3.238102231E1,-1.525985479E0,2.506574631E0,2.865786076E0
3.239891709E1,-2.549861193E0,2.489458084E0,3.225043774E0
3.241679990E1,-2.540766239E0,2.527005196E0,3.208609581E0
3.243469498E1,-2.137034893E0,2.470756531E0,2.808414221E0
3.245258969E1,-9.862649441E-1,2.258105278E0,1.282942295E0
3.247048709E1,1.072244644E-1,1.776582718E0,-2.925276756E-2
3.248837638E1,-6.296911836E-1,2.184318542E0,1.191478252E0
3.250627426E1,-1.472958803E0,2.833495140E0,2.357132912E0
3.252416867E1,-1.859157085E0,3.205637932E0,2.321717501E0
3.254207669E1,-1.525692463E0,3.453423023E0,1.472960949E0
3.255996860E1,-8.225980401E-1,3.075882912E0,3.829715252E-1
3.257786338E1,7.314460874E-1,2.063382626E0,-1.239405870E0
3.259575785E1,2.059356213E0,-2.433385849E-1,-3.461503506E0
3.261365232E1,3.587611914E0,-2.880204201E0,-5.279042721E0
3.263154721E1,5.491542816E0,-3.656659126E0,-6.543460846E0
3.264943949E1,6.174054146E0,-1.965528488E0,-6.999755859E0
3.266733646E1,5.375229836E0,8.711919785E-1,-2.793718338E0
3.268523081E1,4.662950516E0,2.980057240E0,1.509728909E0
3.270312577E1,3.458001852E0,1.349655151E0,3.002374887E0
3.272102030E1,7.345050573E-1,-4.650465965E0,3.040415287E0
3.273891507E1,-2.355491161E0,-1.018315125E1,3.020071983E0
3.275680960E1,-5.212045193E0,-9.513929367E0,-2.505710125E-1
3.277470444E1,-9.413673401E0,-3.195136070E0,-1.227818966E1
3.279259916E1,-7.623973846E0,3.138567924E0,-1.665560722E0
3.281049375E1,-5.423132420E0,3.525717735E0,2.639398813E0
3.282839041E1,-3.152374744E0,1.650835037E0,4.970313072E0
3.284628299E1,-2.861668110E0,8.082332611E-1,5.542474747E0
3.286416288E1,-2.563089848E0,-1.299819946E-1,4.807792664E0
3.288205850E1,-1.182896733E0,-7.185897827E-1,3.525599957E0
3.289995456E1,-3.178864717E-2,-4.395837784E-1,2.813944101E0
3.291784995E1,1.166970730E0,-2.022266388E-2,2.178944826E0
3.293574564E1,2.403978825E0,4.601278305E-1,1.216101646E0
3.295365097E1,2.572203875E0,7.059526443E-1,8.924323320E-2
3.297154227E1,2.051257849E0,1.515016556E0,-1.380813003E0
3.298944089E1,8.062605858E-1,1.812288284E0,-2.537321568E0
3.300733469E1,-5.624662042E-1,1.052329063E0,-2.300576925E0
3.302522928E1,-8.487529755E-1,1.167411804E-1,-1.181155443E0
3.304312381E1,-6.858186126E-1,1.664381027E-1,-9.907619655E-2
3.306102146E1,3.488590419E-1,6.435709000E-1,2.164732516E-1
3.307891342E1,1.195552111E0,8.273363113E-1,-1.635427773E-1
3.309680765E1,1.544676661E0,8.791866302E-1,-7.242040038E-1
3.311470273E1,1.658458829E0,7.318572998E-1,-1.281388760E0
3.313259720E1,1.331505299E0,3.835115433E-1,-1.681592703E0
3.315049173E1,2.767647207E-1,1.841201782E-1,-2.128353357E0
3.316838822E1,-5.707008839E-1,-6.293869019E-2,-2.837464333E0
3.318628110E1,-1.012898326E0,-2.956066132E-1,-3.723513842E0
3.320417557E1,-1.258596182E-1,-5.202808380E-1,-3.868291855E0
3.322207010E1,1.296267271E0,-6.287508011E-1,-3.275889397E0
3.323996512E1,2.216009617E0,-9.502868652E-1,-2.546225071E0
3.325785941E1,2.546756744E0,-1.053867340E0,-2.462852955E0
3.327575400E1,1.733016014E0,-1.789596558E0,-2.593851089E0
3.329364878E1,9.542200565E-1,-3.607006073E0,-1.396831512E0
3.331154361E1,1.424490362E-1,-4.711741447E0,3.661178350E-1
3.332943644E1,-2.148503304E0,-3.799020767E0,2.151511908E0
3.334733286E1,-2.447092772E0,-2.498908043E0,-8.309240341E-1
3.336521408E1,-1.550070763E0,-1.003635406E0,-2.972694159E0
3.338312204E1,7.378065586E-1,-1.571109772E0,-1.921663880E0
3.340101676E1,1.640192866E0,-3.249994278E0,-4.447876215E-1
3.341891434E1,7.747309208E-1,-2.439832687E0,5.944432020E-1
3.343680594E1,-3.345966637E-1,-2.268001556E0,2.032353878E-1
3.345468308E1,-9.244295359E-1,-2.504146576E0,-1.677393913E-1
3.347258084E1,-1.252860665E0,-1.725525856E0,-9.048891068E-2
3.349048008E1,-8.449276090E-1,-5.521488190E-2,4.609835148E-1
3.350837381E1,-3.315509558E-1,1.548391342E0,2.061343670E0
3.352626877E1,-1.008671761E0,1.008664131E0,3.106155872E0
3.354416678E1,-1.915801167E0,1.205093384E0,3.841543198E0
3.356206137E1,-2.568550825E0,1.769791603E0,3.869715214E0
3.357995993E1,-2.790537834E0,2.181209087E0,3.326887369E0
3.359784708E1,-2.176242113E0,2.459642410E0,2.252909899E0
3.361574124E1,-1.053857327E0,2.406108856E0,1.235848904E0
3.363363877E1,-3.193515539E-1,2.048189640E0,8.006296158E-1
3.365154184E1,-2.827847004E-1,2.198606968E0,2.104074955E0
3.366943546E1,-6.788637042E-1,2.904005051E0,3.680143595E0
3.368733115E1,-1.013824701E0,3.511828899E0,3.579321146E0
3.370522568E1,-7.171018124E-1,3.933241844E0,1.916375637E0
3.372312040E1,3.496333361E-1,3.413568497E0,-4.870605469E-1
3.374099991E1,1.725102425E0,1.780144691E0,-3.489605427E0
3.375890964E1,3.004784584E0,-8.137664795E-1,-6.037075043E0
3.377680423E1,3.757984161E0,-3.618947029E0,-6.045487404E0
3.379470304E1,3.785064220E0,-3.268598557E0,-5.360064030E0
3.381259348E1,2.870166302E0,9.792518616E-2,-3.247351646E0
3.383048832E1,1.646977067E0,3.961402416E0,1.469087601E-1
3.384838376E1,6.431697607E-1,5.331197262E0,2.629771709E0
3.386626535E1,-1.118046641E0,-4.917659760E-1,2.835994959E0
3.388417215E1,-2.949132681E0,-1.074720287E1,3.390182495E0
3.390206650E1,-2.593626499E0,-1.532455635E1,-1.923494816E0
3.391996433E1,-2.759089231E0,-7.454709053E0,-7.562058926E0
3.393784677E1,-3.625447273E0,2.931866169E0,-9.158413410E-1
3.395575064E1,-3.719256401E0,5.146054268E0,1.936086655E0
3.397364518E1,-2.940462351E0,2.799777985E0,5.628026485E0
3.399154007E1,-3.339227676E0,4.988994598E-1,6.574131966E0
3.400943393E1,-3.310935259E0,-3.834457397E-1,5.531876087E0
3.402732938E1,-1.739665747E0,-5.466899872E-1,4.172282219E0
3.404522422E1,-7.123696804E-1,-1.801376343E-1,2.855517387E0
3.406311869E1,7.995464206E-1,-3.737697601E-1,1.553995848E0
3.408100156E1,1.971460819E0,-2.688503265E-1,3.689324856E-1
3.409890793E1,2.575765371E0,3.352260590E-1,-7.717244625E-1
3.411678794E1,2.207794428E0,1.329022408E0,-1.237113476E0
3.413468796E1,1.579590201E0,1.664925575E0,-1.285140991E0
3.415258066E1,4.443600774E-1,1.079447746E0,-8.289282322E-1
3.417047898E1,5.943398178E-2,8.491420746E-1,-5.450194478E-1
3.418837094E1,2.813867927E-1,8.069887161E-1,-2.616909742E-1
3.420626456E1,6.754128337E-1,9.832963943E-1,-1.762876511E-1
3.422415952E1,7.290170193E-1,1.177855492E0,-1.858009696E-1
3.424205496E1,6.439860463E-1,8.464307785E-1,-4.874210954E-1
3.425995084E1,5.142547488E-1,4.647130966E-1,-1.143869281E0
3.427784134E1,3.149351478E-1,2.868280411E-1,-1.956898689E0
3.429573795E1,2.311795056E-1,4.332370758E-1,-2.586277723E0
3.431363926E1,6.591914892E-1,8.916254044E-1,-2.805583477E0
3.433153147E1,1.133139253E0,9.259243011E-1,-2.637823343E0
3.434943064E1,1.991464138E0,1.398372650E-1,-2.339977741E0
3.436731552E1,3.066700459E0,-8.155431747E-1,-2.386876106E0
3.438521073E1,3.448403358E0,-1.390945435E0,-3.047578812E0
3.440310929E1,2.364697695E0,-2.135011673E0,-3.089501858E0
3.442100089E1,1.051366568E0,-3.058043480E0,-1.033881187E0
3.443890921E1,-7.147167921E-1,-3.357042313E0,1.555830359E0
3.445680106E1,-2.764090776E0,-3.217674255E0,6.777535677E-1
3.447469535E1,-4.149504662E0,-2.288078308E0,-9.926725030E-1
3.449259012E1,-3.393855810E0,-1.942296982E0,-1.126383543E0
3.451048496E1,-1.765056372E0,-4.187502861E0,-1.696683764E-1
3.452837967E1,-6.658729315E-1,-5.463812828E0,6.190457344E-1
3.454627426E1,-1.017354369E0,-3.425344467E0,-4.624581337E-2
3.456416874E1,-1.441414595E0,-3.165525436E0,-3.619456291E-2
3.458206327E1,-1.157656550E0,-3.312609673E0,6.724060774E-1
3.459995798E1,-8.844537139E-1,-1.813589096E0,8.070209026E-1
3.461785288E1,-1.086663008E0,-5.705080032E-1,1.123194098E0
3.463574717E1,-1.503413081E0,3.501863480E-1,1.885777235E0
3.465364218E1,-2.372128963E0,1.232252598E0,3.214318275E0
3.467153678E1,-3.160804749E0,2.188708305E0,4.211331367E0
3.468941263E1,-3.501526833E0,2.651137352E0,4.159398556E0
3.470732596E1,-3.587433338E0,3.047884941E0,3.774290562E0
3.472522080E1,-2.807379723E0,3.302351475E0,3.291677237E0
3.474311893E1,-2.064124346E0,2.681826591E0,1.767337322E0
3.476101004E1,-1.860212326E0,2.346543312E0,1.301295757E0
3.477890781E1,-2.236585855E0,3.011370659E0,2.764687777E0
3.479679911E1,-2.019680977E0,3.541189194E0,3.589266777E0
3.481469022E1,-9.986526966E-1,3.554592133E0,3.423563957E0
3.483258841E1,-9.769880772E-2,3.202085495E0,2.754820824E0
3.485048319E1,5.781513453E-1,2.112397194E0,1.112445354E0
3.486838083E1,1.413027763E0,1.630344391E-1,-3.147056580E0
3.488627256E1,2.582613945E0,-1.957245827E0,-6.823925018E0
3.490416703E1,3.878546238E0,-3.448546410E0,-6.395171165E0
3.492206180E1,4.700344563E0,-3.508234024E0,-5.378817081E0
3.493994803E1,3.628316402E0,-1.572381020E0,-3.685171843E0
3.495785117E1,2.567309141E0,9.186658859E-1,-1.503432035E0
3.497574588E1,2.122520447E0,2.739407539E0,2.545914650E-1
3.499364048E1,1.754423380E-1,1.450059891E0,7.067275047E-1
3.501153501E1,-2.059456825E0,-3.518278122E0,1.825641751E0
3.502943308E1,-4.116924286E0,-8.443859100E0,3.707922459E0
3.504732431E1,-6.807933331E0,-1.028689003E1,-1.543432951E0
3.506521793E1,-5.694017410E0,-3.353474617E0,-7.223992348E0
3.508311380E1,-3.761929750E0,2.986187458E0,2.071052551E0
3.510100840E1,-3.774827480E0,2.920829773E0,4.009974957E0
3.511890604E1,-3.074673653E0,9.510946274E-1,5.058018684E0
3.513679764E1,-2.822983503E0,2.848663330E-1,6.329205036E0
3.515469516E1,-2.582755566E0,-3.602819443E-1,4.974092007E0
3.517258701E1,-1.299652100E0,-1.330684662E0,3.358957291E0
3.519048154E1,1.111339331E-1,-1.250410080E0,2.475970268E0
3.520837632E1,1.105579972E0,-3.659133911E-1,1.884700060E0
3.522627103E1,1.803771257E0,3.272142410E-1,1.002802372E0
3.524416898E1,2.127087355E0,1.509168625E0,-1.857280731E-1
3.526206009E1,1.476578236E0,1.960106850E0,-1.236042619E0
3.527995804E1,8.591558337E-1,1.707898140E0,-1.330692291E0
3.529784940E1,1.121219397E-1,7.224264145E-1,-9.089161158E-1
3.531574393E1,-1.238661408E-1,-9.362125397E-2,-6.620845795E-1
3.533363871E1,-4.126507044E-1,1.348876953E-1,-4.394077361E-1
3.535153488E1,2.861357927E-1,4.777975082E-1,-3.215956092E-1
3.536943125E1,6.404637694E-1,7.095270157E-1,-2.245431542E-1
3.538732285E1,7.863804102E-1,1.118974686E0,-4.306751788E-1
3.540520273E1,7.668032646E-1,7.874832153E-1,-8.856609464E-1
3.542309903E1,6.859059334E-1,3.716115952E-1,-1.598379493E0
3.544099472E1,2.882532775E-1,5.615425110E-2,-2.006076097E0
3.545888962E1,-2.952562869E-1,-5.973243713E-2,-2.376750708E0
3.547678672E1,-1.719358265E-1,4.176998138E-2,-3.070358753E0
3.549467673E1,2.794297934E-1,1.581106186E-1,-3.371956348E0
3.551257346E1,7.061262131E-1,-1.783447266E-1,-3.234700918E0
3.553047214E1,9.181689620E-1,-8.483228683E-1,-3.112597704E0
3.554836411E1,7.570897937E-1,-1.363672256E0,-3.217261314E0
3.556625858E1,4.833640158E-1,-2.525449753E0,-2.776450634E0
3.558415207E1,3.110867143E-1,-4.136118889E0,-1.401852846E0
3.560204685E1,-6.475781202E-1,-4.909175873E0,9.275555611E-2
3.561994181E1,-2.267341614E0,-3.567825317E0,8.514449000E-1
3.563783707E1,-3.442874193E0,-1.625888824E0,2.078967571E0
3.565574283E1,-2.136730909E0,-7.137975693E-1,6.851427555E-1
3.567363730E1,4.092187285E-1,-6.521987915E-1,-1.250554681E0
3.569153214E1,1.771257520E0,-2.278450966E0,-1.804225922E0
3.570942655E1,7.720078826E-1,-3.093536377E0,-2.466940880E-1
3.572732114E1,-7.358863354E-1,-3.154051781E0,3.971546888E-1
3.574521616E1,-6.397126913E-1,-2.815914154E0,2.243347168E-1
3.576311069E1,-6.092052460E-1,-2.012964249E0,5.185183287E-1
3.578100516E1,-8.481855392E-1,-8.328685760E-1,4.592337608E-1
3.579890000E1,-1.094436169E0,9.222984314E-3,1.073054314E0
3.581679441E1,-1.588180661E0,1.128534317E0,3.148031235E0
3.583468912E1,-1.861784697E0,1.285075188E0,4.244871140E0
3.585258384E1,-2.902678967E0,1.274879456E0,3.997071505E0
3.587047855E1,-2.763295650E0,1.756315708E0,3.744297266E0
3.588837308E1,-2.525571585E0,1.869781017E0,3.461990118E0
3.590627219E1,-1.599467754E0,1.805297852E0,2.121232748E0
3.592416245E1,-1.219112396E0,1.870770931E0,1.894044638E0
3.594205698E1,-1.270155787E0,2.373104572E0,2.698060274E0
3.595995194E1,-1.627827764E0,3.059589386E0,2.999351978E0
3.597783884E1,-1.493395925E0,3.391026974E0,2.867506742E0
3.599574106E1,-9.334733486E-1,3.371401787E0,2.089234352E0
3.601363578E1,1.185274124E-1,3.093433380E0,4.229273796E-1
3.603153043E1,1.427806497E0,2.302188873E0,-1.681909561E0
3.604941281E1,2.576999187E0,8.114490509E-1,-3.713038206E0
3.606731992E1,3.633617401E0,-1.437054634E0,-5.076004505E0
3.608521439E1,4.481027603E0,-2.540098190E0,-4.886465549E0
3.610309433E1,4.176059723E0,-1.270710945E0,-3.765349388E0
3.612099216E1,2.943788052E0,1.073514938E0,-1.226729393E0
3.613888700E1,2.203021526E0,3.369812965E0,1.192560911E0
3.615678275E1,1.175775647E0,1.740956306E0,2.082944155E0
3.617469040E1,-1.545077324E0,-5.464720726E0,2.878027439E0
3.619258231E1,-4.048772812E0,-1.247878838E1,3.425264597E0
3.621047715E1,-5.117461205E0,-1.380225945E1,-9.231142044E0
3.622837156E1,-5.039648533E0,-1.772164345E0,-4.539742470E0
3.624626615E1,-4.714698792E0,4.954795837E0,2.440198660E0
3.626416092E1,-3.178540468E0,4.828583717E0,3.566720486E0
3.628205521E1,-3.189778805E0,1.154786110E0,6.174086571E0
3.629995017E1,-2.804690838E0,-1.988554001E-1,6.612749577E0
3.631784183E1,-2.248187065E0,-5.413475037E-1,5.688405037E0
3.633573929E1,-6.675107479E-1,-1.159976006E0,4.362331390E0
3.635363382E1,8.546946049E-1,-1.252470970E0,3.170956135E0
3.637152890E1,1.671224833E0,-9.369955063E-1,2.185617447E0
3.638942343E1,1.906704783E0,8.023452759E-2,1.052154660E0
3.640731815E1,1.616454244E0,1.643149376E0,-1.559209466E0
3.642520993E1,1.312729239E0,2.420159817E0,-2.624931812E0
3.644310752E1,6.056493521E-1,1.779544353E0,-1.444109678E0
3.646100492E1,1.570874453E-1,1.246846199E0,-2.647492886E-1
3.647889676E1,-1.573385894E-1,5.575551987E-1,-9.794509411E-2
3.649679129E1,6.173938513E-3,4.816675186E-1,-1.421651840E-1
3.651466965E1,9.597212076E-3,9.692974091E-1,3.065194190E-1
3.653258084E1,-4.773885012E-3,1.210874557E0,7.088025808E-1
3.655047531E1,-1.005384773E-1,1.042700768E0,6.306921244E-1
3.656836991E1,-2.393468618E-1,4.734983444E-1,2.564060390E-1
3.658626468E1,-1.968462467E-1,-2.074718475E-2,-9.570790529E-1
3.660415946E1,-1.698819548E-1,-3.928070068E-1,-2.583796263E0
3.662205380E1,-2.154463232E-1,-4.006166458E-1,-3.699304581E0
3.663994852E1,-1.881640553E-1,4.816722870E-2,-4.017891884E0
3.665784336E1,2.270740420E-1,8.062553406E-2,-3.397522449E0
3.667573789E1,1.137569070E0,-6.911926270E-1,-2.542785645E0
3.669363260E1,2.109458208E0,-1.474884987E0,-2.101006508E0
3.671152738E1,2.073766708E0,-1.807594299E0,-2.158106565E0
3.672942185E1,7.852215767E-1,-2.518422127E0,-1.982521772E0
3.674731674E1,-2.210753113E-1,-3.760381699E0,-9.748919010E-1
3.676521036E1,-4.814535975E-1,-3.399898529E0,6.955727935E-1
