"Time (s)","Acceleration x (m/s^2)","Acceleration y (m/s^2)","Acceleration z (m/s^2)"
1.863478000E-2,5.264209956E-2,-9.212367237E-2,9.727422714E0
2.101644600E-2,4.307080805E-2,-8.733802289E-2,9.736993790E0
2.339811300E-2,5.264209956E-2,-7.776673883E-2,9.722636223E0
2.577983200E-2,4.307080805E-2,-8.733802289E-2,9.722636223E0
2.816149800E-2,4.366901144E-2,-9.690931439E-2,9.722636223E0
3.054316500E-2,3.828516230E-2,-8.733802289E-2,9.736993790E0
3.292483200E-2,3.828516230E-2,-8.255238086E-2,9.732208252E0
3.530649800E-2,5.742774159E-2,-7.776673883E-2,9.727422714E0
3.768816500E-2,4.785645381E-2,-8.733802289E-2,9.713065147E0
4.006988400E-2,5.264209956E-2,-7.776673883E-2,9.727422714E0
4.245155000E-2,5.264209956E-2,-6.340979785E-2,9.717850685E0
4.483321700E-2,5.742774159E-2,-8.255238086E-2,9.713065147E0
4.721488400E-2,6.699903309E-2,-6.340979785E-2,9.722636223E0
4.959655000E-2,5.742774159E-2,-8.255238086E-2,9.722636223E0
5.197821700E-2,4.785645381E-2,-7.776673883E-2,9.736993790E0
5.435993600E-2,4.307080805E-2,-8.255238086E-2,9.727422714E0
5.674160300E-2,4.307080805E-2,-6.819544733E-2,9.736993790E0
5.912326900E-2,5.264209956E-2,-6.819544733E-2,9.732208252E0
6.150493600E-2,5.264209956E-2,-7.776673883E-2,9.713065147E0
6.388660300E-2,3.828516230E-2,-6.819544733E-2,9.722636223E0
6.626826900E-2,6.221338734E-2,-7.298108935E-2,9.732208252E0
6.864998800E-2,5.264209956E-2,-6.819544733E-2,9.722636223E0
7.103165500E-2,5.742774159E-2,-7.776673883E-2,9.732208252E0
7.341332100E-2,4.307080805E-2,-7.776673883E-2,9.727422714E0
7.579498800E-2,4.785645381E-2,-9.212367237E-2,9.717850685E0
7.817665500E-2,3.828516230E-2,-7.776673883E-2,9.732208252E0
8.055832100E-2,4.785645381E-2,-7.776673883E-2,9.708279610E0
8.294004000E-2,4.307080805E-2,-8.255238086E-2,9.732208252E0
8.532170700E-2,2.871387079E-2,-8.255238086E-2,9.717850685E0
8.770337300E-2,4.307080805E-2,-6.819544733E-2,9.732208252E0
9.008504000E-2,4.845465720E-2,-9.690931439E-2,9.713065147E0
9.246670700E-2,3.828516230E-2,-8.733802289E-2,9.732208252E0
9.484842500E-2,3.828516230E-2,-7.776673883E-2,9.722636223E0
9.723009200E-2,4.307080805E-2,-8.733802289E-2,9.713065147E0
9.961175900E-2,3.828516230E-2,-9.212367237E-2,9.713065147E0
1.019934250E-1,5.264209956E-2,-8.733802289E-2,9.727422714E0
1.043750920E-1,4.785645381E-2,-7.776673883E-2,9.727422714E0
1.067567590E-1,3.828516230E-2,-8.255238086E-2,9.736993790E0
1.091384250E-1,2.452643216E-2,-8.733802289E-2,9.741779327E0
1.115201440E-1,4.366901144E-2,-1.112662554E-1,9.732208252E0
1.139018110E-1,4.366901144E-2,-9.690931439E-2,9.741779327E0
1.162834780E-1,4.845465720E-2,-9.690931439E-2,9.732208252E0
1.186651440E-1,4.366901144E-2,-9.690931439E-2,9.732208252E0
1.210468110E-1,3.349951655E-2,-7.776673883E-2,9.727422714E0
1.234285300E-1,5.324030295E-2,-1.064806059E-1,9.732208252E0
1.258101960E-1,3.888336942E-2,-1.112662554E-1,9.722636223E0
1.281918630E-1,3.888336942E-2,-9.212367237E-2,9.722636223E0
1.305735300E-1,5.264209956E-2,-8.255238086E-2,9.708279610E0
1.329551960E-1,4.366901144E-2,-9.690931439E-2,9.722636223E0
1.353368630E-1,3.409772366E-2,-9.212367237E-2,9.741779327E0
1.377185820E-1,5.802594870E-2,-9.690931439E-2,9.732208252E0
1.401002480E-1,5.264209956E-2,-9.212367237E-2,9.722636223E0
1.424819150E-1,4.307080805E-2,-8.733802289E-2,9.722636223E0
1.448635820E-1,4.785645381E-2,-7.298108935E-2,9.732208252E0
1.472452480E-1,5.264209956E-2,-7.298108935E-2,9.746564865E0
1.496269150E-1,5.264209956E-2,-7.298108935E-2,9.736993790E0
1.520086340E-1,6.221338734E-2,-7.776673883E-2,9.717850685E0
1.543903000E-1,5.264209956E-2,-6.340979785E-2,9.741779327E0
1.567719670E-1,4.785645381E-2,-7.298108935E-2,9.722636223E0
1.591536340E-1,3.349951655E-2,-8.255238086E-2,9.736993790E0
1.615353000E-1,5.264209956E-2,-8.733802289E-2,9.727422714E0
1.639169670E-1,5.264209956E-2,-7.298108935E-2,9.727422714E0
1.662986860E-1,4.307080805E-2,-7.776673883E-2,9.713065147E0
1.686803530E-1,4.785645381E-2,-6.819544733E-2,9.717850685E0
1.710620190E-1,4.307080805E-2,-7.776673883E-2,9.727422714E0
1.734436860E-1,4.785645381E-2,-6.819544733E-2,9.727422714E0
1.758253530E-1,5.264209956E-2,-9.212367237E-2,9.717850685E0
1.782070710E-1,5.264209956E-2,-6.340979785E-2,9.732208252E0
1.805887380E-1,4.785645381E-2,-7.776673883E-2,9.732208252E0
1.829704050E-1,4.785645381E-2,-6.819544733E-2,9.732208252E0
1.853520710E-1,5.264209956E-2,-7.298108935E-2,9.732208252E0
1.877337380E-1,6.221338734E-2,-7.298108935E-2,9.717850685E0
1.901154050E-1,4.307080805E-2,-6.819544733E-2,9.722636223E0
1.924971230E-1,5.742774159E-2,-8.255238086E-2,9.708279610E0
1.948787900E-1,6.221338734E-2,-7.298108935E-2,9.713065147E0
1.972604570E-1,5.264209956E-2,-7.298108935E-2,9.717850685E0
1.996421230E-1,4.307080805E-2,-6.819544733E-2,9.717850685E0
2.020237900E-1,5.742774159E-2,-6.819544733E-2,9.727422714E0
2.044054570E-1,4.307080805E-2,-8.255238086E-2,9.717850685E0
2.067871750E-1,5.264209956E-2,-7.776673883E-2,9.717850685E0
2.091688420E-1,4.785645381E-2,-7.298108935E-2,9.717850685E0
2.115505090E-1,3.828516230E-2,-8.255238086E-2,9.727422714E0
2.139321750E-1,4.785645381E-2,-8.255238086E-2,9.727422714E0
2.163138420E-1,4.785645381E-2,-8.733802289E-2,9.722636223E0
2.186955090E-1,3.409772366E-2,-9.212367237E-2,9.717850685E0
2.210772280E-1,5.264209956E-2,-7.776673883E-2,9.736993790E0
2.234588940E-1,4.307080805E-2,-8.255238086E-2,9.722636223E0
2.258405610E-1,4.785645381E-2,-8.255238086E-2,9.732208252E0
2.282222280E-1,4.307080805E-2,-8.255238086E-2,9.727422714E0
2.306038940E-1,3.828516230E-2,-7.776673883E-2,9.741779327E0
2.329856130E-1,4.307080805E-2,-8.255238086E-2,9.732208252E0
2.353672800E-1,5.264209956E-2,-7.776673883E-2,9.732208252E0
2.377489460E-1,3.828516230E-2,-7.298108935E-2,9.727422714E0
2.401306130E-1,4.307080805E-2,-6.819544733E-2,9.727422714E0
2.425122800E-1,3.828516230E-2,-8.255238086E-2,9.732208252E0
2.448939460E-1,3.349951655E-2,-7.298108935E-2,9.732208252E0
2.472756650E-1,3.888336942E-2,-9.212367237E-2,9.722636223E0
2.496573320E-1,4.785645381E-2,-6.819544733E-2,9.722636223E0
2.520389980E-1,3.349951655E-2,-8.255238086E-2,9.727422714E0
2.544206650E-1,3.349951655E-2,-7.776673883E-2,9.717850685E0
2.568023320E-1,2.871387079E-2,-7.298108935E-2,9.732208252E0
2.591839980E-1,3.828516230E-2,-6.819544733E-2,9.732208252E0
2.615657170E-1,3.828516230E-2,-7.298108935E-2,9.713065147E0
2.639473840E-1,4.307080805E-2,-6.819544733E-2,9.722636223E0
2.663290500E-1,4.307080805E-2,-6.819544733E-2,9.736993790E0
2.687107170E-1,4.785645381E-2,-8.733802289E-2,9.722636223E0
2.710923840E-1,6.221338734E-2,-7.298108935E-2,9.732208252E0
2.734741030E-1,5.742774159E-2,-8.255238086E-2,9.732208252E0
2.758557690E-1,3.828516230E-2,-8.255238086E-2,9.732208252E0
2.782374360E-1,5.264209956E-2,-7.776673883E-2,9.732208252E0
2.806191030E-1,5.742774159E-2,-8.255238086E-2,9.732208252E0
2.830007690E-1,5.742774159E-2,-8.255238086E-2,9.717850685E0
2.853824360E-1,5.802594870E-2,-9.690931439E-2,9.746564865E0
2.877641550E-1,5.742774159E-2,-7.776673883E-2,9.732208252E0
2.901458210E-1,4.307080805E-2,-8.255238086E-2,9.727422714E0
2.925274880E-1,5.264209956E-2,-8.733802289E-2,9.727422714E0
2.949091550E-1,5.264209956E-2,-6.340979785E-2,9.727422714E0
2.972908210E-1,5.742774159E-2,-8.733802289E-2,9.727422714E0
2.996725400E-1,5.264209956E-2,-7.776673883E-2,9.732208252E0
3.020542070E-1,6.699903309E-2,-7.298108935E-2,9.741779327E0
3.044358730E-1,5.742774159E-2,-6.340979785E-2,9.736993790E0
3.068175400E-1,6.221338734E-2,-7.298108935E-2,9.722636223E0
3.091992070E-1,5.742774159E-2,-7.776673883E-2,9.717850685E0
3.115808730E-1,6.221338734E-2,-7.298108935E-2,9.713065147E0
3.139625920E-1,5.264209956E-2,-9.212367237E-2,9.717850685E0
3.163442590E-1,6.221338734E-2,-7.298108935E-2,9.713065147E0
3.187259250E-1,5.742774159E-2,-8.255238086E-2,9.746564865E0
3.211075920E-1,5.742774159E-2,-8.255238086E-2,9.727422714E0
3.234892590E-1,5.742774159E-2,-8.255238086E-2,9.722636223E0
3.258709250E-1,5.742774159E-2,-8.255238086E-2,9.727422714E0
3.282526440E-1,5.742774159E-2,-7.298108935E-2,9.722636223E0
3.306343110E-1,4.845465720E-2,-9.212367237E-2,9.732208252E0
3.330159780E-1,5.264209956E-2,-8.733802289E-2,9.736993790E0
3.353976440E-1,3.828516230E-2,-8.255238086E-2,9.736993790E0
3.377793110E-1,4.307080805E-2,-7.776673883E-2,9.727422714E0
3.401610300E-1,5.264209956E-2,-8.255238086E-2,9.722636223E0
3.425426960E-1,5.742774159E-2,-7.298108935E-2,9.736993790E0
3.449243630E-1,4.785645381E-2,-6.340979785E-2,9.741779327E0
3.473060300E-1,4.785645381E-2,-6.819544733E-2,9.736993790E0
3.496876960E-1,3.828516230E-2,-8.255238086E-2,9.722636223E0
3.520693630E-1,3.828516230E-2,-8.733802289E-2,9.717850685E0
3.544510820E-1,4.307080805E-2,-7.776673883E-2,9.717850685E0
3.568327480E-1,3.349951655E-2,-8.733802289E-2,9.727422714E0
3.592144150E-1,3.828516230E-2,-7.776673883E-2,9.732208252E0
3.615960820E-1,3.349951655E-2,-7.298108935E-2,9.732208252E0
3.639777480E-1,3.888336942E-2,-9.690931439E-2,9.722636223E0
3.663594670E-1,2.392822690E-2,-8.793623000E-2,9.708279610E0
3.687411340E-1,3.349951655E-2,-8.255238086E-2,9.722636223E0
3.711228000E-1,3.349951655E-2,-7.776673883E-2,9.727422714E0
3.735044670E-1,3.828516230E-2,-8.255238086E-2,9.713065147E0
3.758861340E-1,3.888336942E-2,-1.016949639E-1,9.732208252E0
3.782678000E-1,4.785645381E-2,-8.733802289E-2,9.746564865E0
3.806494670E-1,4.785645381E-2,-8.255238086E-2,9.732208252E0
3.830311860E-1,4.307080805E-2,-7.298108935E-2,9.736993790E0
3.854128530E-1,3.828516230E-2,-7.298108935E-2,9.746564865E0
3.877945190E-1,4.307080805E-2,-6.819544733E-2,9.727422714E0
3.901761860E-1,3.828516230E-2,-8.255238086E-2,9.727422714E0
3.925578530E-1,4.307080805E-2,-6.819544733E-2,9.736993790E0
3.949395710E-1,4.307080805E-2,-7.298108935E-2,9.708279610E0
3.973212380E-1,3.828516230E-2,-8.255238086E-2,9.713065147E0
3.997029050E-1,5.264209956E-2,-8.733802289E-2,9.732208252E0
4.020845710E-1,5.742774159E-2,-8.733802289E-2,9.732208252E0
4.044662380E-1,4.307080805E-2,-8.255238086E-2,9.722636223E0
4.068479570E-1,3.828516230E-2,-8.255238086E-2,9.732208252E0
4.092296230E-1,6.221338734E-2,-9.212367237E-2,9.722636223E0
4.116112900E-1,5.264209956E-2,-7.776673883E-2,9.727422714E0
4.139929570E-1,4.307080805E-2,-7.776673883E-2,9.722636223E0
4.163746230E-1,5.742774159E-2,-8.733802289E-2,9.722636223E0
4.187562900E-1,5.742774159E-2,-8.733802289E-2,9.708279610E0
4.211380090E-1,6.221338734E-2,-8.733802289E-2,9.732208252E0
4.235196750E-1,5.264209956E-2,-7.298108935E-2,9.727422714E0
4.259013420E-1,6.699903309E-2,-7.298108935E-2,9.736993790E0
4.282830090E-1,5.742774159E-2,-6.819544733E-2,9.736993790E0
4.306646750E-1,4.785645381E-2,-7.776673883E-2,9.736993790E0
4.330463420E-1,4.785645381E-2,-8.733802289E-2,9.732208252E0
4.354280610E-1,5.264209956E-2,-8.733802289E-2,9.727422714E0
4.378097280E-1,5.742774159E-2,-8.733802289E-2,9.722636223E0
4.401913940E-1,5.264209956E-2,-6.819544733E-2,9.713065147E0
4.425730610E-1,5.742774159E-2,-8.733802289E-2,9.722636223E0
4.449547280E-1,3.888336942E-2,-9.212367237E-2,9.727422714E0
4.473364460E-1,4.785645381E-2,-7.776673883E-2,9.717850685E0
4.497181130E-1,5.324030295E-2,-9.690931439E-2,9.727422714E0
4.520997800E-1,4.366901144E-2,-9.212367237E-2,9.722636223E0
4.544814460E-1,6.221338734E-2,-8.733802289E-2,9.722636223E0
4.568631130E-1,4.785645381E-2,-8.255238086E-2,9.727422714E0
4.592448320E-1,6.221338734E-2,-9.212367237E-2,9.727422714E0
4.616264980E-1,3.828516230E-2,-8.255238086E-2,9.717850685E0
4.640081650E-1,3.828516230E-2,-8.733802289E-2,9.732208252E0
4.663898320E-1,3.828516230E-2,-7.776673883E-2,9.722636223E0
4.687714980E-1,3.349951655E-2,-8.733802289E-2,9.727422714E0
4.711531650E-1,4.785645381E-2,-6.819544733E-2,9.713065147E0
4.735348840E-1,2.871387079E-2,-7.298108935E-2,9.732208252E0
4.759165500E-1,2.871387079E-2,-6.340979785E-2,9.736993790E0
4.782982170E-1,4.307080805E-2,-7.776673883E-2,9.722636223E0
4.806798840E-1,3.828516230E-2,-8.255238086E-2,9.732208252E0
4.830615500E-1,3.349951655E-2,-8.255238086E-2,9.736993790E0
4.854432170E-1,4.307080805E-2,-7.776673883E-2,9.746564865E0
4.878249360E-1,3.828516230E-2,-8.255238086E-2,9.713065147E0
4.902066030E-1,3.828516230E-2,-7.776673883E-2,9.722636223E0
4.925882690E-1,4.785645381E-2,-9.212367237E-2,9.727422714E0
4.949699360E-1,4.785645381E-2,-8.733802289E-2,9.736993790E0
4.973516030E-1,4.366901144E-2,-9.212367237E-2,9.736993790E0
4.997333210E-1,4.307080805E-2,-7.298108935E-2,9.722636223E0
5.021149880E-1,3.349951655E-2,-7.776673883E-2,9.717850685E0
5.044966550E-1,4.366901144E-2,-9.690931439E-2,9.722636223E0
5.068783210E-1,5.264209956E-2,-7.776673883E-2,9.732208252E0
5.092599880E-1,4.307080805E-2,-8.255238086E-2,9.727422714E0
5.116417070E-1,5.264209956E-2,-7.776673883E-2,9.727422714E0
5.140233730E-1,3.828516230E-2,-8.255238086E-2,9.736993790E0
5.164050400E-1,4.785645381E-2,-8.733802289E-2,9.736993790E0
5.187867070E-1,5.264209956E-2,-7.776673883E-2,9.732208252E0
5.211683730E-1,5.264209956E-2,-9.212367237E-2,9.746564865E0
5.235500400E-1,5.742774159E-2,-9.212367237E-2,9.736993790E0
5.259317590E-1,5.324030295E-2,-9.690931439E-2,9.736993790E0
5.283134250E-1,3.409772366E-2,-1.016949639E-1,9.727422714E0
5.306950920E-1,4.307080805E-2,-9.212367237E-2,9.727422714E0
5.330767590E-1,4.307080805E-2,-7.298108935E-2,9.722636223E0
5.354584250E-1,6.221338734E-2,-8.733802289E-2,9.717850685E0
5.378401440E-1,4.785645381E-2,-8.255238086E-2,9.727422714E0
5.402218110E-1,5.264209956E-2,-9.212367237E-2,9.722636223E0
5.426034780E-1,5.324030295E-2,-9.690931439E-2,9.727422714E0
5.449851440E-1,5.264209956E-2,-9.212367237E-2,9.717850685E0
5.473668110E-1,3.828516230E-2,-8.733802289E-2,9.722636223E0
5.497484780E-1,5.264209956E-2,-9.212367237E-2,9.727422714E0
5.521301960E-1,4.307080805E-2,-7.298108935E-2,9.736993790E0
5.545118630E-1,5.742774159E-2,-8.255238086E-2,9.727422714E0
5.568935300E-1,6.221338734E-2,-7.776673883E-2,9.722636223E0
5.592751960E-1,4.785645381E-2,-8.733802289E-2,9.727422714E0
5.616568630E-1,4.785645381E-2,-8.733802289E-2,9.713065147E0
5.640385300E-1,3.349951655E-2,-8.733802289E-2,9.722636223E0
5.664202480E-1,5.324030295E-2,-9.690931439E-2,9.713065147E0
5.688019150E-1,4.307080805E-2,-8.733802289E-2,9.717850685E0
5.711835820E-1,4.307080805E-2,-6.819544733E-2,9.732208252E0
5.735652480E-1,3.828516230E-2,-6.819544733E-2,9.741779327E0
5.759469150E-1,4.307080805E-2,-6.819544733E-2,9.727422714E0
5.783286340E-1,4.785645381E-2,-8.733802289E-2,9.727422714E0
5.807103000E-1,4.307080805E-2,-8.255238086E-2,9.732208252E0
5.830919670E-1,4.307080805E-2,-8.733802289E-2,9.713065147E0
5.854736340E-1,3.828516230E-2,-7.298108935E-2,9.722636223E0
5.878553000E-1,3.349951655E-2,-7.776673883E-2,9.717850685E0
5.902370190E-1,4.307080805E-2,-7.776673883E-2,9.708279610E0
5.926186860E-1,5.264209956E-2,-6.819544733E-2,9.717850685E0
5.950003530E-1,4.307080805E-2,-8.255238086E-2,9.727422714E0
5.973820190E-1,3.828516230E-2,-8.255238086E-2,9.732208252E0
5.997636860E-1,4.307080805E-2,-7.298108935E-2,9.732208252E0
6.021454050E-1,4.307080805E-2,-8.255238086E-2,9.722636223E0
6.045270710E-1,3.828516230E-2,-6.819544733E-2,9.732208252E0
6.069087380E-1,3.349951655E-2,-8.255238086E-2,9.741779327E0
6.092904050E-1,3.349951655E-2,-6.819544733E-2,9.727422714E0
6.116720710E-1,5.264209956E-2,-8.255238086E-2,9.732208252E0
6.140537380E-1,4.307080805E-2,-9.212367237E-2,9.736993790E0
6.164354570E-1,6.221338734E-2,-8.255238086E-2,9.727422714E0
6.188171230E-1,2.871387079E-2,-8.255238086E-2,9.732208252E0
6.211987900E-1,2.931207791E-2,-9.212367237E-2,9.717850685E0
6.235804570E-1,4.307080805E-2,-7.776673883E-2,9.732208252E0
6.259621230E-1,4.845465720E-2,-1.064806059E-1,9.717850685E0
6.283438420E-1,4.785645381E-2,-8.733802289E-2,9.713065147E0
6.307255090E-1,3.828516230E-2,-8.255238086E-2,9.717850685E0
6.331071750E-1,5.742774159E-2,-8.255238086E-2,9.732208252E0
6.354888420E-1,4.785645381E-2,-9.212367237E-2,9.732208252E0
6.378705090E-1,4.366901144E-2,-9.690931439E-2,9.717850685E0
6.402521750E-1,5.264209956E-2,-8.255238086E-2,9.722636223E0
6.426338940E-1,4.307080805E-2,-7.298108935E-2,9.727422714E0
6.450155610E-1,4.307080805E-2,-7.298108935E-2,9.732208252E0
6.473972280E-1,4.307080805E-2,-9.212367237E-2,9.727422714E0
6.497788940E-1,5.264209956E-2,-8.255238086E-2,9.732208252E0
6.521605610E-1,4.307080805E-2,-8.255238086E-2,9.732208252E0
6.545422800E-1,4.307080805E-2,-8.733802289E-2,9.727422714E0
6.569239460E-1,5.742774159E-2,-8.255238086E-2,9.736993790E0
6.593056130E-1,4.307080805E-2,-8.733802289E-2,9.727422714E0
6.616872800E-1,4.785645381E-2,-7.776673883E-2,9.727422714E0
6.640689460E-1,4.307080805E-2,-6.819544733E-2,9.732208252E0
6.664506650E-1,4.307080805E-2,-8.255238086E-2,9.732208252E0
6.688323320E-1,4.307080805E-2,-8.733802289E-2,9.722636223E0
6.712139980E-1,4.307080805E-2,-7.776673883E-2,9.727422714E0
6.735956650E-1,6.221338734E-2,-8.255238086E-2,9.732208252E0
6.759773320E-1,5.264209956E-2,-8.255238086E-2,9.741779327E0
6.783589980E-1,4.307080805E-2,-7.298108935E-2,9.722636223E0
6.807407170E-1,5.264209956E-2,-6.819544733E-2,9.727422714E0
6.831223840E-1,5.742774159E-2,-7.776673883E-2,9.732208252E0
6.855040500E-1,5.742774159E-2,-6.819544733E-2,9.727422714E0
6.878857170E-1,5.742774159E-2,-5.862415582E-2,9.717850685E0
6.902673840E-1,4.785645381E-2,-6.819544733E-2,9.717850685E0
6.926491030E-1,4.785645381E-2,-5.383851007E-2,9.732208252E0
6.950307690E-1,6.221338734E-2,-6.819544733E-2,9.722636223E0
6.974124360E-1,5.742774159E-2,-7.776673883E-2,9.708279610E0
6.997941030E-1,5.264209956E-2,-7.776673883E-2,9.722636223E0
7.021757690E-1,6.699903309E-2,-6.340979785E-2,9.727422714E0
7.045574880E-1,4.785645381E-2,-6.819544733E-2,9.727422714E0
7.069391550E-1,4.307080805E-2,-8.255238086E-2,9.732208252E0
7.093208210E-1,5.264209956E-2,-8.255238086E-2,9.741779327E0
7.117024880E-1,4.307080805E-2,-8.255238086E-2,9.722636223E0
7.140841550E-1,4.307080805E-2,-7.776673883E-2,9.717850685E0
7.164658210E-1,4.785645381E-2,-8.733802289E-2,9.722636223E0
7.188475400E-1,3.828516230E-2,-7.776673883E-2,9.722636223E0
7.212292070E-1,4.785645381E-2,-7.776673883E-2,9.727422714E0
7.236108730E-1,4.785645381E-2,-8.733802289E-2,9.717850685E0
7.259925400E-1,4.785645381E-2,-9.212367237E-2,9.736993790E0
7.283742070E-1,3.409772366E-2,-9.690931439E-2,9.741779327E0
7.307559250E-1,2.392822690E-2,-7.776673883E-2,9.732208252E0
7.331375920E-1,3.828516230E-2,-8.255238086E-2,9.717850685E0
7.355192590E-1,3.409772366E-2,-9.690931439E-2,9.717850685E0
7.379009250E-1,3.409772366E-2,-9.212367237E-2,9.708279610E0
7.402825920E-1,3.888336942E-2,-9.212367237E-2,9.717850685E0
7.426642590E-1,3.349951655E-2,-8.255238086E-2,9.713065147E0
7.450459780E-1,3.828516230E-2,-7.776673883E-2,9.717850685E0
7.474276440E-1,2.452643216E-2,-9.212367237E-2,9.727422714E0
7.498093110E-1,3.888336942E-2,-9.212367237E-2,9.722636223E0
7.521909780E-1,3.888336942E-2,-9.212367237E-2,9.736993790E0
7.545726440E-1,4.845465720E-2,-9.212367237E-2,9.741779327E0
7.569543630E-1,5.264209956E-2,-9.212367237E-2,9.746564865E0
7.593360300E-1,3.828516230E-2,-8.733802289E-2,9.736993790E0
7.617176960E-1,3.828516230E-2,-8.733802289E-2,9.732208252E0
7.640993630E-1,3.828516230E-2,-8.255238086E-2,9.727422714E0
7.664810300E-1,3.349951655E-2,-8.733802289E-2,9.722636223E0
7.688627480E-1,4.307080805E-2,-7.776673883E-2,9.727422714E0
7.712444150E-1,4.307080805E-2,-8.733802289E-2,9.717850685E0
7.736260820E-1,3.349951655E-2,-6.340979785E-2,9.722636223E0
7.760077480E-1,5.264209956E-2,-8.255238086E-2,9.722636223E0
7.783894150E-1,4.785645381E-2,-9.212367237E-2,9.732208252E0
7.807711340E-1,6.699903309E-2,-8.733802289E-2,9.732208252E0
7.831528000E-1,6.221338734E-2,-8.255238086E-2,9.732208252E0
7.855344670E-1,5.742774159E-2,-7.776673883E-2,9.736993790E0
7.879161340E-1,5.264209956E-2,-8.255238086E-2,9.727422714E0
7.902978000E-1,5.742774159E-2,-8.255238086E-2,9.732208252E0
7.926794670E-1,6.221338734E-2,-7.776673883E-2,9.722636223E0
7.950611860E-1,5.264209956E-2,-6.819544733E-2,9.727422714E0
7.974428530E-1,6.221338734E-2,-7.776673883E-2,9.741779327E0
7.998245190E-1,4.307080805E-2,-8.733802289E-2,9.722636223E0
8.022061860E-1,5.742774159E-2,-6.819544733E-2,9.732208252E0
8.045878530E-1,6.221338734E-2,-7.776673883E-2,9.727422714E0
8.069695710E-1,6.221338734E-2,-6.819544733E-2,9.751350403E0
8.093512380E-1,5.264209956E-2,-6.819544733E-2,9.741779327E0
8.117329050E-1,5.742774159E-2,-8.255238086E-2,9.722636223E0
8.141145710E-1,4.785645381E-2,-7.776673883E-2,9.727422714E0
8.164962380E-1,6.221338734E-2,-7.776673883E-2,9.732208252E0
8.188779570E-1,6.759724021E-2,-9.690931439E-2,9.727422714E0
8.212596230E-1,6.221338734E-2,-8.733802289E-2,9.741779327E0
8.236412900E-1,5.742774159E-2,-8.733802289E-2,9.722636223E0
8.260229570E-1,5.264209956E-2,-7.776673883E-2,9.722636223E0
8.284046230E-1,5.264209956E-2,-7.776673883E-2,9.727422714E0
8.307863420E-1,5.264209956E-2,-8.255238086E-2,9.717850685E0
8.331680090E-1,4.785645381E-2,-7.298108935E-2,9.713065147E0
8.355496750E-1,3.828516230E-2,-8.733802289E-2,9.717850685E0
8.379313420E-1,5.742774159E-2,-7.298108935E-2,9.713065147E0
8.403130090E-1,4.307080805E-2,-7.776673883E-2,9.713065147E0
8.426946750E-1,3.828516230E-2,-8.255238086E-2,9.727422714E0
8.450763940E-1,4.785645381E-2,-8.255238086E-2,9.741779327E0
8.474580610E-1,5.264209956E-2,-7.776673883E-2,9.741779327E0
8.498397280E-1,5.264209956E-2,-7.776673883E-2,9.736993790E0
8.522213940E-1,5.742774159E-2,-7.776673883E-2,9.736993790E0
8.546030610E-1,3.828516230E-2,-7.776673883E-2,9.727422714E0
8.569847800E-1,3.888336942E-2,-9.690931439E-2,9.722636223E0
8.593664460E-1,2.871387079E-2,-7.776673883E-2,9.732208252E0
8.617481130E-1,2.871387079E-2,-8.733802289E-2,9.727422714E0
8.641297800E-1,4.785645381E-2,-7.776673883E-2,9.708279610E0
8.665114460E-1,4.785645381E-2,-8.733802289E-2,9.708279610E0
8.688931650E-1,4.785645381E-2,-8.733802289E-2,9.736993790E0
8.712748320E-1,2.931207791E-2,-9.690931439E-2,9.727422714E0
8.736564980E-1,1.435693540E-2,-7.836493850E-2,9.727422714E0
8.760381650E-1,2.871387079E-2,-8.733802289E-2,9.736993790E0
8.784198320E-1,3.828516230E-2,-6.819544733E-2,9.727422714E0
8.808015500E-1,2.452643216E-2,-9.690931439E-2,9.727422714E0
8.831832170E-1,2.392822690E-2,-8.793623000E-2,9.713065147E0
8.855648840E-1,4.307080805E-2,-7.776673883E-2,9.717850685E0
8.879465500E-1,2.871387079E-2,-8.255238086E-2,9.732208252E0
8.903282170E-1,2.871387079E-2,-8.315058798E-2,9.717850685E0
8.927099360E-1,3.828516230E-2,-7.776673883E-2,9.722636223E0
8.950916030E-1,4.785645381E-2,-7.776673883E-2,9.717850685E0
8.974732690E-1,4.785645381E-2,-6.819544733E-2,9.722636223E0
8.998549360E-1,4.307080805E-2,-6.819544733E-2,9.741779327E0
9.022366030E-1,4.307080805E-2,-7.776673883E-2,9.727422714E0
9.046182690E-1,4.307080805E-2,-9.212367237E-2,9.717850685E0
9.069999880E-1,3.828516230E-2,-7.836493850E-2,9.703494072E0
9.093816550E-1,4.785645381E-2,-7.776673883E-2,9.722636223E0
9.117633210E-1,5.742774159E-2,-8.733802289E-2,9.722636223E0
9.141449880E-1,5.264209956E-2,-7.776673883E-2,9.732208252E0
9.165266550E-1,4.785645381E-2,-6.340979785E-2,9.732208252E0
9.189083730E-1,4.785645381E-2,-8.733802289E-2,9.727422714E0
9.212900400E-1,3.409772366E-2,-9.272187948E-2,9.698708534E0
9.236717070E-1,4.785645381E-2,-6.819544733E-2,9.751350403E0
9.260533730E-1,4.845465720E-2,-9.212367237E-2,9.789635658E0
9.284350400E-1,3.828516230E-2,-8.255238086E-2,9.722636223E0
9.308167590E-1,5.742774159E-2,-8.733802289E-2,9.669994354E0
9.331984250E-1,5.264209956E-2,-8.255238086E-2,9.693922997E0
9.355800920E-1,6.221338734E-2,-5.862415582E-2,9.708279610E0
9.379617590E-1,6.221338734E-2,-6.819544733E-2,9.708279610E0
9.403434250E-1,6.221338734E-2,-8.733802289E-2,9.698708534E0
9.427251440E-1,5.742774159E-2,-5.862415582E-2,9.746564865E0
9.451068110E-1,5.264209956E-2,-6.819544733E-2,9.803992271E0
9.474884780E-1,5.742774159E-2,-6.759724021E-2,9.823135376E0
9.498701440E-1,4.785645381E-2,-6.819544733E-2,9.760921478E0
9.522518630E-1,5.264209956E-2,-9.212367237E-2,9.693922997E0
9.546335300E-1,4.845465720E-2,-9.750752151E-2,9.669994354E0
9.570151960E-1,5.324030295E-2,-1.064806059E-1,9.684351921E0
9.593968630E-1,4.366901144E-2,-1.016949639E-1,9.713065147E0
9.617785300E-1,4.307080805E-2,-8.255238086E-2,9.713065147E0
9.641601960E-1,5.264209956E-2,-8.733802289E-2,9.693922997E0
9.665419150E-1,4.845465720E-2,-1.016949639E-1,9.713065147E0
9.689235820E-1,4.845465720E-2,-9.212367237E-2,9.727422714E0
9.713052480E-1,4.366901144E-2,-9.212367237E-2,9.765707016E0
9.736869150E-1,3.828516230E-2,-8.255238086E-2,9.789635658E0
9.760685820E-1,4.785645381E-2,-8.255238086E-2,9.770493507E0
9.784503000E-1,5.264209956E-2,-8.255238086E-2,9.746564865E0
9.808319670E-1,3.888336942E-2,-9.212367237E-2,9.732208252E0
9.832136340E-1,3.349951655E-2,-8.793623000E-2,9.722636223E0
9.855953000E-1,4.307080805E-2,-8.255238086E-2,9.722636223E0
9.879769670E-1,4.307080805E-2,-8.315058798E-2,9.693922997E0
9.903586340E-1,3.888336942E-2,-9.272187948E-2,9.684351921E0
9.927403530E-1,4.307080805E-2,-6.400800496E-2,9.689137459E0
9.951220190E-1,3.888336942E-2,-9.272187948E-2,9.693922997E0
9.975036860E-1,3.888336942E-2,-9.212367237E-2,9.732208252E0
9.998853530E-1,4.366901144E-2,-8.733802289E-2,9.751350403E0
1.002267019E0,4.307080805E-2,-8.255238086E-2,9.751350403E0
1.004648738E0,2.452643216E-2,-8.733802289E-2,9.760921478E0
1.007030405E0,4.307080805E-2,-7.776673883E-2,9.770493507E0
1.009412071E0,3.888336942E-2,-9.212367237E-2,9.751350403E0
1.011793738E0,4.366901144E-2,-9.212367237E-2,9.717850685E0
1.014175405E0,2.871387079E-2,-6.400800496E-2,9.722636223E0
1.016557123E0,4.307080805E-2,-7.776673883E-2,9.708279610E0
1.018938790E0,4.307080805E-2,-8.315058798E-2,9.703494072E0
1.021320457E0,5.264209956E-2,-7.298108935E-2,9.708279610E0
1.023702123E0,5.264209956E-2,-6.340979785E-2,9.703494072E0
1.026083790E0,2.392822690E-2,-8.315058798E-2,9.713065147E0
1.028465509E0,4.307080805E-2,-7.298108935E-2,9.741779327E0
1.030847175E0,4.785645381E-2,-7.776673883E-2,9.727422714E0
1.033228842E0,6.221338734E-2,-8.255238086E-2,9.741779327E0
1.035610509E0,4.785645381E-2,-7.298108935E-2,9.732208252E0
1.037992175E0,4.785645381E-2,-7.776673883E-2,9.727422714E0
1.040373894E0,4.785645381E-2,-6.819544733E-2,9.736993790E0
1.042755561E0,4.307080805E-2,-7.776673883E-2,9.717850685E0
1.045137228E0,6.221338734E-2,-7.776673883E-2,9.717850685E0
1.047518894E0,4.785645381E-2,-6.340979785E-2,9.717850685E0
1.049900561E0,4.785645381E-2,-7.776673883E-2,9.722636223E0
1.052282280E0,4.307080805E-2,-7.298108935E-2,9.722636223E0
1.054663946E0,3.828516230E-2,-7.298108935E-2,9.732208252E0
1.057045613E0,4.785645381E-2,-8.255238086E-2,9.736993790E0
1.059427280E0,6.221338734E-2,-7.298108935E-2,9.741779327E0
1.061808946E0,4.785645381E-2,-7.298108935E-2,9.713065147E0
1.064190665E0,6.699903309E-2,-6.819544733E-2,9.717850685E0
1.066572332E0,6.221338734E-2,-7.298108935E-2,9.722636223E0
1.068953998E0,4.307080805E-2,-7.776673883E-2,9.727422714E0
1.071335665E0,5.264209956E-2,-8.255238086E-2,9.727422714E0
1.073717332E0,6.699903309E-2,-8.733802289E-2,9.732208252E0
1.076099050E0,4.785645381E-2,-7.776673883E-2,9.732208252E0
1.078480717E0,3.828516230E-2,-7.298108935E-2,9.736993790E0
1.080862384E0,5.802594870E-2,-9.212367237E-2,9.722636223E0
1.083244050E0,4.307080805E-2,-8.255238086E-2,9.727422714E0
1.085625717E0,4.785645381E-2,-7.298108935E-2,9.722636223E0
1.088007436E0,3.888336942E-2,-9.212367237E-2,9.736993790E0
1.090389103E0,4.785645381E-2,-8.733802289E-2,9.722636223E0
1.092770769E0,6.221338734E-2,-8.255238086E-2,9.722636223E0
1.095152436E0,4.785645381E-2,-6.819544733E-2,9.722636223E0
1.097534103E0,5.742774159E-2,-9.212367237E-2,9.717850685E0
1.099915821E0,2.931207791E-2,-8.793623000E-2,9.732208252E0
1.102297488E0,3.828516230E-2,-7.298108935E-2,9.751350403E0
1.104679155E0,3.828516230E-2,-8.255238086E-2,9.727422714E0
1.107060821E0,5.802594870E-2,-1.016949639E-1,9.722636223E0
1.109442488E0,5.324030295E-2,-1.016949639E-1,9.722636223E0
1.111824207E0,4.785645381E-2,-8.733802289E-2,9.708279610E0
1.114205873E0,3.888336942E-2,-1.016949639E-1,9.727422714E0
1.116587540E0,3.828516230E-2,-7.776673883E-2,9.722636223E0
1.118969207E0,2.871387079E-2,-7.776673883E-2,9.727422714E0
1.121350873E0,3.828516230E-2,-8.255238086E-2,9.717850685E0
1.123732592E0,3.409772366E-2,-9.690931439E-2,9.732208252E0
1.126114259E0,3.828516230E-2,-7.776673883E-2,9.732208252E0
1.128495925E0,3.828516230E-2,-6.819544733E-2,9.722636223E0
1.130877592E0,4.307080805E-2,-6.819544733E-2,9.727422714E0
1.133259259E0,5.264209956E-2,-7.776673883E-2,9.727422714E0
1.135640925E0,4.785645381E-2,-6.819544733E-2,9.722636223E0
1.138022644E0,5.264209956E-2,-5.862415582E-2,9.727422714E0
1.140404311E0,5.264209956E-2,-6.340979785E-2,9.717850685E0
1.142785978E0,5.264209956E-2,-8.255238086E-2,9.727422714E0
1.145167644E0,4.785645381E-2,-7.776673883E-2,9.717850685E0
1.147549363E0,5.264209956E-2,-8.733802289E-2,9.732208252E0
1.149931030E0,2.871387079E-2,-7.776673883E-2,9.736993790E0
1.152312696E0,5.264209956E-2,-8.255238086E-2,9.732208252E0
1.154694363E0,5.264209956E-2,-8.255238086E-2,9.727422714E0
1.157076030E0,5.264209956E-2,-6.819544733E-2,9.741779327E0
1.159457748E0,4.307080805E-2,-8.733802289E-2,9.727422714E0
1.161839415E0,4.785645381E-2,-7.776673883E-2,9.746564865E0
1.164221082E0,5.264209956E-2,-8.733802289E-2,9.741779327E0
1.166602748E0,4.307080805E-2,-8.733802289E-2,9.727422714E0
1.168984415E0,5.264209956E-2,-8.255238086E-2,9.727422714E0
1.171366134E0,4.307080805E-2,-7.776673883E-2,9.717850685E0
1.173747800E0,3.828516230E-2,-9.212367237E-2,9.703494072E0
1.176129467E0,5.264209956E-2,-8.255238086E-2,9.717850685E0
1.178511134E0,5.264209956E-2,-8.733802289E-2,9.722636223E0
1.180892800E0,6.221338734E-2,-7.776673883E-2,9.732208252E0
1.183274519E0,5.264209956E-2,-8.733802289E-2,9.722636223E0
1.185656186E0,4.366901144E-2,-9.212367237E-2,9.732208252E0
1.188037853E0,4.785645381E-2,-7.776673883E-2,9.736993790E0
1.190419519E0,4.307080805E-2,-6.819544733E-2,9.732208252E0
1.192801186E0,4.307080805E-2,-6.819544733E-2,9.741779327E0
1.195182905E0,3.349951655E-2,-6.819544733E-2,9.722636223E0
1.197564571E0,4.785645381E-2,-8.733802289E-2,9.732208252E0
1.199946238E0,4.307080805E-2,-7.776673883E-2,9.727422714E0
1.202327905E0,4.307080805E-2,-7.298108935E-2,9.727422714E0
1.204709571E0,5.264209956E-2,-9.212367237E-2,9.717850685E0
1.207091290E0,4.307080805E-2,-8.733802289E-2,9.717850685E0
1.209472957E0,4.785645381E-2,-8.733802289E-2,9.736993790E0
1.211854623E0,4.307080805E-2,-7.298108935E-2,9.722636223E0
1.214236290E0,4.785645381E-2,-7.776673883E-2,9.727422714E0
1.216617957E0,3.349951655E-2,-8.255238086E-2,9.722636223E0
1.218999675E0,5.264209956E-2,-9.212367237E-2,9.732208252E0
1.221381342E0,7.178468257E-2,-7.776673883E-2,9.736993790E0
1.223763009E0,4.307080805E-2,-7.776673883E-2,9.736993790E0
1.226144675E0,4.366901144E-2,-9.212367237E-2,9.741779327E0
1.228526342E0,5.742774159E-2,-7.298108935E-2,9.741779327E0
1.230908061E0,3.828516230E-2,-6.340979785E-2,9.732208252E0
1.233289728E0,4.307080805E-2,-5.862415582E-2,9.717850685E0
1.235671394E0,5.264209956E-2,-5.383851007E-2,9.717850685E0
1.238053061E0,4.785645381E-2,-7.776673883E-2,9.727422714E0
1.240434728E0,3.828516230E-2,-7.776673883E-2,9.732208252E0
1.242816446E0,5.264209956E-2,-8.255238086E-2,9.722636223E0
1.245198113E0,3.828516230E-2,-7.776673883E-2,9.717850685E0
1.247579780E0,5.742774159E-2,-5.862415582E-2,9.717850685E0
1.249961446E0,3.828516230E-2,-6.340979785E-2,9.722636223E0
1.252343113E0,3.888336942E-2,-9.212367237E-2,9.722636223E0
1.254724832E0,4.785645381E-2,-8.733802289E-2,9.713065147E0
1.257106498E0,3.828516230E-2,-8.255238086E-2,9.736993790E0
1.259488165E0,4.307080805E-2,-7.298108935E-2,9.722636223E0
1.261869832E0,3.349951655E-2,-8.255238086E-2,9.732208252E0
1.264251550E0,3.828516230E-2,-8.733802289E-2,9.736993790E0
1.266633217E0,3.828516230E-2,-8.733802289E-2,9.732208252E0
1.269014884E0,3.828516230E-2,-8.255238086E-2,9.736993790E0
1.271396550E0,4.307080805E-2,-7.776673883E-2,9.722636223E0
1.273778217E0,3.828516230E-2,-6.819544733E-2,9.727422714E0
1.276159884E0,5.742774159E-2,-6.340979785E-2,9.736993790E0
1.278541603E0,4.785645381E-2,-7.776673883E-2,9.722636223E0
1.280923269E0,4.785645381E-2,-7.298108935E-2,9.722636223E0
1.283304936E0,5.264209956E-2,-8.255238086E-2,9.722636223E0
1.285686603E0,3.828516230E-2,-7.298108935E-2,9.732208252E0
1.288068269E0,2.871387079E-2,-7.776673883E-2,9.741779327E0
1.290449988E0,3.888336942E-2,-9.690931439E-2,9.727422714E0
1.292831655E0,2.871387079E-2,-8.793623000E-2,9.713065147E0
1.295213321E0,5.264209956E-2,-7.776673883E-2,9.727422714E0
1.297594988E0,5.264209956E-2,-7.776673883E-2,9.717850685E0
1.299976707E0,5.742774159E-2,-7.776673883E-2,9.717850685E0
1.302358373E0,6.221338734E-2,-8.733802289E-2,9.727422714E0
1.304740040E0,3.828516230E-2,-7.776673883E-2,9.727422714E0
1.307121707E0,5.264209956E-2,-6.819544733E-2,9.732208252E0
1.309503373E0,4.785645381E-2,-6.819544733E-2,9.732208252E0
1.311885092E0,5.264209956E-2,-7.298108935E-2,9.732208252E0
1.314266759E0,4.307080805E-2,-7.776673883E-2,9.741779327E0
1.316648425E0,4.785645381E-2,-7.776673883E-2,9.732208252E0
1.319030092E0,5.264209956E-2,-9.212367237E-2,9.717850685E0
1.321411759E0,5.742774159E-2,-8.255238086E-2,9.732208252E0
1.323793478E0,5.264209956E-2,-7.776673883E-2,9.722636223E0
1.326175144E0,5.742774159E-2,-8.255238086E-2,9.727422714E0
1.328556811E0,4.307080805E-2,-7.776673883E-2,9.713065147E0
1.330938478E0,6.221338734E-2,-8.733802289E-2,9.727422714E0
1.333320144E0,4.845465720E-2,-9.690931439E-2,9.741779327E0
1.335701863E0,3.349951655E-2,-7.776673883E-2,9.727422714E0
1.338083530E0,4.785645381E-2,-8.733802289E-2,9.732208252E0
1.340465196E0,3.828516230E-2,-8.255238086E-2,9.732208252E0
1.342846863E0,5.264209956E-2,-7.298108935E-2,9.727422714E0
1.345228530E0,5.264209956E-2,-8.255238086E-2,9.736993790E0
1.347610248E0,5.742774159E-2,-7.298108935E-2,9.727422714E0
1.349991915E0,3.409772366E-2,-9.212367237E-2,9.717850685E0
1.352373582E0,3.349951655E-2,-7.298108935E-2,9.727422714E0
1.354755248E0,4.307080805E-2,-7.298108935E-2,9.713065147E0
1.357136967E0,2.871387079E-2,-7.776673883E-2,9.727422714E0
1.359518634E0,4.307080805E-2,-7.776673883E-2,9.727422714E0
1.361900300E0,3.349951655E-2,-6.819544733E-2,9.727422714E0
1.364281967E0,3.828516230E-2,-8.255238086E-2,9.732208252E0
1.366663634E0,3.828516230E-2,-7.298108935E-2,9.741779327E0
1.369045353E0,4.307080805E-2,-8.255238086E-2,9.727422714E0
1.371427019E0,4.307080805E-2,-8.733802289E-2,9.722636223E0
1.373808686E0,3.828516230E-2,-7.776673883E-2,9.732208252E0
1.376190353E0,3.828516230E-2,-7.298108935E-2,9.717850685E0
1.378572019E0,4.307080805E-2,-8.255238086E-2,9.722636223E0
1.380953738E0,4.785645381E-2,-8.255238086E-2,9.727422714E0
1.383335405E0,3.828516230E-2,-8.733802289E-2,9.741779327E0
1.385717071E0,5.742774159E-2,-7.776673883E-2,9.717850685E0
1.388098738E0,4.307080805E-2,-7.298108935E-2,9.717850685E0
1.390480405E0,3.828516230E-2,-7.776673883E-2,9.736993790E0
1.392862123E0,3.888336942E-2,-9.690931439E-2,9.732208252E0
1.395243790E0,3.349951655E-2,-8.255238086E-2,9.717850685E0
1.397625457E0,4.307080805E-2,-8.733802289E-2,9.727422714E0
1.400007123E0,4.785645381E-2,-8.733802289E-2,9.722636223E0
1.402388842E0,5.742774159E-2,-8.733802289E-2,9.717850685E0
1.404770509E0,4.785645381E-2,-7.298108935E-2,9.717850685E0
1.407152175E0,4.307080805E-2,-8.255238086E-2,9.736993790E0
1.409533842E0,4.785645381E-2,-8.733802289E-2,9.727422714E0
1.411915509E0,5.742774159E-2,-8.255238086E-2,9.736993790E0
1.414297228E0,5.264209956E-2,-8.733802289E-2,9.732208252E0
1.416678894E0,5.742774159E-2,-8.733802289E-2,9.717850685E0
1.419060561E0,6.221338734E-2,-9.212367237E-2,9.722636223E0
1.421442228E0,5.742774159E-2,-5.862415582E-2,9.736993790E0
1.423823894E0,5.264209956E-2,-9.212367237E-2,9.736993790E0
1.426205613E0,4.785645381E-2,-8.255238086E-2,9.732208252E0
1.428587280E0,5.742774159E-2,-7.776673883E-2,9.732208252E0
1.430968946E0,6.699903309E-2,-9.212367237E-2,9.717850685E0
1.433350613E0,6.221338734E-2,-6.819544733E-2,9.732208252E0
1.435732280E0,3.828516230E-2,-6.819544733E-2,9.722636223E0
1.438113998E0,4.307080805E-2,-7.298108935E-2,9.736993790E0
1.440495665E0,4.785645381E-2,-8.733802289E-2,9.717850685E0
1.442877332E0,3.828516230E-2,-7.298108935E-2,9.722636223E0
1.445258998E0,6.221338734E-2,-6.819544733E-2,9.717850685E0
1.447640665E0,4.307080805E-2,-7.298108935E-2,9.717850685E0
1.450022384E0,3.888336942E-2,-9.212367237E-2,9.727422714E0
1.452404050E0,4.785645381E-2,-8.255238086E-2,9.732208252E0
1.454785717E0,5.264209956E-2,-7.776673883E-2,9.732208252E0
1.457167384E0,5.264209956E-2,-8.733802289E-2,9.727422714E0
1.459549050E0,4.785645381E-2,-6.819544733E-2,9.717850685E0
1.461930769E0,4.785645381E-2,-7.298108935E-2,9.713065147E0
1.464312436E0,3.349951655E-2,-8.733802289E-2,9.736993790E0
1.466694103E0,6.221338734E-2,-6.819544733E-2,9.732208252E0
1.469075769E0,5.264209956E-2,-6.340979785E-2,9.732208252E0
1.471457436E0,3.828516230E-2,-8.255238086E-2,9.717850685E0
1.473839155E0,5.264209956E-2,-5.862415582E-2,9.722636223E0
1.476220821E0,6.221338734E-2,-6.819544733E-2,9.736993790E0
1.478602488E0,3.828516230E-2,-8.733802289E-2,9.727422714E0
1.480984155E0,4.785645381E-2,-8.733802289E-2,9.732208252E0
1.483365873E0,5.264209956E-2,-7.298108935E-2,9.722636223E0
1.485747540E0,4.785645381E-2,-6.340979785E-2,9.722636223E0
1.488129207E0,4.307080805E-2,-8.733802289E-2,9.722636223E0
1.490510873E0,3.349951655E-2,-7.776673883E-2,9.732208252E0
1.492892540E0,3.828516230E-2,-8.733802289E-2,9.732208252E0
1.495274259E0,3.828516230E-2,-8.733802289E-2,9.736993790E0
1.497655925E0,4.307080805E-2,-7.776673883E-2,9.736993790E0
1.500037592E0,4.785645381E-2,-8.255238086E-2,9.741779327E0
1.502419259E0,4.307080805E-2,-7.776673883E-2,9.722636223E0
1.504800978E0,5.742774159E-2,-8.733802289E-2,9.727422714E0
1.507182644E0,4.307080805E-2,-7.776673883E-2,9.717850685E0
1.509564311E0,3.349951655E-2,-8.255238086E-2,9.722636223E0
1.511945978E0,4.307080805E-2,-7.298108935E-2,9.732208252E0
1.514327644E0,3.409772366E-2,-9.690931439E-2,9.722636223E0
1.516709311E0,5.264209956E-2,-8.733802289E-2,9.713065147E0
1.519091030E0,5.742774159E-2,-8.255238086E-2,9.708279610E0
1.521472696E0,5.742774159E-2,-7.776673883E-2,9.717850685E0
1.523854363E0,5.264209956E-2,-7.776673883E-2,9.727422714E0
1.526236030E0,4.785645381E-2,-8.255238086E-2,9.722636223E0
1.528617748E0,4.307080805E-2,-7.298108935E-2,9.736993790E0
1.530999415E0,4.785645381E-2,-9.212367237E-2,9.741779327E0
1.533381082E0,5.264209956E-2,-6.819544733E-2,9.736993790E0
1.535762748E0,4.307080805E-2,-8.255238086E-2,9.722636223E0
1.538144415E0,4.307080805E-2,-7.776673883E-2,9.727422714E0
1.540526134E0,4.785645381E-2,-7.776673883E-2,9.736993790E0
1.542907800E0,3.828516230E-2,-7.298108935E-2,9.736993790E0
1.545289467E0,4.307080805E-2,-8.255238086E-2,9.736993790E0
1.547671134E0,4.785645381E-2,-7.776673883E-2,9.722636223E0
1.550052800E0,4.785645381E-2,-9.212367237E-2,9.727422714E0
1.552434519E0,5.264209956E-2,-7.298108935E-2,9.732208252E0
1.554816186E0,5.742774159E-2,-9.212367237E-2,9.717850685E0
1.557197853E0,3.828516230E-2,-6.819544733E-2,9.732208252E0
1.559579519E0,5.742774159E-2,-7.776673883E-2,9.732208252E0
1.561961186E0,4.785645381E-2,-8.255238086E-2,9.722636223E0
1.564342905E0,4.307080805E-2,-7.298108935E-2,9.727422714E0
1.566724571E0,4.785645381E-2,-6.819544733E-2,9.722636223E0
1.569106238E0,4.785645381E-2,-7.776673883E-2,9.732208252E0
1.571487905E0,4.785645381E-2,-7.776673883E-2,9.717850685E0
1.573869623E0,4.785645381E-2,-7.298108935E-2,9.722636223E0
1.576251290E0,5.742774159E-2,-8.255238086E-2,9.741779327E0
1.578632957E0,4.307080805E-2,-8.255238086E-2,9.722636223E0
1.581014623E0,4.785645381E-2,-6.819544733E-2,9.722636223E0
1.583396342E0,5.264209956E-2,-6.340979785E-2,9.732208252E0
1.585778009E0,4.307080805E-2,-8.255238086E-2,9.717850685E0
1.588159675E0,4.785645381E-2,-7.298108935E-2,9.727422714E0
1.590541342E0,4.307080805E-2,-6.819544733E-2,9.732208252E0
1.592923009E0,4.785645381E-2,-7.776673883E-2,9.727422714E0
1.595304675E0,4.307080805E-2,-6.819544733E-2,9.727422714E0
1.597686394E0,4.785645381E-2,-9.212367237E-2,9.736993790E0
1.600068061E0,5.742774159E-2,-8.255238086E-2,9.741779327E0
1.602449728E0,4.307080805E-2,-8.255238086E-2,9.732208252E0
1.604831394E0,3.349951655E-2,-8.255238086E-2,9.732208252E0
1.607213113E0,4.785645381E-2,-7.776673883E-2,9.717850685E0
1.609594780E0,3.828516230E-2,-8.255238086E-2,9.732208252E0
1.611976446E0,3.349951655E-2,-8.255238086E-2,9.717850685E0
1.614358113E0,2.452643216E-2,-1.022931710E-1,9.713065147E0
1.616739780E0,3.409772366E-2,-9.690931439E-2,9.717850685E0
1.619121498E0,5.324030295E-2,-9.690931439E-2,9.713065147E0
1.621503165E0,4.307080805E-2,-7.298108935E-2,9.732208252E0
1.623884832E0,3.828516230E-2,-7.776673883E-2,9.722636223E0
1.626266498E0,3.349951655E-2,-8.733802289E-2,9.732208252E0
1.628648217E0,3.349951655E-2,-8.255238086E-2,9.717850685E0
1.631029884E0,4.307080805E-2,-7.776673883E-2,9.727422714E0
1.633411550E0,4.845465720E-2,-1.112662554E-1,9.741779327E0
1.635793217E0,4.366901144E-2,-9.690931439E-2,9.722636223E0
1.638174884E0,3.828516230E-2,-8.255238086E-2,9.732208252E0
1.640556603E0,4.307080805E-2,-9.212367237E-2,9.722636223E0
1.642938269E0,4.307080805E-2,-7.776673883E-2,9.732208252E0
1.645319936E0,5.742774159E-2,-9.212367237E-2,9.727422714E0
1.647701603E0,5.264209956E-2,-8.733802289E-2,9.722636223E0
1.650083269E0,4.307080805E-2,-8.733802289E-2,9.736993790E0
1.652464988E0,3.828516230E-2,-8.733802289E-2,9.722636223E0
1.654846655E0,4.785645381E-2,-6.819544733E-2,9.713065147E0
1.657228321E0,4.785645381E-2,-8.733802289E-2,9.722636223E0
1.659609988E0,4.785645381E-2,-8.733802289E-2,9.727422714E0
1.661991707E0,4.785645381E-2,-7.776673883E-2,9.717850685E0
1.664373373E0,4.785645381E-2,-7.298108935E-2,9.732208252E0
1.666755040E0,4.785645381E-2,-7.298108935E-2,9.727422714E0
1.669136707E0,4.785645381E-2,-5.862415582E-2,9.741779327E0
1.671518373E0,5.742774159E-2,-6.819544733E-2,9.727422714E0
1.673900092E0,4.785645381E-2,-8.255238086E-2,9.722636223E0
1.676281759E0,3.828516230E-2,-7.776673883E-2,9.732208252E0
1.678663425E0,3.828516230E-2,-7.298108935E-2,9.717850685E0
1.681045092E0,3.828516230E-2,-8.255238086E-2,9.727422714E0
1.683426759E0,4.307080805E-2,-7.776673883E-2,9.717850685E0
1.685808478E0,4.307080805E-2,-7.776673883E-2,9.727422714E0
1.688190144E0,3.828516230E-2,-6.819544733E-2,9.722636223E0
1.690571811E0,3.828516230E-2,-7.776673883E-2,9.713065147E0
1.692953478E0,3.828516230E-2,-6.819544733E-2,9.722636223E0
1.695335144E0,4.307080805E-2,-7.776673883E-2,9.727422714E0
1.697716863E0,4.307080805E-2,-8.733802289E-2,9.727422714E0
1.700098530E0,4.307080805E-2,-8.255238086E-2,9.736993790E0
1.702480196E0,5.742774159E-2,-7.298108935E-2,9.736993790E0
1.704861863E0,5.264209956E-2,-7.298108935E-2,9.732208252E0
1.707243582E0,5.264209956E-2,-5.383851007E-2,9.722636223E0
1.709625248E0,4.307080805E-2,-7.298108935E-2,9.732208252E0
1.712006915E0,5.264209956E-2,-8.733802289E-2,9.727422714E0
1.714388582E0,5.264209956E-2,-8.255238086E-2,9.722636223E0
1.716770300E0,5.264209956E-2,-7.298108935E-2,9.722636223E0
1.719151967E0,5.264209956E-2,-6.819544733E-2,9.727422714E0
1.721533634E0,5.264209956E-2,-7.776673883E-2,9.722636223E0
1.723915300E0,5.264209956E-2,-8.255238086E-2,9.732208252E0
1.726296967E0,5.742774159E-2,-8.733802289E-2,9.717850685E0
1.728678686E0,5.802594870E-2,-9.690931439E-2,9.727422714E0
1.731060353E0,6.221338734E-2,-7.776673883E-2,9.727422714E0
1.733442019E0,4.785645381E-2,-7.776673883E-2,9.741779327E0
1.735823686E0,4.307080805E-2,-7.776673883E-2,9.727422714E0
1.738205353E0,5.264209956E-2,-7.298108935E-2,9.722636223E0
1.740587071E0,4.307080805E-2,-9.212367237E-2,9.713065147E0
1.742968738E0,3.828516230E-2,-9.212367237E-2,9.717850685E0
1.745350405E0,3.349951655E-2,-8.255238086E-2,9.722636223E0
1.747732071E0,4.785645381E-2,-8.255238086E-2,9.732208252E0
1.750113790E0,4.785645381E-2,-7.776673883E-2,9.717850685E0
1.752495457E0,5.264209956E-2,-7.776673883E-2,9.713065147E0
1.754877123E0,4.307080805E-2,-8.733802289E-2,9.722636223E0
1.757258790E0,4.785645381E-2,-8.733802289E-2,9.722636223E0
1.759640457E0,4.307080805E-2,-6.819544733E-2,9.727422714E0
1.762022175E0,5.264209956E-2,-8.733802289E-2,9.732208252E0
1.764403842E0,6.699903309E-2,-8.733802289E-2,9.736993790E0
1.766785509E0,3.828516230E-2,-7.776673883E-2,9.727422714E0
1.769167175E0,4.785645381E-2,-7.298108935E-2,9.708279610E0
1.771548894E0,4.307080805E-2,-9.212367237E-2,9.722636223E0
1.773930561E0,4.785645381E-2,-7.776673883E-2,9.717850685E0
1.776312228E0,3.828516230E-2,-8.255238086E-2,9.722636223E0
1.778693894E0,4.366901144E-2,-9.690931439E-2,9.732208252E0
1.781075613E0,3.828516230E-2,-8.255238086E-2,9.736993790E0
1.783457280E0,3.828516230E-2,-8.733802289E-2,9.727422714E0
1.785838946E0,4.785645381E-2,-7.776673883E-2,9.732208252E0
1.788220613E0,5.264209956E-2,-8.255238086E-2,9.722636223E0
1.790602280E0,4.785645381E-2,-7.298108935E-2,9.727422714E0
1.792983998E0,5.264209956E-2,-6.340979785E-2,9.727422714E0
1.795365665E0,5.264209956E-2,-7.298108935E-2,9.722636223E0
1.797747332E0,3.828516230E-2,-6.340979785E-2,9.722636223E0
1.800128998E0,4.785645381E-2,-8.255238086E-2,9.732208252E0
1.802510665E0,6.221338734E-2,-6.819544733E-2,9.732208252E0
1.804892384E0,4.307080805E-2,-7.298108935E-2,9.722636223E0
1.807274050E0,4.307080805E-2,-7.776673883E-2,9.722636223E0
1.809655717E0,4.785645381E-2,-8.733802289E-2,9.736993790E0
1.812037384E0,3.828516230E-2,-6.340979785E-2,9.717850685E0
1.814419103E0,4.785645381E-2,-6.819544733E-2,9.717850685E0
1.816800769E0,3.828516230E-2,-8.733802289E-2,9.727422714E0
1.819182436E0,4.307080805E-2,-9.212367237E-2,9.722636223E0
1.821564103E0,3.828516230E-2,-7.776673883E-2,9.717850685E0
1.823945769E0,4.307080805E-2,-7.776673883E-2,9.722636223E0
1.826327488E0,5.742774159E-2,-8.733802289E-2,9.717850685E0
1.828709155E0,5.264209956E-2,-8.733802289E-2,9.722636223E0
1.831090821E0,4.307080805E-2,-7.776673883E-2,9.713065147E0
1.833472488E0,4.785645381E-2,-8.255238086E-2,9.736993790E0
1.835854207E0,4.785645381E-2,-8.733802289E-2,9.717850685E0
1.838235873E0,6.699903309E-2,-8.255238086E-2,9.732208252E0
1.840617540E0,5.264209956E-2,-7.776673883E-2,9.717850685E0
1.842999207E0,4.845465720E-2,-9.690931439E-2,9.727422714E0
1.845380873E0,5.264209956E-2,-7.776673883E-2,9.717850685E0
1.847762592E0,4.366901144E-2,-9.690931439E-2,9.722636223E0
1.850144259E0,5.264209956E-2,-8.733802289E-2,9.736993790E0
1.852525925E0,5.264209956E-2,-8.255238086E-2,9.741779327E0
1.854907592E0,4.785645381E-2,-8.733802289E-2,9.741779327E0
1.857289311E0,5.742774159E-2,-9.212367237E-2,9.727422714E0
1.859670978E0,4.785645381E-2,-7.776673883E-2,9.727422714E0
1.862052644E0,4.785645381E-2,-7.776673883E-2,9.717850685E0
1.864434311E0,4.307080805E-2,-7.776673883E-2,9.741779327E0
1.866815978E0,4.785645381E-2,-7.298108935E-2,9.736993790E0
1.869197696E0,4.785645381E-2,-7.776673883E-2,9.727422714E0
1.871579363E0,4.785645381E-2,-6.819544733E-2,9.732208252E0
1.873961030E0,5.264209956E-2,-7.776673883E-2,9.717850685E0
1.876342696E0,4.785645381E-2,-7.776673883E-2,9.727422714E0
1.878724363E0,4.785645381E-2,-7.776673883E-2,9.717850685E0
1.881106082E0,4.785645381E-2,-8.255238086E-2,9.727422714E0
1.883487748E0,5.742774159E-2,-7.298108935E-2,9.751350403E0
1.885869415E0,4.785645381E-2,-8.733802289E-2,9.741779327E0
1.888251082E0,4.307080805E-2,-9.212367237E-2,9.727422714E0
1.890632800E0,3.828516230E-2,-9.212367237E-2,9.717850685E0
1.893014467E0,4.785645381E-2,-8.733802289E-2,9.713065147E0
1.895396134E0,5.742774159E-2,-7.298108935E-2,9.722636223E0
1.897777800E0,2.871387079E-2,-7.357929647E-2,9.713065147E0
1.900159519E0,4.785645381E-2,-9.212367237E-2,9.713065147E0
1.902541186E0,3.828516230E-2,-8.733802289E-2,9.717850685E0
1.904922853E0,3.349951655E-2,-8.733802289E-2,9.717850685E0
1.907304519E0,4.785645381E-2,-9.212367237E-2,9.727422714E0
1.909686186E0,2.392822690E-2,-8.733802289E-2,9.732208252E0
1.912067905E0,3.828516230E-2,-7.298108935E-2,9.722636223E0
1.914449571E0,3.828516230E-2,-9.212367237E-2,9.717850685E0
1.916831238E0,4.785645381E-2,-7.776673883E-2,9.732208252E0
1.919212905E0,4.307080805E-2,-8.733802289E-2,9.727422714E0
1.921594571E0,4.307080805E-2,-5.862415582E-2,9.732208252E0
1.923976290E0,5.264209956E-2,-7.776673883E-2,9.741779327E0
1.926357957E0,4.307080805E-2,-7.776673883E-2,9.732208252E0
1.928739623E0,4.307080805E-2,-8.733802289E-2,9.741779327E0
1.931121290E0,4.307080805E-2,-7.298108935E-2,9.736993790E0
1.933503009E0,5.742774159E-2,-8.255238086E-2,9.736993790E0
1.935884675E0,5.264209956E-2,-8.255238086E-2,9.736993790E0
1.938266342E0,4.307080805E-2,-8.733802289E-2,9.727422714E0
1.940648009E0,4.785645381E-2,-8.255238086E-2,9.727422714E0
1.943029675E0,4.785645381E-2,-8.255238086E-2,9.736993790E0
1.945411394E0,4.785645381E-2,-8.255238086E-2,9.727422714E0
1.947793061E0,4.307080805E-2,-8.733802289E-2,9.717850685E0
1.950174728E0,4.845465720E-2,-1.016949639E-1,9.736993790E0
1.952556394E0,5.264209956E-2,-8.733802289E-2,9.732208252E0
1.954938113E0,5.742774159E-2,-7.776673883E-2,9.722636223E0
1.957319780E0,5.264209956E-2,-7.776673883E-2,9.727422714E0
1.959701446E0,5.264209956E-2,-8.255238086E-2,9.722636223E0
1.962083113E0,3.349951655E-2,-8.733802289E-2,9.751350403E0
1.964464832E0,3.828516230E-2,-7.776673883E-2,9.732208252E0
1.966846498E0,5.264209956E-2,-7.776673883E-2,9.717850685E0
1.969228165E0,4.307080805E-2,-7.298108935E-2,9.722636223E0
1.971609832E0,4.307080805E-2,-7.298108935E-2,9.727422714E0
1.973991498E0,3.828516230E-2,-7.776673883E-2,9.732208252E0
1.976373217E0,5.742774159E-2,-8.733802289E-2,9.722636223E0
1.978754884E0,4.785645381E-2,-7.776673883E-2,9.717850685E0
1.981136550E0,4.785645381E-2,-7.776673883E-2,9.736993790E0
1.983518217E0,5.264209956E-2,-8.733802289E-2,9.713065147E0
1.985899884E0,5.264209956E-2,-9.212367237E-2,9.713065147E0
1.988281603E0,5.742774159E-2,-8.733802289E-2,9.727422714E0
1.990663269E0,4.785645381E-2,-8.733802289E-2,9.717850685E0
1.993044936E0,5.264209956E-2,-9.212367237E-2,9.732208252E0
1.995426603E0,4.307080805E-2,-8.255238086E-2,9.736993790E0
1.997808321E0,4.785645381E-2,-7.776673883E-2,9.727422714E0
2.000189988E0,4.785645381E-2,-9.212367237E-2,9.732208252E0
2.002571655E0,5.264209956E-2,-7.298108935E-2,9.736993790E0
2.004953321E0,4.785645381E-2,-7.776673883E-2,9.732208252E0
2.007334988E0,3.828516230E-2,-6.340979785E-2,9.727422714E0
2.009716707E0,5.264209956E-2,-7.776673883E-2,9.727422714E0
2.012098373E0,3.828516230E-2,-7.298108935E-2,9.722636223E0
2.014480040E0,4.785645381E-2,-6.819544733E-2,9.736993790E0
2.016861707E0,4.785645381E-2,-8.255238086E-2,9.722636223E0
2.019243425E0,4.785645381E-2,-8.255238086E-2,9.736993790E0
2.021625092E0,6.221338734E-2,-8.195417374E-2,9.746564865E0
2.024006759E0,3.828516230E-2,-8.255238086E-2,9.741779327E0
2.026388425E0,3.828516230E-2,-7.776673883E-2,9.722636223E0
2.028770144E0,3.828516230E-2,-6.819544733E-2,9.717850685E0
2.031151811E0,4.307080805E-2,-7.776673883E-2,9.736993790E0
2.033533478E0,4.307080805E-2,-8.733802289E-2,9.717850685E0
2.035915144E0,2.871387079E-2,-8.733802289E-2,9.717850685E0
2.038296811E0,2.871387079E-2,-7.298108935E-2,9.717850685E0
2.040678530E0,4.307080805E-2,-7.776673883E-2,9.732208252E0
2.043060196E0,4.307080805E-2,-7.776673883E-2,9.727422714E0
2.045441863E0,3.349951655E-2,-6.340979785E-2,9.727422714E0
2.047823582E0,5.264209956E-2,-6.819544733E-2,9.736993790E0
2.050205248E0,3.828516230E-2,-7.776673883E-2,9.717850685E0
2.052586915E0,5.264209956E-2,-6.340979785E-2,9.732208252E0
2.054968582E0,3.349951655E-2,-9.212367237E-2,9.722636223E0
2.057350248E0,5.264209956E-2,-9.212367237E-2,9.732208252E0
2.059731967E0,4.785645381E-2,-8.733802289E-2,9.732208252E0
2.062113634E0,3.409772366E-2,-9.690931439E-2,9.722636223E0
2.064495300E0,3.888336942E-2,-9.690931439E-2,9.722636223E0
2.066876967E0,5.264209956E-2,-8.733802289E-2,9.732208252E0
2.069258634E0,4.785645381E-2,-9.690931439E-2,9.717850685E0
2.071640353E0,5.264209956E-2,-9.212367237E-2,9.732208252E0
2.074022019E0,5.802594870E-2,-1.016949639E-1,9.736993790E0
2.076403686E0,5.742774159E-2,-8.733802289E-2,9.717850685E0
2.078785353E0,4.307080805E-2,-9.212367237E-2,9.736993790E0
2.081167071E0,5.264209956E-2,-7.776673883E-2,9.736993790E0
2.083548738E0,4.307080805E-2,-7.776673883E-2,9.717850685E0
2.085930405E0,4.307080805E-2,-8.255238086E-2,9.717850685E0
2.088312071E0,4.307080805E-2,-8.255238086E-2,9.703494072E0
2.090693790E0,3.828516230E-2,-8.733802289E-2,9.736993790E0
2.093075457E0,5.264209956E-2,-9.690931439E-2,9.732208252E0
2.095457123E0,5.264209956E-2,-9.212367237E-2,9.732208252E0
2.097838790E0,5.742774159E-2,-8.733802289E-2,9.713065147E0
2.100220457E0,5.264209956E-2,-9.212367237E-2,9.722636223E0
2.102602175E0,5.264209956E-2,-8.255238086E-2,9.732208252E0
2.104983842E0,3.828516230E-2,-8.255238086E-2,9.727422714E0
2.107365509E0,3.828516230E-2,-8.733802289E-2,9.732208252E0
2.109747175E0,3.828516230E-2,-8.255238086E-2,9.736993790E0
2.112128894E0,5.264209956E-2,-8.255238086E-2,9.722636223E0
2.114510561E0,4.785645381E-2,-8.255238086E-2,9.722636223E0
2.116892228E0,3.828516230E-2,-6.819544733E-2,9.732208252E0
2.119273894E0,4.307080805E-2,-8.255238086E-2,9.741779327E0
2.121655561E0,3.349951655E-2,-7.776673883E-2,9.732208252E0
2.124037280E0,4.307080805E-2,-7.298108935E-2,9.732208252E0
2.126418946E0,3.828516230E-2,-7.298108935E-2,9.717850685E0
2.128800613E0,4.785645381E-2,-8.255238086E-2,9.717850685E0
2.131182280E0,4.785645381E-2,-7.298108935E-2,9.722636223E0
2.133563998E0,3.349951655E-2,-9.212367237E-2,9.736993790E0
2.135945665E0,4.845465720E-2,-1.016949639E-1,9.722636223E0
2.138327332E0,4.307080805E-2,-7.776673883E-2,9.717850685E0
2.140708998E0,5.264209956E-2,-7.776673883E-2,9.727422714E0
2.143090717E0,4.307080805E-2,-8.733802289E-2,9.727422714E0
2.145472384E0,4.785645381E-2,-7.776673883E-2,9.736993790E0
2.147854050E0,5.264209956E-2,-8.255238086E-2,9.736993790E0
2.150235717E0,2.871387079E-2,-7.776673883E-2,9.741779327E0
2.152617384E0,3.828516230E-2,-7.776673883E-2,9.736993790E0
2.154999103E0,4.307080805E-2,-9.212367237E-2,9.736993790E0
2.157380769E0,3.828516230E-2,-8.255238086E-2,9.722636223E0
2.159762436E0,3.828516230E-2,-7.776673883E-2,9.722636223E0
2.162144103E0,3.828516230E-2,-8.733802289E-2,9.722636223E0
2.164525821E0,6.221338734E-2,-7.298108935E-2,9.713065147E0
2.166907488E0,4.307080805E-2,-7.776673883E-2,9.717850685E0
2.169289155E0,5.264209956E-2,-8.255238086E-2,9.717850685E0
2.171670821E0,4.307080805E-2,-8.255238086E-2,9.746564865E0
2.174052488E0,3.828516230E-2,-7.298108935E-2,9.741779327E0
2.176434207E0,3.828516230E-2,-8.255238086E-2,9.732208252E0
2.178815873E0,4.785645381E-2,-8.255238086E-2,9.717850685E0
2.181197540E0,2.871387079E-2,-7.776673883E-2,9.727422714E0
2.183579207E0,3.828516230E-2,-8.733802289E-2,9.722636223E0
2.185960925E0,3.828516230E-2,-8.255238086E-2,9.717850685E0
2.188342592E0,4.307080805E-2,-8.255238086E-2,9.732208252E0
2.190724259E0,4.307080805E-2,-7.776673883E-2,9.722636223E0
2.193105925E0,3.828516230E-2,-7.776673883E-2,9.732208252E0
2.195487644E0,5.264209956E-2,-8.733802289E-2,9.736993790E0
2.197869311E0,4.785645381E-2,-8.255238086E-2,9.746564865E0
2.200250978E0,2.871387079E-2,-7.298108935E-2,9.708279610E0
2.202632644E0,2.392822690E-2,-8.793623000E-2,9.689137459E0
2.205014363E0,3.828516230E-2,-9.212367237E-2,9.689137459E0
2.207396030E0,3.349951655E-2,-8.793623000E-2,9.684351921E0
2.209777696E0,5.742774159E-2,-7.776673883E-2,9.736993790E0
2.212159363E0,3.349951655E-2,-7.298108935E-2,9.799206734E0
2.214541030E0,2.871387079E-2,-7.776673883E-2,9.789635658E0
2.216922748E0,1.914258115E-2,-8.255238086E-2,9.756135941E0
2.219304415E0,0.000000000E0,-6.879365444E-2,9.732208252E0
2.221686082E0,-9.571290575E-3,-7.357929647E-2,9.722636223E0
2.224067748E0,1.435693540E-2,-6.340979785E-2,9.741779327E0
2.226449467E0,6.221338734E-2,-8.733802289E-2,9.741779327E0
2.228831134E0,8.135596663E-2,-8.195417374E-2,9.708279610E0
2.231212800E0,1.052841991E-1,-8.673982322E-2,9.679565430E0
2.233594467E0,1.004985496E-1,-1.010967568E-1,9.660423279E0
2.235976186E0,9.092725813E-2,-1.010967568E-1,9.708279610E0
2.238357853E0,7.178468257E-2,-7.716853172E-2,9.746564865E0
2.240739519E0,7.178468257E-2,-7.238288224E-2,9.756135941E0
2.243121186E0,3.828516230E-2,-8.733802289E-2,9.736993790E0
2.245502853E0,5.264209956E-2,-7.776673883E-2,9.751350403E0
2.247884571E0,5.264209956E-2,-7.298108935E-2,9.727422714E0
2.250266238E0,5.264209956E-2,-6.340979785E-2,9.732208252E0
2.252647905E0,4.307080805E-2,-8.733802289E-2,9.746564865E0
2.255029571E0,4.785645381E-2,-8.255238086E-2,9.736993790E0
2.257411290E0,5.264209956E-2,-7.776673883E-2,9.727422714E0
2.259792957E0,4.785645381E-2,-7.776673883E-2,9.713065147E0
2.262174623E0,4.307080805E-2,-7.776673883E-2,9.708279610E0
2.264556290E0,4.785645381E-2,-7.776673883E-2,9.722636223E0
2.266937957E0,3.828516230E-2,-7.776673883E-2,9.732208252E0
2.269319675E0,5.742774159E-2,-7.776673883E-2,9.736993790E0
2.271701342E0,3.349951655E-2,-8.255238086E-2,9.732208252E0
2.274083009E0,3.409772366E-2,-9.690931439E-2,9.713065147E0
2.276464675E0,4.307080805E-2,-8.733802289E-2,9.717850685E0
2.278846394E0,4.785645381E-2,-8.255238086E-2,9.717850685E0
2.281228061E0,5.742774159E-2,-7.298108935E-2,9.717850685E0
2.283609728E0,4.785645381E-2,-8.733802289E-2,9.722636223E0
2.285991394E0,5.264209956E-2,-9.690931439E-2,9.722636223E0
2.288373113E0,4.785645381E-2,-8.255238086E-2,9.732208252E0
2.290754780E0,5.324030295E-2,-9.690931439E-2,9.732208252E0
2.293136446E0,3.828516230E-2,-9.212367237E-2,9.741779327E0
2.295518113E0,4.785645381E-2,-8.733802289E-2,9.746564865E0
2.297899832E0,4.307080805E-2,-7.776673883E-2,9.727422714E0
2.300281498E0,4.785645381E-2,-7.776673883E-2,9.727422714E0
2.302663165E0,4.307080805E-2,-8.733802289E-2,9.708279610E0
2.305044832E0,3.828516230E-2,-7.298108935E-2,9.732208252E0
2.307426498E0,5.264209956E-2,-8.733802289E-2,9.722636223E0
2.309808217E0,4.785645381E-2,-9.212367237E-2,9.713065147E0
2.312189884E0,5.264209956E-2,-7.298108935E-2,9.717850685E0
2.314571550E0,4.307080805E-2,-7.776673883E-2,9.717850685E0
2.316953217E0,4.307080805E-2,-8.733802289E-2,9.722636223E0
2.319334936E0,5.264209956E-2,-9.212367237E-2,9.727422714E0
2.321716603E0,4.307080805E-2,-9.212367237E-2,9.732208252E0
2.324098269E0,3.349951655E-2,-8.255238086E-2,9.741779327E0
2.326479936E0,4.785645381E-2,-8.255238086E-2,9.732208252E0
2.328861655E0,4.785645381E-2,-7.776673883E-2,9.732208252E0
2.331243321E0,3.828516230E-2,-7.776673883E-2,9.717850685E0
2.333624988E0,3.828516230E-2,-8.733802289E-2,9.732208252E0
2.336006655E0,5.264209956E-2,-9.212367237E-2,9.703494072E0
2.338388373E0,3.828516230E-2,-8.733802289E-2,9.708279610E0
2.340770040E0,5.264209956E-2,-8.255238086E-2,9.713065147E0
2.343151707E0,4.785645381E-2,-8.255238086E-2,9.727422714E0
2.345533373E0,3.349951655E-2,-8.255238086E-2,9.732208252E0
2.347915092E0,4.785645381E-2,-7.298108935E-2,9.736993790E0
2.350296759E0,4.785645381E-2,-7.776673883E-2,9.722636223E0
2.352678425E0,3.349951655E-2,-7.298108935E-2,9.736993790E0
2.355060092E0,2.392822690E-2,-7.776673883E-2,9.717850685E0
2.357441811E0,3.349951655E-2,-7.298108935E-2,9.732208252E0
2.359823478E0,4.307080805E-2,-6.819544733E-2,9.722636223E0
2.362205144E0,5.264209956E-2,-8.255238086E-2,9.717850685E0
2.364586811E0,4.307080805E-2,-8.255238086E-2,9.713065147E0
2.366968530E0,4.307080805E-2,-7.298108935E-2,9.732208252E0
2.369350196E0,5.264209956E-2,-7.298108935E-2,9.722636223E0
2.371731863E0,4.785645381E-2,-8.255238086E-2,9.732208252E0
2.374113530E0,4.785645381E-2,-8.255238086E-2,9.736993790E0
2.376495196E0,4.785645381E-2,-8.733802289E-2,9.732208252E0
2.378876915E0,5.264209956E-2,-8.255238086E-2,9.727422714E0
2.381258582E0,4.366901144E-2,-1.016949639E-1,9.722636223E0
2.383640248E0,5.264209956E-2,-7.776673883E-2,9.727422714E0
2.386021915E0,4.307080805E-2,-7.298108935E-2,9.732208252E0
2.388403634E0,4.785645381E-2,-7.298108935E-2,9.722636223E0
2.390785300E0,6.221338734E-2,-8.255238086E-2,9.698708534E0
2.393166967E0,6.221338734E-2,-7.776673883E-2,9.741779327E0
2.395548634E0,3.828516230E-2,-8.733802289E-2,9.732208252E0
2.397930300E0,4.785645381E-2,-7.298108935E-2,9.756135941E0
2.400312019E0,5.742774159E-2,-7.776673883E-2,9.746564865E0
2.402693686E0,5.742774159E-2,-7.776673883E-2,9.727422714E0
2.405075353E0,4.785645381E-2,-7.776673883E-2,9.708279610E0
2.407457019E0,5.264209956E-2,-7.776673883E-2,9.736993790E0
2.409838738E0,5.742774159E-2,-7.776673883E-2,9.722636223E0
2.412220405E0,6.221338734E-2,-6.819544733E-2,9.727422714E0
2.414602071E0,5.264209956E-2,-8.733802289E-2,9.708279610E0
2.416983738E0,3.349951655E-2,-6.340979785E-2,9.717850685E0
2.419365457E0,4.307080805E-2,-7.776673883E-2,9.727422714E0
2.421747123E0,4.785645381E-2,-7.776673883E-2,9.722636223E0
2.424128790E0,4.307080805E-2,-8.733802289E-2,9.732208252E0
2.426510457E0,3.828516230E-2,-7.776673883E-2,9.741779327E0
2.428892175E0,5.324030295E-2,-9.690931439E-2,9.736993790E0
2.431273842E0,2.871387079E-2,-8.733802289E-2,9.732208252E0
2.433655509E0,4.785645381E-2,-7.776673883E-2,9.727422714E0
2.436037175E0,3.828516230E-2,-7.776673883E-2,9.736993790E0
2.438418894E0,4.785645381E-2,-8.733802289E-2,9.727422714E0
2.440800561E0,5.264209956E-2,-7.776673883E-2,9.713065147E0
2.443182228E0,3.828516230E-2,-8.255238086E-2,9.732208252E0
2.445563894E0,5.264209956E-2,-9.212367237E-2,9.727422714E0
2.447945561E0,3.349951655E-2,-8.255238086E-2,9.722636223E0
2.450327280E0,4.785645381E-2,-9.212367237E-2,9.717850685E0
2.452708946E0,3.349951655E-2,-8.733802289E-2,9.717850685E0
2.455090613E0,3.828516230E-2,-7.776673883E-2,9.727422714E0
2.457472280E0,4.307080805E-2,-7.776673883E-2,9.717850685E0
2.459853998E0,5.742774159E-2,-8.733802289E-2,9.736993790E0
2.462235665E0,5.264209956E-2,-7.776673883E-2,9.727422714E0
2.464617332E0,4.785645381E-2,-7.776673883E-2,9.727422714E0
2.466998998E0,4.307080805E-2,-7.776673883E-2,9.722636223E0
2.469380717E0,4.307080805E-2,-6.340979785E-2,9.722636223E0
2.471762384E0,3.828516230E-2,-7.298108935E-2,9.713065147E0
2.474144050E0,3.828516230E-2,-7.776673883E-2,9.722636223E0
2.476525717E0,2.871387079E-2,-7.298108935E-2,9.741779327E0
2.478907436E0,5.742774159E-2,-7.776673883E-2,9.732208252E0
2.481289103E0,4.785645381E-2,-9.212367237E-2,9.732208252E0
2.483670769E0,5.264209956E-2,-8.255238086E-2,9.717850685E0
2.486052436E0,4.307080805E-2,-8.255238086E-2,9.736993790E0
2.488434155E0,4.307080805E-2,-7.776673883E-2,9.732208252E0
2.490815821E0,3.828516230E-2,-8.255238086E-2,9.732208252E0
2.493197488E0,4.366901144E-2,-9.690931439E-2,9.717850685E0
2.495579155E0,3.349951655E-2,-8.733802289E-2,9.722636223E0
2.497960873E0,5.264209956E-2,-8.733802289E-2,9.736993790E0
2.500342540E0,6.221338734E-2,-9.212367237E-2,9.736993790E0
2.502724207E0,4.785645381E-2,-7.776673883E-2,9.727422714E0
2.505105873E0,4.785645381E-2,-9.212367237E-2,9.741779327E0
2.507487592E0,4.785645381E-2,-7.298108935E-2,9.732208252E0
2.509869259E0,4.785645381E-2,-8.255238086E-2,9.732208252E0
2.512250925E0,5.264209956E-2,-7.776673883E-2,9.727422714E0
2.514632592E0,5.264209956E-2,-8.255238086E-2,9.722636223E0
2.517014259E0,5.264209956E-2,-9.212367237E-2,9.746564865E0
2.519395978E0,4.307080805E-2,-8.255238086E-2,9.727422714E0
2.521777644E0,4.307080805E-2,-6.819544733E-2,9.722636223E0
2.524159311E0,4.307080805E-2,-7.298108935E-2,9.736993790E0
2.526540978E0,5.264209956E-2,-7.776673883E-2,9.732208252E0
2.528922696E0,5.264209956E-2,-6.819544733E-2,9.727422714E0
2.531304363E0,4.785645381E-2,-8.255238086E-2,9.722636223E0
2.533686030E0,4.307080805E-2,-8.255238086E-2,9.727422714E0
2.536067696E0,6.221338734E-2,-9.212367237E-2,9.727422714E0
2.538449415E0,4.785645381E-2,-7.298108935E-2,9.722636223E0
2.540831082E0,4.307080805E-2,-8.733802289E-2,9.732208252E0
2.543212748E0,4.307080805E-2,-7.776673883E-2,9.736993790E0
2.545594415E0,3.828516230E-2,-8.733802289E-2,9.689137459E0
2.547976134E0,4.785645381E-2,-9.212367237E-2,9.717850685E0
2.550357800E0,4.785645381E-2,-9.212367237E-2,9.741779327E0
2.552739467E0,3.828516230E-2,-7.776673883E-2,9.732208252E0
2.555121134E0,4.307080805E-2,-7.776673883E-2,9.722636223E0
2.557502800E0,5.264209956E-2,-7.298108935E-2,9.736993790E0
2.559884519E0,5.264209956E-2,-8.733802289E-2,9.708279610E0
2.562266186E0,6.221338734E-2,-8.733802289E-2,9.717850685E0
2.564647853E0,4.785645381E-2,-8.255238086E-2,9.722636223E0
2.567029519E0,4.307080805E-2,-9.212367237E-2,9.722636223E0
2.569411238E0,3.409772366E-2,-9.690931439E-2,9.736993790E0
2.571792905E0,3.828516230E-2,-8.733802289E-2,9.746564865E0
2.574174571E0,3.828516230E-2,-7.776673883E-2,9.751350403E0
2.576556238E0,4.785645381E-2,-8.733802289E-2,9.727422714E0
2.578937957E0,5.742774159E-2,-6.819544733E-2,9.708279610E0
2.581319623E0,5.742774159E-2,-9.212367237E-2,9.713065147E0
2.583701290E0,4.307080805E-2,-7.776673883E-2,9.732208252E0
2.586082957E0,5.264209956E-2,-7.298108935E-2,9.727422714E0
2.588464675E0,4.307080805E-2,-8.733802289E-2,9.736993790E0
2.590846342E0,4.366901144E-2,-9.690931439E-2,9.741779327E0
2.593228009E0,5.264209956E-2,-8.255238086E-2,9.736993790E0
2.595609675E0,5.264209956E-2,-8.255238086E-2,9.746564865E0
2.597991394E0,3.828516230E-2,-8.255238086E-2,9.732208252E0
2.600373061E0,3.409772366E-2,-9.690931439E-2,9.736993790E0
2.602754728E0,4.307080805E-2,-9.212367237E-2,9.727422714E0
2.605136394E0,4.307080805E-2,-8.255238086E-2,9.713065147E0
2.607518113E0,4.785645381E-2,-8.733802289E-2,9.717850685E0
2.609899780E0,4.307080805E-2,-8.733802289E-2,9.717850685E0
2.612281446E0,4.785645381E-2,-8.255238086E-2,9.708279610E0
2.614663113E0,4.307080805E-2,-7.776673883E-2,9.717850685E0
2.617044832E0,3.349951655E-2,-8.733802289E-2,9.736993790E0
2.619426498E0,4.785645381E-2,-8.733802289E-2,9.741779327E0
2.621808165E0,2.871387079E-2,-7.776673883E-2,9.746564865E0
2.624189832E0,3.828516230E-2,-8.733802289E-2,9.732208252E0
2.626571550E0,2.871387079E-2,-8.733802289E-2,9.722636223E0
2.628953217E0,4.785645381E-2,-7.776673883E-2,9.727422714E0
2.631334884E0,4.307080805E-2,-8.733802289E-2,9.722636223E0
2.633716550E0,3.349951655E-2,-7.776673883E-2,9.722636223E0
2.636098217E0,4.366901144E-2,-9.690931439E-2,9.732208252E0
2.638479936E0,4.307080805E-2,-9.212367237E-2,9.713065147E0
2.640861603E0,3.888336942E-2,-9.690931439E-2,9.713065147E0
2.643243269E0,3.828516230E-2,-9.212367237E-2,9.713065147E0
2.645624936E0,4.307080805E-2,-8.255238086E-2,9.727422714E0
2.648006655E0,4.785645381E-2,-8.733802289E-2,9.732208252E0
2.650388321E0,5.742774159E-2,-7.776673883E-2,9.736993790E0
2.652769988E0,4.785645381E-2,-7.776673883E-2,9.732208252E0
2.655151655E0,3.828516230E-2,-7.776673883E-2,9.722636223E0
2.657533373E0,4.785645381E-2,-7.298108935E-2,9.732208252E0
2.659915040E0,5.264209956E-2,-8.255238086E-2,9.722636223E0
2.662296707E0,5.264209956E-2,-9.212367237E-2,9.713065147E0
2.664678373E0,4.785645381E-2,-8.733802289E-2,9.727422714E0
2.667060092E0,4.785645381E-2,-8.255238086E-2,9.727422714E0
2.669441759E0,3.828516230E-2,-8.255238086E-2,9.713065147E0
2.671823425E0,4.307080805E-2,-8.255238086E-2,9.736993790E0
2.674205092E0,3.349951655E-2,-8.255238086E-2,9.732208252E0
2.676586811E0,5.264209956E-2,-8.255238086E-2,9.736993790E0
2.678968478E0,5.264209956E-2,-7.298108935E-2,9.732208252E0
2.681350144E0,5.264209956E-2,-7.776673883E-2,9.736993790E0
2.683731811E0,4.785645381E-2,-8.255238086E-2,9.736993790E0
2.686113530E0,6.221338734E-2,-7.298108935E-2,9.722636223E0
2.688495196E0,6.699903309E-2,-7.776673883E-2,9.722636223E0
2.690876863E0,7.657032460E-2,-7.298108935E-2,9.713065147E0
2.693258530E0,6.221338734E-2,-8.255238086E-2,9.732208252E0
2.695640248E0,5.264209956E-2,-8.255238086E-2,9.751350403E0
2.698021915E0,3.828516230E-2,-8.733802289E-2,9.741779327E0
2.700403582E0,4.785645381E-2,-8.255238086E-2,9.732208252E0
2.702785248E0,4.307080805E-2,-7.776673883E-2,9.732208252E0
2.705166967E0,5.264209956E-2,-8.733802289E-2,9.732208252E0
2.707548634E0,5.264209956E-2,-8.733802289E-2,9.722636223E0
2.709930300E0,4.785645381E-2,-8.733802289E-2,9.741779327E0
2.712311967E0,3.828516230E-2,-9.212367237E-2,9.732208252E0
2.714693634E0,3.828516230E-2,-8.733802289E-2,9.717850685E0
2.717075353E0,5.324030295E-2,-9.690931439E-2,9.732208252E0
2.719457019E0,3.828516230E-2,-8.733802289E-2,9.713065147E0
2.721838686E0,5.264209956E-2,-7.776673883E-2,9.722636223E0
2.724220353E0,5.264209956E-2,-6.819544733E-2,9.732208252E0
2.726602071E0,3.828516230E-2,-8.255238086E-2,9.727422714E0
2.728983738E0,4.785645381E-2,-8.255238086E-2,9.727422714E0
2.731365405E0,3.409772366E-2,-1.016949639E-1,9.713065147E0
2.733747071E0,5.324030295E-2,-1.016949639E-1,9.713065147E0
2.736128790E0,5.742774159E-2,-9.212367237E-2,9.703494072E0
2.738510457E0,3.828516230E-2,-8.255238086E-2,9.727422714E0
2.740892123E0,5.264209956E-2,-8.733802289E-2,9.746564865E0
2.743273790E0,5.264209956E-2,-8.733802289E-2,9.746564865E0
2.745655509E0,3.828516230E-2,-7.776673883E-2,9.751350403E0
2.748037175E0,3.828516230E-2,-9.212367237E-2,9.736993790E0
2.750418842E0,3.349951655E-2,-8.733802289E-2,9.717850685E0
2.752800509E0,4.785645381E-2,-7.776673883E-2,9.713065147E0
2.755182228E0,4.307080805E-2,-7.776673883E-2,9.722636223E0
2.757563894E0,4.307080805E-2,-9.212367237E-2,9.717850685E0
2.759945561E0,5.742774159E-2,-8.255238086E-2,9.713065147E0
2.762327228E0,4.785645381E-2,-9.212367237E-2,9.717850685E0
2.764708946E0,3.349951655E-2,-8.733802289E-2,9.727422714E0
2.767090613E0,4.307080805E-2,-8.255238086E-2,9.746564865E0
2.769472280E0,4.307080805E-2,-8.733802289E-2,9.736993790E0
2.771853946E0,4.307080805E-2,-9.212367237E-2,9.746564865E0
2.774235665E0,4.366901144E-2,-9.690931439E-2,9.732208252E0
2.776617332E0,5.264209956E-2,-7.776673883E-2,9.717850685E0
2.778998998E0,3.349951655E-2,-8.733802289E-2,9.722636223E0
2.781380665E0,5.742774159E-2,-7.776673883E-2,9.722636223E0
2.783762384E0,4.307080805E-2,-7.298108935E-2,9.722636223E0
2.786144050E0,5.264209956E-2,-8.733802289E-2,9.727422714E0
2.788525717E0,4.785645381E-2,-8.733802289E-2,9.713065147E0
2.790907384E0,4.307080805E-2,-8.733802289E-2,9.727422714E0
2.793289103E0,4.307080805E-2,-8.255238086E-2,9.713065147E0
2.795670769E0,4.785645381E-2,-8.255238086E-2,9.722636223E0
2.798052436E0,4.307080805E-2,-6.819544733E-2,9.717850685E0
2.800434103E0,4.785645381E-2,-6.340979785E-2,9.722636223E0
2.802815821E0,4.307080805E-2,-8.255238086E-2,9.732208252E0
2.805197488E0,3.828516230E-2,-8.733802289E-2,9.741779327E0
2.807579155E0,4.785645381E-2,-7.776673883E-2,9.713065147E0
2.809960821E0,4.785645381E-2,-7.298108935E-2,9.732208252E0
2.812342488E0,5.742774159E-2,-6.819544733E-2,9.717850685E0
2.814724207E0,5.264209956E-2,-6.819544733E-2,9.722636223E0
2.817105873E0,5.742774159E-2,-7.298108935E-2,9.722636223E0
2.819487540E0,4.307080805E-2,-6.819544733E-2,9.713065147E0
2.821869207E0,3.828516230E-2,-7.776673883E-2,9.722636223E0
2.824250925E0,3.828516230E-2,-8.733802289E-2,9.727422714E0
2.826632592E0,4.307080805E-2,-9.212367237E-2,9.722636223E0
2.829014259E0,4.307080805E-2,-7.776673883E-2,9.727422714E0
2.831395978E0,5.742774159E-2,-7.776673883E-2,9.736993790E0
2.833777644E0,5.742774159E-2,-8.255238086E-2,9.713065147E0
2.836159311E0,5.742774159E-2,-7.776673883E-2,9.717850685E0
2.838540978E0,4.307080805E-2,-7.776673883E-2,9.732208252E0
2.840922644E0,4.307080805E-2,-8.255238086E-2,9.717850685E0
2.843304363E0,5.264209956E-2,-7.776673883E-2,9.717850685E0
2.845686030E0,4.785645381E-2,-7.298108935E-2,9.732208252E0
2.848067696E0,3.828516230E-2,-7.298108935E-2,9.736993790E0
2.850449415E0,6.221338734E-2,-9.212367237E-2,9.741779327E0
2.852831082E0,5.324030295E-2,-9.690931439E-2,9.736993790E0
2.855212748E0,5.742774159E-2,-8.733802289E-2,9.722636223E0
2.857594415E0,3.888336942E-2,-9.690931439E-2,9.736993790E0
2.859976134E0,4.307080805E-2,-8.255238086E-2,9.727422714E0
2.862357800E0,5.264209956E-2,-8.733802289E-2,9.703494072E0
2.864739467E0,4.785645381E-2,-8.255238086E-2,9.717850685E0
2.867121134E0,2.931207791E-2,-1.016949639E-1,9.727422714E0
2.869502800E0,3.828516230E-2,-8.255238086E-2,9.717850685E0
2.871884519E0,4.307080805E-2,-8.733802289E-2,9.727422714E0
2.874266186E0,3.349951655E-2,-9.212367237E-2,9.732208252E0
2.876647853E0,3.828516230E-2,-8.255238086E-2,9.736993790E0
2.879029519E0,4.307080805E-2,-8.733802289E-2,9.741779327E0
2.881411238E0,2.931207791E-2,-9.212367237E-2,9.741779327E0
2.883792905E0,4.307080805E-2,-8.255238086E-2,9.727422714E0
2.886174571E0,3.828516230E-2,-8.733802289E-2,9.727422714E0
2.888556238E0,5.264209956E-2,-9.212367237E-2,9.727422714E0
2.890937957E0,5.264209956E-2,-8.255238086E-2,9.713065147E0
2.893319623E0,4.307080805E-2,-8.733802289E-2,9.703494072E0
2.895701290E0,4.307080805E-2,-8.733802289E-2,9.693922997E0
2.898082957E0,3.828516230E-2,-7.776673883E-2,9.732208252E0
2.900464675E0,4.307080805E-2,-7.298108935E-2,9.756135941E0
2.902846342E0,3.349951655E-2,-7.298108935E-2,9.765707016E0
2.905228009E0,4.785645381E-2,-7.776673883E-2,9.736993790E0
2.907609675E0,3.828516230E-2,-8.255238086E-2,9.717850685E0
2.909991394E0,4.785645381E-2,-8.255238086E-2,9.717850685E0
2.912373061E0,4.307080805E-2,-8.255238086E-2,9.732208252E0
2.914754728E0,5.264209956E-2,-8.733802289E-2,9.693922997E0
2.917136394E0,5.264209956E-2,-7.776673883E-2,9.717850685E0
2.919518113E0,5.264209956E-2,-9.212367237E-2,9.722636223E0
2.921899780E0,4.307080805E-2,-7.298108935E-2,9.732208252E0
2.924281446E0,3.828516230E-2,-5.862415582E-2,9.732208252E0
2.926663113E0,3.349951655E-2,-6.819544733E-2,9.736993790E0
2.929044832E0,6.221338734E-2,-7.298108935E-2,9.722636223E0
2.931426498E0,5.742774159E-2,-7.298108935E-2,9.732208252E0
2.933808165E0,5.264209956E-2,-6.819544733E-2,9.713065147E0
2.936189884E0,5.264209956E-2,-7.776673883E-2,9.717850685E0
2.938571550E0,5.324030295E-2,-9.690931439E-2,9.722636223E0
2.940953217E0,3.828516230E-2,-8.255238086E-2,9.727422714E0
2.943334884E0,4.785645381E-2,-9.212367237E-2,9.717850685E0
2.945716550E0,5.742774159E-2,-8.733802289E-2,9.732208252E0
2.948098269E0,5.742774159E-2,-8.255238086E-2,9.717850685E0
2.950479936E0,4.785645381E-2,-8.255238086E-2,9.722636223E0
2.952861603E0,5.264209956E-2,-7.776673883E-2,9.751350403E0
2.955243321E0,4.785645381E-2,-8.733802289E-2,9.732208252E0
2.957624988E0,4.785645381E-2,-9.212367237E-2,9.732208252E0
2.960006655E0,4.785645381E-2,-9.212367237E-2,9.751350403E0
2.962388321E0,4.785645381E-2,-9.212367237E-2,9.741779327E0
2.964770040E0,5.742774159E-2,-8.733802289E-2,9.732208252E0
2.967151707E0,5.264209956E-2,-7.776673883E-2,9.727422714E0
2.969533373E0,6.221338734E-2,-8.255238086E-2,9.727422714E0
2.971915040E0,5.324030295E-2,-9.690931439E-2,9.727422714E0
2.974296759E0,5.264209956E-2,-8.733802289E-2,9.717850685E0
2.976678425E0,6.699903309E-2,-8.733802289E-2,9.722636223E0
2.979060092E0,4.307080805E-2,-9.212367237E-2,9.727422714E0
2.981441759E0,4.366901144E-2,-9.690931439E-2,9.732208252E0
2.983823478E0,4.307080805E-2,-9.212367237E-2,9.732208252E0
2.986205144E0,4.845465720E-2,-1.064806059E-1,9.727422714E0
2.988586811E0,4.366901144E-2,-9.690931439E-2,9.741779327E0
2.990968478E0,4.307080805E-2,-8.733802289E-2,9.732208252E0
2.993350144E0,5.264209956E-2,-8.733802289E-2,9.741779327E0
2.995731863E0,4.785645381E-2,-7.298108935E-2,9.727422714E0
2.998113530E0,4.785645381E-2,-9.212367237E-2,9.722636223E0
3.000495196E0,4.785645381E-2,-8.255238086E-2,9.727422714E0
3.002876863E0,3.349951655E-2,-8.255238086E-2,9.717850685E0
3.005258582E0,4.845465720E-2,-9.690931439E-2,9.722636223E0
3.007640248E0,3.828516230E-2,-7.298108935E-2,9.722636223E0
3.010021915E0,4.307080805E-2,-7.776673883E-2,9.722636223E0
3.012403634E0,4.785645381E-2,-8.255238086E-2,9.713065147E0
3.014785300E0,3.828516230E-2,-7.298108935E-2,9.722636223E0
3.017166967E0,4.785645381E-2,-7.776673883E-2,9.727422714E0
3.019548634E0,4.785645381E-2,-5.862415582E-2,9.741779327E0
3.021930353E0,4.307080805E-2,-6.340979785E-2,9.746564865E0
3.024312019E0,5.264209956E-2,-7.298108935E-2,9.722636223E0
3.026693686E0,4.307080805E-2,-5.862415582E-2,9.732208252E0
3.029075353E0,2.871387079E-2,-6.340979785E-2,9.727422714E0
3.031457019E0,3.349951655E-2,-8.733802289E-2,9.703494072E0
3.033838738E0,4.307080805E-2,-8.733802289E-2,9.727422714E0
3.036220405E0,4.307080805E-2,-8.733802289E-2,9.741779327E0
3.038602071E0,5.264209956E-2,-8.255238086E-2,9.736993790E0
3.040983790E0,6.221338734E-2,-8.733802289E-2,9.732208252E0
3.043365457E0,4.785645381E-2,-8.733802289E-2,9.732208252E0
3.045747123E0,4.785645381E-2,-6.819544733E-2,9.741779327E0
3.048128790E0,3.828516230E-2,-8.255238086E-2,9.736993790E0
3.050510509E0,4.307080805E-2,-7.776673883E-2,9.751350403E0
3.052892175E0,5.264209956E-2,-7.776673883E-2,9.736993790E0
3.055273842E0,3.828516230E-2,-8.255238086E-2,9.727422714E0
3.057655509E0,5.742774159E-2,-6.819544733E-2,9.727422714E0
3.060037228E0,4.307080805E-2,-7.776673883E-2,9.741779327E0
3.062418894E0,5.324030295E-2,-9.690931439E-2,9.727422714E0
3.064800561E0,5.324030295E-2,-9.690931439E-2,9.717850685E0
3.067182228E0,5.264209956E-2,-8.255238086E-2,9.713065147E0
3.069563946E0,4.845465720E-2,-1.064806059E-1,9.727422714E0
3.071945613E0,3.349951655E-2,-8.733802289E-2,9.727422714E0
3.074327280E0,4.785645381E-2,-8.733802289E-2,9.732208252E0
3.076708946E0,4.307080805E-2,-8.733802289E-2,9.722636223E0
3.079090665E0,3.888336942E-2,-1.016949639E-1,9.727422714E0
3.081472332E0,3.828516230E-2,-9.212367237E-2,9.722636223E0
3.083853998E0,3.828516230E-2,-8.733802289E-2,9.722636223E0
3.086235665E0,5.324030295E-2,-9.690931439E-2,9.736993790E0
3.088617384E0,5.324030295E-2,-1.016949639E-1,9.732208252E0
3.090999050E0,2.452643216E-2,-1.064806059E-1,9.717850685E0
3.093380717E0,4.366901144E-2,-1.016949639E-1,9.722636223E0
3.095762384E0,2.931207791E-2,-9.212367237E-2,9.732208252E0
3.098144103E0,4.785645381E-2,-9.212367237E-2,9.717850685E0
3.100525769E0,3.349951655E-2,-8.255238086E-2,9.736993790E0
3.102907436E0,2.871387079E-2,-8.733802289E-2,9.727422714E0
3.105289103E0,3.828516230E-2,-9.212367237E-2,9.732208252E0
3.107670821E0,3.349951655E-2,-8.255238086E-2,9.727422714E0
3.110052488E0,2.871387079E-2,-7.776673883E-2,9.746564865E0
3.112434155E0,4.785645381E-2,-7.298108935E-2,9.780064583E0
3.114815873E0,4.307080805E-2,-8.733802289E-2,9.703494072E0
3.117197540E0,1.914258115E-2,-8.315058798E-2,9.717850685E0
3.119579207E0,6.699903309E-2,-7.776673883E-2,9.684351921E0
3.121960873E0,3.349951655E-2,-8.793623000E-2,9.583852768E0
3.124342540E0,2.871387079E-2,-7.776673883E-2,9.746564865E0
3.126724259E0,1.914258115E-2,-6.819544733E-2,9.823135376E0
3.129105925E0,2.392822690E-2,-7.298108935E-2,9.784850121E0
3.131487592E0,4.307080805E-2,-7.776673883E-2,9.732208252E0
3.133869259E0,4.307080805E-2,-7.298108935E-2,9.713065147E0
3.136250978E0,4.307080805E-2,-7.776673883E-2,9.736993790E0
3.138632644E0,4.785645381E-2,-7.298108935E-2,9.765707016E0
3.141014311E0,4.785645381E-2,-7.298108935E-2,9.784850121E0
3.143395978E0,3.828516230E-2,-6.340979785E-2,9.727422714E0
3.145777696E0,4.785645381E-2,-7.298108935E-2,9.665208817E0
3.148159363E0,5.264209956E-2,-6.819544733E-2,9.674779892E0
3.150541030E0,7.178468257E-2,-7.298108935E-2,9.698708534E0
3.152922748E0,3.349951655E-2,-7.776673883E-2,9.732208252E0
3.155304415E0,5.264209956E-2,-8.255238086E-2,9.751350403E0
3.157686082E0,3.888336942E-2,-1.016949639E-1,9.751350403E0
3.160067748E0,5.742774159E-2,-7.776673883E-2,9.727422714E0
3.162449467E0,3.828516230E-2,-7.776673883E-2,9.722636223E0
3.164831134E0,4.366901144E-2,-9.690931439E-2,9.717850685E0
3.167212800E0,6.699903309E-2,-6.759724021E-2,9.760921478E0
3.169594467E0,6.221338734E-2,-8.255238086E-2,9.751350403E0
3.171976186E0,6.699903309E-2,-8.255238086E-2,9.727422714E0
3.174357853E0,4.307080805E-2,-6.819544733E-2,9.717850685E0
3.176739519E0,4.307080805E-2,-8.255238086E-2,9.717850685E0
3.179121186E0,5.742774159E-2,-7.298108935E-2,9.698708534E0
3.181502905E0,3.828516230E-2,-8.733802289E-2,9.727422714E0
3.183884571E0,3.828516230E-2,-9.212367237E-2,9.727422714E0
3.186266238E0,4.785645381E-2,-9.212367237E-2,9.717850685E0
3.188647905E0,4.307080805E-2,-8.255238086E-2,9.717850685E0
3.191029623E0,5.324030295E-2,-9.690931439E-2,9.732208252E0
3.193411290E0,3.828516230E-2,-7.298108935E-2,9.741779327E0
3.195792957E0,4.307080805E-2,-7.298108935E-2,9.751350403E0
3.198174623E0,4.785645381E-2,-8.255238086E-2,9.746564865E0
3.200556342E0,4.307080805E-2,-8.733802289E-2,9.736993790E0
3.202938009E0,6.221338734E-2,-8.733802289E-2,9.713065147E0
3.205319675E0,5.264209956E-2,-8.733802289E-2,9.727422714E0
3.207701394E0,4.307080805E-2,-8.733802289E-2,9.727422714E0
3.210083061E0,5.264209956E-2,-7.776673883E-2,9.741779327E0
3.212464728E0,4.785645381E-2,-6.819544733E-2,9.732208252E0
3.214846394E0,4.307080805E-2,-8.733802289E-2,9.727422714E0
3.217228061E0,4.307080805E-2,-7.298108935E-2,9.727422714E0
3.219609780E0,5.264209956E-2,-6.340979785E-2,9.736993790E0
3.221991446E0,4.307080805E-2,-7.298108935E-2,9.736993790E0
3.224373113E0,4.307080805E-2,-7.298108935E-2,9.722636223E0
3.226754832E0,3.828516230E-2,-7.776673883E-2,9.722636223E0
3.229136498E0,3.349951655E-2,-7.776673883E-2,9.708279610E0
3.231518165E0,4.307080805E-2,-7.776673883E-2,9.713065147E0
3.233899832E0,3.888336942E-2,-9.690931439E-2,9.713065147E0
3.236281550E0,2.392822690E-2,-8.255238086E-2,9.722636223E0
3.238663217E0,4.307080805E-2,-9.212367237E-2,9.732208252E0
3.241044884E0,4.307080805E-2,-8.733802289E-2,9.727422714E0
3.243426550E0,4.307080805E-2,-7.776673883E-2,9.717850685E0
3.245808269E0,3.349951655E-2,-7.776673883E-2,9.727422714E0
3.248189936E0,3.828516230E-2,-8.733802289E-2,9.722636223E0
3.250571603E0,5.742774159E-2,-7.776673883E-2,9.736993790E0
3.252953269E0,4.785645381E-2,-7.776673883E-2,9.713065147E0
3.255334988E0,2.871387079E-2,-8.733802289E-2,9.708279610E0
3.257716655E0,2.871387079E-2,-8.255238086E-2,9.717850685E0
3.260098321E0,3.349951655E-2,-7.776673883E-2,9.713065147E0
3.262479988E0,3.349951655E-2,-8.255238086E-2,9.732208252E0
3.264861707E0,3.828516230E-2,-8.733802289E-2,9.727422714E0
3.267243373E0,3.349951655E-2,-8.733802289E-2,9.732208252E0
3.269625040E0,4.307080805E-2,-8.255238086E-2,9.732208252E0
3.272006707E0,3.828516230E-2,-9.212367237E-2,9.727422714E0
3.274388425E0,4.845465720E-2,-1.016949639E-1,9.736993790E0
3.276770092E0,4.307080805E-2,-7.776673883E-2,9.732208252E0
3.279151759E0,3.828516230E-2,-8.255238086E-2,9.727422714E0
3.281533425E0,5.264209956E-2,-8.733802289E-2,9.732208252E0
3.283915144E0,4.785645381E-2,-8.733802289E-2,9.722636223E0
3.286296811E0,3.349951655E-2,-8.733802289E-2,9.727422714E0
3.288678478E0,4.366901144E-2,-9.690931439E-2,9.727422714E0
3.291060196E0,5.742774159E-2,-8.255238086E-2,9.736993790E0
3.293441863E0,5.742774159E-2,-8.733802289E-2,9.736993790E0
3.295823530E0,5.264209956E-2,-8.733802289E-2,9.732208252E0
3.298205196E0,5.264209956E-2,-9.212367237E-2,9.722636223E0
3.300586915E0,4.845465720E-2,-9.690931439E-2,9.717850685E0
3.302968582E0,5.742774159E-2,-9.212367237E-2,9.732208252E0
3.305350248E0,4.785645381E-2,-9.212367237E-2,9.732208252E0
3.307731915E0,2.392822690E-2,-8.255238086E-2,9.736993790E0
3.310113634E0,6.221338734E-2,-8.733802289E-2,9.736993790E0
3.312495300E0,4.785645381E-2,-9.212367237E-2,9.736993790E0
3.314876967E0,3.828516230E-2,-8.255238086E-2,9.727422714E0
3.317258634E0,4.785645381E-2,-8.733802289E-2,9.722636223E0
3.319640353E0,4.366901144E-2,-9.690931439E-2,9.727422714E0
3.322022019E0,5.264209956E-2,-7.776673883E-2,9.727422714E0
3.324403686E0,4.785645381E-2,-7.776673883E-2,9.732208252E0
3.326785353E0,3.828516230E-2,-9.212367237E-2,9.741779327E0
3.329167071E0,4.307080805E-2,-7.298108935E-2,9.722636223E0
3.331548738E0,6.221338734E-2,-8.255238086E-2,9.713065147E0
3.333930405E0,5.742774159E-2,-7.776673883E-2,9.722636223E0
3.336312071E0,4.307080805E-2,-7.298108935E-2,9.732208252E0
3.338693790E0,5.264209956E-2,-7.776673883E-2,9.741779327E0
3.341075457E0,4.785645381E-2,-7.776673883E-2,9.722636223E0
3.343457123E0,3.349951655E-2,-7.776673883E-2,9.746564865E0
3.345838842E0,3.349951655E-2,-7.298108935E-2,9.741779327E0
3.348220509E0,4.307080805E-2,-7.298108935E-2,9.736993790E0
3.350602175E0,4.785645381E-2,-6.819544733E-2,9.727422714E0
3.352983842E0,3.828516230E-2,-7.298108935E-2,9.732208252E0
3.355365561E0,4.307080805E-2,-7.776673883E-2,9.717850685E0
3.357747228E0,4.307080805E-2,-8.255238086E-2,9.717850685E0
3.360128894E0,4.785645381E-2,-8.733802289E-2,9.722636223E0
3.362510561E0,3.828516230E-2,-8.733802289E-2,9.727422714E0
3.364892280E0,3.409772366E-2,-9.690931439E-2,9.732208252E0
3.367273946E0,4.307080805E-2,-8.255238086E-2,9.727422714E0
3.369655613E0,4.785645381E-2,-6.819544733E-2,9.736993790E0
3.372037280E0,5.742774159E-2,-9.212367237E-2,9.741779327E0
3.374418998E0,5.264209956E-2,-6.340979785E-2,9.736993790E0
3.376800665E0,6.221338734E-2,-8.255238086E-2,9.736993790E0
3.379182332E0,4.845465720E-2,-9.690931439E-2,9.732208252E0
3.381563998E0,3.828516230E-2,-7.298108935E-2,9.736993790E0
3.383945717E0,4.785645381E-2,-8.255238086E-2,9.717850685E0
3.386327384E0,3.828516230E-2,-8.733802289E-2,9.708279610E0
3.388709050E0,3.349951655E-2,-7.776673883E-2,9.698708534E0
3.391090717E0,2.392822690E-2,-7.357929647E-2,9.713065147E0
3.393472436E0,4.307080805E-2,-7.776673883E-2,9.727422714E0
3.395854103E0,3.349951655E-2,-8.255238086E-2,9.732208252E0
3.398235769E0,2.931207791E-2,-9.690931439E-2,9.732208252E0
3.400617436E0,4.307080805E-2,-9.212367237E-2,9.732208252E0
3.402999155E0,4.785645381E-2,-8.733802289E-2,9.746564865E0
3.405380821E0,4.307080805E-2,-8.255238086E-2,9.727422714E0
3.407762488E0,4.845465720E-2,-9.690931439E-2,9.732208252E0
3.410144207E0,2.871387079E-2,-7.298108935E-2,9.732208252E0
3.412525873E0,4.785645381E-2,-6.819544733E-2,9.722636223E0
3.414907540E0,4.785645381E-2,-6.340979785E-2,9.713065147E0
3.417289207E0,5.742774159E-2,-8.733802289E-2,9.713065147E0
3.419670925E0,3.828516230E-2,-8.733802289E-2,9.713065147E0
3.422052592E0,4.307080805E-2,-7.776673883E-2,9.727422714E0
3.424434259E0,5.264209956E-2,-6.819544733E-2,9.727422714E0
3.426815925E0,3.828516230E-2,-8.255238086E-2,9.727422714E0
3.429197644E0,4.785645381E-2,-7.776673883E-2,9.727422714E0
3.431579311E0,3.828516230E-2,-6.819544733E-2,9.746564865E0
3.433960978E0,5.264209956E-2,-8.733802289E-2,9.741779327E0
3.436342644E0,5.264209956E-2,-6.819544733E-2,9.727422714E0
3.438724363E0,3.828516230E-2,-8.255238086E-2,9.741779327E0
3.441106030E0,3.828516230E-2,-8.255238086E-2,9.717850685E0
3.443487696E0,4.785645381E-2,-8.255238086E-2,9.727422714E0
3.445869415E0,4.785645381E-2,-8.255238086E-2,9.722636223E0
3.448251082E0,5.264209956E-2,-7.776673883E-2,9.722636223E0
3.450632748E0,4.307080805E-2,-7.298108935E-2,9.736993790E0
3.453014415E0,4.307080805E-2,-7.776673883E-2,9.717850685E0
3.455396134E0,4.307080805E-2,-7.776673883E-2,9.736993790E0
3.457777800E0,4.307080805E-2,-7.776673883E-2,9.727422714E0
3.460159467E0,2.871387079E-2,-8.733802289E-2,9.732208252E0
3.462541134E0,2.871387079E-2,-7.776673883E-2,9.732208252E0
3.464922853E0,3.828516230E-2,-8.255238086E-2,9.741779327E0
3.467304519E0,3.349951655E-2,-8.255238086E-2,9.746564865E0
3.469686186E0,3.828516230E-2,-7.776673883E-2,9.722636223E0
3.472067853E0,5.264209956E-2,-7.776673883E-2,9.708279610E0
3.474449571E0,3.828516230E-2,-8.255238086E-2,9.722636223E0
3.476831238E0,4.845465720E-2,-9.690931439E-2,9.722636223E0
3.479212905E0,4.307080805E-2,-8.733802289E-2,9.722636223E0
3.481594571E0,4.785645381E-2,-9.212367237E-2,9.732208252E0
3.483976290E0,4.845465720E-2,-9.690931439E-2,9.722636223E0
3.486357957E0,3.828516230E-2,-8.733802289E-2,9.736993790E0
3.488739623E0,4.307080805E-2,-9.212367237E-2,9.727422714E0
3.491121290E0,4.785645381E-2,-9.690931439E-2,9.703494072E0
3.493503009E0,6.759724021E-2,-1.016949639E-1,9.703494072E0
3.495884675E0,5.264209956E-2,-8.255238086E-2,9.717850685E0
3.498266342E0,4.785645381E-2,-9.212367237E-2,9.722636223E0
3.500648061E0,4.366901144E-2,-1.064806059E-1,9.717850685E0
3.503029728E0,6.699903309E-2,-9.631111473E-2,9.736993790E0
3.505411394E0,5.742774159E-2,-8.733802289E-2,9.746564865E0
3.507840665E0,6.699903309E-2,-9.212367237E-2,9.717850685E0
3.510269936E0,4.366901144E-2,-9.690931439E-2,9.722636223E0
3.512699207E0,5.742774159E-2,-9.212367237E-2,9.732208252E0
3.515128478E0,4.366901144E-2,-1.016949639E-1,9.732208252E0
3.517557905E0,5.324030295E-2,-1.112662554E-1,9.722636223E0
3.519987175E0,5.264209956E-2,-9.212367237E-2,9.722636223E0
3.522416446E0,4.785645381E-2,-8.733802289E-2,9.713065147E0
3.524845717E0,3.888336942E-2,-1.016949639E-1,9.727422714E0
3.527275040E0,3.828516230E-2,-9.212367237E-2,9.727422714E0
3.529704311E0,2.931207791E-2,-1.016949639E-1,9.727422714E0
3.532133582E0,3.349951655E-2,-7.776673883E-2,9.722636223E0
3.534562905E0,2.871387079E-2,-8.733802289E-2,9.722636223E0
3.536992175E0,2.871387079E-2,-7.298108935E-2,9.732208252E0
3.539421446E0,2.871387079E-2,-8.255238086E-2,9.746564865E0
3.541850717E0,1.435693540E-2,-6.340979785E-2,9.746564865E0
3.544280040E0,2.871387079E-2,-7.776673883E-2,9.727422714E0
3.546709311E0,4.307080805E-2,-8.255238086E-2,9.722636223E0
3.549138582E0,3.349951655E-2,-6.819544733E-2,9.717850685E0
3.551567853E0,3.828516230E-2,-5.862415582E-2,9.717850685E0
3.553997175E0,4.785645381E-2,-7.298108935E-2,9.727422714E0
3.556426446E0,4.785645381E-2,-6.340979785E-2,9.713065147E0
3.558855717E0,3.349951655E-2,-6.819544733E-2,9.722636223E0
3.561284988E0,3.828516230E-2,-6.340979785E-2,9.727422714E0
3.563714311E0,4.785645381E-2,-4.426721856E-2,9.726823807E0
3.566143582E0,4.785645381E-2,-5.862415582E-2,9.727422714E0
3.568572853E0,3.828516230E-2,-7.298108935E-2,9.736993790E0
3.571002123E0,3.349951655E-2,-7.776673883E-2,9.727422714E0
3.573431446E0,3.349951655E-2,-7.776673883E-2,9.732208252E0
3.575860717E0,4.307080805E-2,-7.298108935E-2,9.722636223E0
3.578289988E0,5.264209956E-2,-6.819544733E-2,9.722636223E0
3.580719311E0,5.264209956E-2,-8.255238086E-2,9.727422714E0
3.583148582E0,5.264209956E-2,-8.733802289E-2,9.732208252E0
3.585577853E0,4.845465720E-2,-9.690931439E-2,9.736993790E0
3.588007123E0,5.264209956E-2,-8.255238086E-2,9.727422714E0
3.590436446E0,3.828516230E-2,-7.776673883E-2,9.741779327E0
3.592865717E0,4.785645381E-2,-8.733802289E-2,9.732208252E0
3.595294988E0,4.307080805E-2,-8.255238086E-2,9.736993790E0
3.597724259E0,3.828516230E-2,-8.255238086E-2,9.722636223E0
3.600153582E0,5.742774159E-2,-9.690931439E-2,9.717850685E0
3.602582853E0,4.785645381E-2,-8.733802289E-2,9.722636223E0
3.605012123E0,4.785645381E-2,-9.212367237E-2,9.717850685E0
3.607441446E0,4.845465720E-2,-9.690931439E-2,9.727422714E0
3.609870717E0,4.366901144E-2,-9.690931439E-2,9.713065147E0
3.612299988E0,4.845465720E-2,-1.016949639E-1,9.717850685E0
3.614729259E0,5.264209956E-2,-9.690931439E-2,9.722636223E0
3.617158582E0,4.845465720E-2,-1.064806059E-1,9.732208252E0
3.619587853E0,4.785645381E-2,-9.690931439E-2,9.722636223E0
3.622017123E0,4.785645381E-2,-9.212367237E-2,9.736993790E0
3.624446394E0,4.845465720E-2,-9.690931439E-2,9.727422714E0
3.626875717E0,4.785645381E-2,-8.255238086E-2,9.727422714E0
3.629258790E0,4.307080805E-2,-8.255238086E-2,9.732208252E0
3.631640457E0,4.785645381E-2,-7.776673883E-2,9.727422714E0
3.634022123E0,3.349951655E-2,-9.212367237E-2,9.713065147E0
3.636403842E0,5.742774159E-2,-8.733802289E-2,9.727422714E0
3.638785509E0,5.264209956E-2,-7.776673883E-2,9.732208252E0
3.641167175E0,4.785645381E-2,-7.298108935E-2,9.722636223E0
3.643548842E0,4.785645381E-2,-7.298108935E-2,9.727422714E0
3.645930561E0,5.264209956E-2,-6.340979785E-2,9.722636223E0
3.648312228E0,5.264209956E-2,-6.819544733E-2,9.732208252E0
3.650693894E0,5.264209956E-2,-6.340979785E-2,9.741779327E0
3.653075613E0,5.264209956E-2,-8.733802289E-2,9.722636223E0
3.655457280E0,5.264209956E-2,-6.340979785E-2,9.708279610E0
3.657838946E0,5.742774159E-2,-7.776673883E-2,9.732208252E0
3.660220613E0,3.828516230E-2,-6.819544733E-2,9.736993790E0
3.662602332E0,5.264209956E-2,-5.862415582E-2,9.732208252E0
3.664983998E0,5.264209956E-2,-7.776673883E-2,9.732208252E0
3.667365665E0,4.307080805E-2,-7.298108935E-2,9.741779327E0
3.669747332E0,3.828516230E-2,-6.819544733E-2,9.727422714E0
3.672129050E0,4.307080805E-2,-7.298108935E-2,9.708279610E0
3.674510717E0,4.307080805E-2,-7.298108935E-2,9.722636223E0
3.676892384E0,4.785645381E-2,-6.819544733E-2,9.727422714E0
3.679274103E0,5.742774159E-2,-8.255238086E-2,9.722636223E0
3.681655769E0,5.264209956E-2,-6.819544733E-2,9.736993790E0
3.684037436E0,6.221338734E-2,-7.776673883E-2,9.736993790E0
3.686419103E0,7.178468257E-2,-7.238288224E-2,9.741779327E0
3.688800821E0,5.264209956E-2,-7.776673883E-2,9.736993790E0
3.691182488E0,4.785645381E-2,-7.776673883E-2,9.736993790E0
3.693564155E0,4.366901144E-2,-9.690931439E-2,9.717850685E0
3.695945821E0,4.307080805E-2,-9.690931439E-2,9.703494072E0
3.698327540E0,5.742774159E-2,-8.255238086E-2,9.698708534E0
3.700709207E0,3.349951655E-2,-9.212367237E-2,9.717850685E0
3.703090873E0,3.888336942E-2,-9.690931439E-2,9.717850685E0
3.705472592E0,4.307080805E-2,-9.212367237E-2,9.727422714E0
3.707854259E0,4.845465720E-2,-9.690931439E-2,9.732208252E0
3.710235925E0,4.307080805E-2,-8.255238086E-2,9.732208252E0
3.712617592E0,4.785645381E-2,-8.255238086E-2,9.741779327E0
3.714999311E0,4.307080805E-2,-8.255238086E-2,9.751350403E0
3.717380978E0,3.828516230E-2,-8.255238086E-2,9.746564865E0
3.719762644E0,4.785645381E-2,-8.255238086E-2,9.732208252E0
3.722144311E0,4.307080805E-2,-7.776673883E-2,9.722636223E0
3.724526030E0,3.888336942E-2,-9.690931439E-2,9.736993790E0
3.726907696E0,4.366901144E-2,-9.690931439E-2,9.722636223E0
3.729289363E0,4.845465720E-2,-9.690931439E-2,9.717850685E0
3.731671082E0,3.828516230E-2,-9.212367237E-2,9.713065147E0
3.734052748E0,4.785645381E-2,-7.298108935E-2,9.713065147E0
3.736434415E0,3.828516230E-2,-8.733802289E-2,9.727422714E0
3.738816082E0,5.264209956E-2,-8.255238086E-2,9.722636223E0
3.741197800E0,4.307080805E-2,-6.819544733E-2,9.727422714E0
3.743579467E0,4.307080805E-2,-7.776673883E-2,9.727422714E0
3.745961134E0,5.264209956E-2,-8.733802289E-2,9.727422714E0
3.748342800E0,4.307080805E-2,-7.776673883E-2,9.736993790E0
3.750724519E0,4.785645381E-2,-8.733802289E-2,9.732208252E0
3.753106186E0,5.742774159E-2,-9.212367237E-2,9.722636223E0
3.755487853E0,4.307080805E-2,-7.776673883E-2,9.732208252E0
3.757869571E0,5.742774159E-2,-7.298108935E-2,9.732208252E0
3.760251238E0,5.264209956E-2,-8.733802289E-2,9.722636223E0
3.762632905E0,3.828516230E-2,-8.733802289E-2,9.703494072E0
3.765014571E0,3.828516230E-2,-7.776673883E-2,9.717850685E0
3.767396238E0,4.307080805E-2,-7.298108935E-2,9.722636223E0
3.769777957E0,3.828516230E-2,-7.776673883E-2,9.732208252E0
3.772159623E0,3.828516230E-2,-7.776673883E-2,9.741779327E0
3.774541290E0,3.828516230E-2,-8.733802289E-2,9.717850685E0
3.776923009E0,4.785645381E-2,-6.819544733E-2,9.703494072E0
3.779304675E0,4.307080805E-2,-8.733802289E-2,9.717850685E0
3.781686342E0,4.307080805E-2,-6.819544733E-2,9.722636223E0
3.784068009E0,5.264209956E-2,-7.776673883E-2,9.727422714E0
3.786449728E0,5.264209956E-2,-8.733802289E-2,9.732208252E0
3.788831394E0,5.264209956E-2,-7.776673883E-2,9.717850685E0
3.791213061E0,5.742774159E-2,-8.255238086E-2,9.722636223E0
3.793594780E0,5.742774159E-2,-8.255238086E-2,9.727422714E0
3.795976446E0,3.888336942E-2,-9.690931439E-2,9.722636223E0
3.798358113E0,5.264209956E-2,-8.733802289E-2,9.732208252E0
3.800739780E0,5.742774159E-2,-8.733802289E-2,9.732208252E0
3.803121498E0,4.366901144E-2,-9.690931439E-2,9.727422714E0
3.805503165E0,5.742774159E-2,-7.776673883E-2,9.722636223E0
3.807884832E0,5.264209956E-2,-9.212367237E-2,9.717850685E0
3.810266498E0,5.264209956E-2,-7.298108935E-2,9.722636223E0
3.812648217E0,5.324030295E-2,-9.690931439E-2,9.736993790E0
3.815029884E0,5.742774159E-2,-6.819544733E-2,9.722636223E0
3.817411550E0,4.785645381E-2,-7.298108935E-2,9.722636223E0
3.819793217E0,4.307080805E-2,-8.255238086E-2,9.732208252E0
3.822174936E0,6.221338734E-2,-6.819544733E-2,9.732208252E0
3.824556603E0,3.828516230E-2,-8.255238086E-2,9.736993790E0
3.826938269E0,4.307080805E-2,-8.255238086E-2,9.727422714E0
3.829319988E0,5.742774159E-2,-8.255238086E-2,9.722636223E0
3.831701655E0,5.264209956E-2,-7.776673883E-2,9.722636223E0
3.834083321E0,3.828516230E-2,-6.819544733E-2,9.717850685E0
3.836464988E0,4.307080805E-2,-8.733802289E-2,9.722636223E0
3.838846707E0,5.264209956E-2,-8.255238086E-2,9.722636223E0
3.841228373E0,4.307080805E-2,-7.776673883E-2,9.727422714E0
3.843610040E0,3.828516230E-2,-9.212367237E-2,9.722636223E0
3.845991759E0,4.785645381E-2,-8.733802289E-2,9.708279610E0
3.848373425E0,3.828516230E-2,-8.733802289E-2,9.727422714E0
3.850755092E0,3.409772366E-2,-1.016949639E-1,9.722636223E0
3.853136759E0,3.828516230E-2,-9.212367237E-2,9.732208252E0
3.855518478E0,3.409772366E-2,-1.016949639E-1,9.727422714E0
3.857900144E0,3.349951655E-2,-8.733802289E-2,9.727422714E0
3.860281811E0,1.914258115E-2,-8.733802289E-2,9.736993790E0
3.862663530E0,3.349951655E-2,-5.862415582E-2,9.736993790E0
3.865045196E0,5.742774159E-2,-8.733802289E-2,9.722636223E0
3.867426863E0,3.349951655E-2,-8.733802289E-2,9.693922997E0
3.869808530E0,5.742774159E-2,-9.690931439E-2,9.708279610E0
3.872190248E0,5.264209956E-2,-8.733802289E-2,9.689137459E0
3.874571915E0,4.785645381E-2,-9.212367237E-2,9.713065147E0
3.876953582E0,4.785645381E-2,-7.298108935E-2,9.732208252E0
3.879335248E0,4.785645381E-2,-7.776673883E-2,9.741779327E0
3.881716967E0,3.349951655E-2,-7.776673883E-2,9.741779327E0
3.884098634E0,3.828516230E-2,-8.255238086E-2,9.746564865E0
3.886480300E0,4.307080805E-2,-7.776673883E-2,9.756135941E0
3.888862019E0,5.264209956E-2,-7.776673883E-2,9.741779327E0
3.891243686E0,4.845465720E-2,-9.690931439E-2,9.736993790E0
3.893625353E0,5.742774159E-2,-8.733802289E-2,9.722636223E0
3.896007019E0,6.221338734E-2,-8.733802289E-2,9.703494072E0
3.898388738E0,6.221338734E-2,-8.255238086E-2,9.708279610E0
3.900770405E0,4.785645381E-2,-8.733802289E-2,9.698708534E0
3.903152071E0,4.785645381E-2,-8.255238086E-2,9.717850685E0
3.905533738E0,4.307080805E-2,-7.776673883E-2,9.727422714E0
3.907915457E0,5.264209956E-2,-9.212367237E-2,9.736993790E0
3.910297123E0,4.307080805E-2,-8.733802289E-2,9.736993790E0
3.912678790E0,4.785645381E-2,-6.340979785E-2,9.751350403E0
3.915060509E0,6.699903309E-2,-7.716853172E-2,9.756135941E0
3.917442175E0,4.785645381E-2,-7.776673883E-2,9.732208252E0
3.919823842E0,6.221338734E-2,-8.255238086E-2,9.732208252E0
3.922205509E0,5.264209956E-2,-8.255238086E-2,9.722636223E0
3.924587228E0,3.828516230E-2,-7.776673883E-2,9.722636223E0
3.926968894E0,4.307080805E-2,-6.819544733E-2,9.713065147E0
3.929350561E0,3.828516230E-2,-6.819544733E-2,9.708279610E0
3.931732228E0,4.307080805E-2,-9.212367237E-2,9.713065147E0
3.934113946E0,4.307080805E-2,-7.298108935E-2,9.722636223E0
3.936495613E0,5.264209956E-2,-7.298108935E-2,9.732208252E0
3.938877280E0,4.785645381E-2,-7.776673883E-2,9.722636223E0
3.941258998E0,4.785645381E-2,-7.776673883E-2,9.722636223E0
3.943640665E0,4.307080805E-2,-8.733802289E-2,9.722636223E0
3.946022332E0,4.785645381E-2,-8.733802289E-2,9.722636223E0
3.948403998E0,5.264209956E-2,-7.776673883E-2,9.736993790E0
3.950785717E0,4.785645381E-2,-7.298108935E-2,9.736993790E0
3.953167384E0,4.785645381E-2,-7.298108935E-2,9.732208252E0
3.955549050E0,4.307080805E-2,-7.776673883E-2,9.717850685E0
3.957930717E0,5.742774159E-2,-8.733802289E-2,9.722636223E0
3.960312436E0,4.307080805E-2,-9.212367237E-2,9.727422714E0
3.962694103E0,5.742774159E-2,-8.733802289E-2,9.746564865E0
3.965075769E0,5.264209956E-2,-8.733802289E-2,9.736993790E0
3.967457488E0,4.785645381E-2,-9.690931439E-2,9.732208252E0
3.969839155E0,4.785645381E-2,-8.255238086E-2,9.717850685E0
3.972220821E0,4.307080805E-2,-9.212367237E-2,9.722636223E0
3.974602488E0,4.307080805E-2,-9.690931439E-2,9.727422714E0
3.976984207E0,4.785645381E-2,-8.733802289E-2,9.722636223E0
3.979365873E0,5.802594870E-2,-1.016949639E-1,9.722636223E0
3.981747540E0,4.307080805E-2,-8.733802289E-2,9.732208252E0
3.984129259E0,3.828516230E-2,-9.212367237E-2,9.732208252E0
3.986510925E0,2.931207791E-2,-1.064806059E-1,9.703494072E0
3.988892592E0,2.871387079E-2,-9.750752151E-2,9.669994354E0
3.991274259E0,5.264209956E-2,-9.212367237E-2,9.669994354E0
3.993655978E0,4.845465720E-2,-1.016949639E-1,9.703494072E0
3.996037644E0,4.307080805E-2,-7.776673883E-2,9.775279045E0
3.998419311E0,3.828516230E-2,-7.238288224E-2,9.813564301E0
4.000801030E0,3.828516230E-2,-8.733802289E-2,9.760921478E0
4.003182696E0,3.409772366E-2,-9.690931439E-2,9.736993790E0
4.005564363E0,3.828516230E-2,-8.733802289E-2,9.703494072E0
4.007946030E0,3.349951655E-2,-9.212367237E-2,9.689137459E0
4.010327748E0,3.349951655E-2,-8.255238086E-2,9.713065147E0
4.012709415E0,3.349951655E-2,-8.733802289E-2,9.698708534E0
4.015091082E0,3.409772366E-2,-1.016949639E-1,9.684351921E0
4.017472800E0,5.264209956E-2,-9.212367237E-2,9.703494072E0
4.019854467E0,3.828516230E-2,-7.298108935E-2,9.727422714E0
4.022236134E0,4.785645381E-2,-7.298108935E-2,9.760921478E0
4.024617800E0,3.349951655E-2,-7.776673883E-2,9.770493507E0
4.026999519E0,4.307080805E-2,-5.862415582E-2,9.741779327E0
4.029381186E0,4.307080805E-2,-7.776673883E-2,9.717850685E0
4.031762853E0,4.307080805E-2,-7.298108935E-2,9.708279610E0
4.034144571E0,4.307080805E-2,-6.819544733E-2,9.727422714E0
4.036526238E0,4.785645381E-2,-8.733802289E-2,9.713065147E0
4.038907905E0,4.785645381E-2,-5.862415582E-2,9.722636223E0
4.041289571E0,5.264209956E-2,-6.819544733E-2,9.717850685E0
4.043671290E0,5.742774159E-2,-8.733802289E-2,9.713065147E0
4.046052957E0,4.785645381E-2,-8.255238086E-2,9.732208252E0
4.048434623E0,7.178468257E-2,-7.716853172E-2,9.732208252E0
4.050816290E0,5.264209956E-2,-7.776673883E-2,9.746564865E0
4.053198009E0,5.742774159E-2,-8.255238086E-2,9.727422714E0
4.055579675E0,3.828516230E-2,-9.690931439E-2,9.713065147E0
4.057961342E0,4.307080805E-2,-8.255238086E-2,9.727422714E0
4.060343061E0,5.264209956E-2,-8.255238086E-2,9.732208252E0
4.062724728E0,5.264209956E-2,-8.733802289E-2,9.741779327E0
4.065106394E0,4.307080805E-2,-9.212367237E-2,9.746564865E0
4.067488061E0,4.307080805E-2,-9.212367237E-2,9.717850685E0
4.069869780E0,2.871387079E-2,-8.733802289E-2,9.722636223E0
4.072251446E0,3.409772366E-2,-9.690931439E-2,9.722636223E0
4.074633113E0,4.307080805E-2,-7.776673883E-2,9.713065147E0
4.077014780E0,4.307080805E-2,-7.776673883E-2,9.746564865E0
4.079396498E0,4.366901144E-2,-9.690931439E-2,9.741779327E0
4.081778165E0,5.264209956E-2,-9.212367237E-2,9.722636223E0
4.084159832E0,2.871387079E-2,-9.212367237E-2,9.727422714E0
4.086541550E0,3.349951655E-2,-8.255238086E-2,9.732208252E0
4.088923217E0,3.409772366E-2,-1.016949639E-1,9.741779327E0
4.091304884E0,4.845465720E-2,-1.016949639E-1,9.736993790E0
4.093686550E0,2.871387079E-2,-8.255238086E-2,9.717850685E0
4.096068269E0,3.828516230E-2,-8.255238086E-2,9.722636223E0
4.098449936E0,3.828516230E-2,-7.776673883E-2,9.722636223E0
4.100831603E0,4.307080805E-2,-8.255238086E-2,9.722636223E0
4.103213321E0,3.828516230E-2,-8.255238086E-2,9.722636223E0
4.105594988E0,4.307080805E-2,-8.255238086E-2,9.717850685E0
4.107976655E0,4.307080805E-2,-8.733802289E-2,9.727422714E0
4.110358321E0,4.307080805E-2,-7.776673883E-2,9.717850685E0
4.112740040E0,4.307080805E-2,-8.255238086E-2,9.727422714E0
4.115121707E0,4.307080805E-2,-7.776673883E-2,9.732208252E0
4.117503373E0,4.785645381E-2,-8.255238086E-2,9.722636223E0
4.119885040E0,5.264209956E-2,-6.340979785E-2,9.732208252E0
4.122266759E0,3.349951655E-2,-8.255238086E-2,9.722636223E0
4.124648425E0,4.785645381E-2,-8.733802289E-2,9.727422714E0
4.127030092E0,6.221338734E-2,-8.733802289E-2,9.717850685E0
4.129411811E0,3.828516230E-2,-9.212367237E-2,9.722636223E0
4.131793478E0,5.742774159E-2,-7.776673883E-2,9.722636223E0
4.134175144E0,5.264209956E-2,-8.255238086E-2,9.732208252E0
4.136556863E0,4.307080805E-2,-7.776673883E-2,9.727422714E0
4.138938530E0,4.785645381E-2,-7.298108935E-2,9.727422714E0
4.141320196E0,4.785645381E-2,-8.733802289E-2,9.727422714E0
4.143701863E0,5.742774159E-2,-7.298108935E-2,9.736993790E0
4.146083582E0,5.264209956E-2,-8.733802289E-2,9.732208252E0
4.148465248E0,6.221338734E-2,-8.673982322E-2,9.736993790E0
4.150846915E0,4.307080805E-2,-6.819544733E-2,9.736993790E0
4.153228634E0,4.785645381E-2,-7.776673883E-2,9.717850685E0
4.155610300E0,4.307080805E-2,-6.819544733E-2,9.703494072E0
4.157991967E0,4.845465720E-2,-1.016949639E-1,9.722636223E0
4.160373634E0,3.888336942E-2,-1.016949639E-1,9.722636223E0
4.162755353E0,3.409772366E-2,-9.690931439E-2,9.722636223E0
4.165137019E0,3.888336942E-2,-1.064806059E-1,9.727422714E0
4.167518686E0,4.845465720E-2,-1.016949639E-1,9.722636223E0
4.169900353E0,4.307080805E-2,-9.212367237E-2,9.717850685E0
4.172282071E0,4.307080805E-2,-9.212367237E-2,9.722636223E0
4.174663738E0,3.349951655E-2,-9.212367237E-2,9.732208252E0
4.177045405E0,3.828516230E-2,-9.212367237E-2,9.736993790E0
4.179427123E0,3.409772366E-2,-9.690931439E-2,9.717850685E0
4.181808790E0,4.307080805E-2,-8.733802289E-2,9.717850685E0
4.184190457E0,3.828516230E-2,-8.733802289E-2,9.727422714E0
4.186572123E0,3.349951655E-2,-8.255238086E-2,9.736993790E0
4.188953842E0,3.828516230E-2,-8.733802289E-2,9.736993790E0
4.191335509E0,5.742774159E-2,-8.255238086E-2,9.727422714E0
4.193717175E0,4.307080805E-2,-9.212367237E-2,9.727422714E0
4.196098894E0,4.785645381E-2,-8.255238086E-2,9.727422714E0
4.198480561E0,4.307080805E-2,-8.255238086E-2,9.727422714E0
4.200862228E0,4.785645381E-2,-6.819544733E-2,9.746564865E0
4.203243894E0,4.785645381E-2,-6.819544733E-2,9.717850685E0
4.205625613E0,4.307080805E-2,-7.298108935E-2,9.732208252E0
4.208007280E0,5.264209956E-2,-7.776673883E-2,9.713065147E0
4.210388946E0,4.785645381E-2,-6.340979785E-2,9.727422714E0
4.212770665E0,4.307080805E-2,-8.255238086E-2,9.727422714E0
4.215152332E0,4.785645381E-2,-8.255238086E-2,9.713065147E0
4.217533998E0,6.699903309E-2,-8.673982322E-2,9.722636223E0
4.219915665E0,5.742774159E-2,-6.819544733E-2,9.717850685E0
4.222297384E0,3.828516230E-2,-8.733802289E-2,9.703494072E0
4.224679050E0,4.785645381E-2,-7.298108935E-2,9.713065147E0
4.227060717E0,4.307080805E-2,-9.212367237E-2,9.736993790E0
4.229442436E0,5.264209956E-2,-6.819544733E-2,9.736993790E0
4.231824103E0,5.742774159E-2,-7.776673883E-2,9.732208252E0
4.234205769E0,4.785645381E-2,-7.776673883E-2,9.727422714E0
4.236587436E0,4.785645381E-2,-8.733802289E-2,9.736993790E0
4.238969155E0,3.828516230E-2,-9.212367237E-2,9.727422714E0
4.241350821E0,5.742774159E-2,-1.016949639E-1,9.713065147E0
4.243732488E0,4.845465720E-2,-1.016949639E-1,9.727422714E0
4.246114207E0,3.409772366E-2,-9.690931439E-2,9.727422714E0
4.248495873E0,4.307080805E-2,-8.255238086E-2,9.732208252E0
4.250877540E0,4.785645381E-2,-8.255238086E-2,9.713065147E0
4.253259207E0,4.785645381E-2,-9.690931439E-2,9.727422714E0
4.255640925E0,3.888336942E-2,-1.016949639E-1,9.732208252E0
4.258022592E0,4.785645381E-2,-8.255238086E-2,9.722636223E0
4.260404259E0,3.409772366E-2,-9.690931439E-2,9.732208252E0
4.262785978E0,3.349951655E-2,-8.255238086E-2,9.732208252E0
4.265167644E0,2.871387079E-2,-9.212367237E-2,9.727422714E0
4.267549311E0,4.366901144E-2,-1.064806059E-1,9.727422714E0
4.269931030E0,2.871387079E-2,-8.255238086E-2,9.717850685E0
4.272312696E0,4.307080805E-2,-9.212367237E-2,9.722636223E0
4.274694363E0,3.828516230E-2,-9.212367237E-2,9.722636223E0
4.277076030E0,3.349951655E-2,-8.733802289E-2,9.713065147E0
4.279457748E0,3.349951655E-2,-8.255238086E-2,9.722636223E0
4.281839415E0,4.845465720E-2,-1.112662554E-1,9.708279610E0
4.284221082E0,3.349951655E-2,-9.212367237E-2,9.736993790E0
4.286602748E0,5.264209956E-2,-9.212367237E-2,9.732208252E0
4.288984467E0,3.349951655E-2,-9.212367237E-2,9.727422714E0
4.291366134E0,3.349951655E-2,-7.298108935E-2,9.741779327E0
4.293747800E0,3.828516230E-2,-8.733802289E-2,9.732208252E0
4.296129519E0,4.785645381E-2,-9.212367237E-2,9.717850685E0
4.298511186E0,4.307080805E-2,-7.298108935E-2,9.717850685E0
4.300892853E0,2.871387079E-2,-8.733802289E-2,9.717850685E0
4.303274519E0,4.307080805E-2,-8.733802289E-2,9.732208252E0
4.305656238E0,5.742774159E-2,-8.255238086E-2,9.732208252E0
4.308037905E0,5.264209956E-2,-7.776673883E-2,9.722636223E0
4.310419571E0,4.307080805E-2,-8.733802289E-2,9.717850685E0
4.312801290E0,5.264209956E-2,-7.776673883E-2,9.722636223E0
4.315182957E0,3.349951655E-2,-6.819544733E-2,9.722636223E0
4.317564623E0,2.871387079E-2,-7.298108935E-2,9.722636223E0
4.319946342E0,4.785645381E-2,-6.340979785E-2,9.722636223E0
4.322328009E0,4.307080805E-2,-7.776673883E-2,9.746564865E0
4.324709675E0,5.742774159E-2,-7.298108935E-2,9.727422714E0
4.327091342E0,4.307080805E-2,-6.340979785E-2,9.722636223E0
4.329473061E0,4.307080805E-2,-6.819544733E-2,9.722636223E0
4.331854728E0,4.785645381E-2,-6.819544733E-2,9.703494072E0
4.334236394E0,3.828516230E-2,-6.340979785E-2,9.713065147E0
4.336618061E0,4.785645381E-2,-5.862415582E-2,9.736993790E0
4.338999780E0,7.178468257E-2,-7.238288224E-2,9.736993790E0
4.341381446E0,6.221338734E-2,-6.340979785E-2,9.741779327E0
4.343763113E0,5.264209956E-2,-8.733802289E-2,9.732208252E0
4.346144832E0,6.699903309E-2,-7.298108935E-2,9.722636223E0
4.348526498E0,4.785645381E-2,-7.298108935E-2,9.727422714E0
4.350908165E0,4.785645381E-2,-7.298108935E-2,9.717850685E0
4.353289832E0,5.742774159E-2,-8.733802289E-2,9.722636223E0
4.355671550E0,4.307080805E-2,-7.776673883E-2,9.727422714E0
4.358053217E0,5.264209956E-2,-7.298108935E-2,9.732208252E0
4.360434884E0,5.264209956E-2,-8.255238086E-2,9.722636223E0
4.362816603E0,5.264209956E-2,-8.255238086E-2,9.732208252E0
4.365198269E0,5.742774159E-2,-9.212367237E-2,9.708279610E0
4.367579936E0,4.307080805E-2,-8.733802289E-2,9.717850685E0
4.369961603E0,4.785645381E-2,-9.212367237E-2,9.722636223E0
4.372343321E0,3.828516230E-2,-6.340979785E-2,9.722636223E0
4.374724988E0,6.221338734E-2,-8.733802289E-2,9.727422714E0
4.377106655E0,5.264209956E-2,-7.298108935E-2,9.732208252E0
4.379488373E0,4.785645381E-2,-7.298108935E-2,9.717850685E0
4.381870040E0,4.307080805E-2,-7.298108935E-2,9.732208252E0
4.384251707E0,5.264209956E-2,-6.819544733E-2,9.751350403E0
4.386633373E0,5.264209956E-2,-9.690931439E-2,9.722636223E0
4.389015092E0,4.785645381E-2,-9.212367237E-2,9.722636223E0
4.391396759E0,3.828516230E-2,-7.298108935E-2,9.727422714E0
4.393778425E0,4.307080805E-2,-9.212367237E-2,9.722636223E0
4.396160144E0,3.349951655E-2,-8.733802289E-2,9.717850685E0
4.398541811E0,2.871387079E-2,-9.212367237E-2,9.732208252E0
4.400923478E0,1.974078640E-2,-1.016949639E-1,9.732208252E0
4.403305196E0,2.931207791E-2,-1.016949639E-1,9.736993790E0
4.405686863E0,2.931207791E-2,-1.064806059E-1,9.746564865E0
4.408068530E0,3.409772366E-2,-1.016949639E-1,9.708279610E0
4.410450196E0,2.931207791E-2,-9.690931439E-2,9.717850685E0
4.412831915E0,1.495514158E-2,-9.690931439E-2,9.741779327E0
4.415213582E0,3.349951655E-2,-9.212367237E-2,9.703494072E0
4.417595248E0,3.409772366E-2,-1.064806059E-1,9.693922997E0
4.419976967E0,3.349951655E-2,-8.733802289E-2,9.727422714E0
4.422358634E0,2.871387079E-2,-9.212367237E-2,9.741779327E0
4.424740300E0,3.349951655E-2,-9.212367237E-2,9.732208252E0
4.427121967E0,2.871387079E-2,-7.298108935E-2,9.727422714E0
4.429503686E0,3.349951655E-2,-7.298108935E-2,9.746564865E0
4.431885353E0,3.828516230E-2,-6.819544733E-2,9.732208252E0
4.434267019E0,4.307080805E-2,-7.298108935E-2,9.713065147E0
4.436648738E0,5.742774159E-2,-6.819544733E-2,9.708279610E0
4.439030405E0,6.221338734E-2,-7.776673883E-2,9.703494072E0
4.441412071E0,5.742774159E-2,-7.776673883E-2,9.713065147E0
4.443793738E0,5.742774159E-2,-7.298108935E-2,9.732208252E0
4.446175457E0,5.742774159E-2,-8.255238086E-2,9.717850685E0
4.448557123E0,6.221338734E-2,-7.776673883E-2,9.722636223E0
4.450938790E0,6.699903309E-2,-7.716853172E-2,9.741779327E0
4.453320509E0,5.264209956E-2,-7.776673883E-2,9.741779327E0
4.455702175E0,5.742774159E-2,-7.776673883E-2,9.751350403E0
4.458083842E0,6.699903309E-2,-8.195417374E-2,9.736993790E0
4.460465561E0,4.785645381E-2,-9.212367237E-2,9.732208252E0
4.462847228E0,5.264209956E-2,-8.255238086E-2,9.732208252E0
4.465228894E0,3.828516230E-2,-8.255238086E-2,9.708279610E0
4.467610561E0,6.221338734E-2,-8.733802289E-2,9.703494072E0
4.469992280E0,6.699903309E-2,-9.212367237E-2,9.717850685E0
4.472373946E0,4.785645381E-2,-8.733802289E-2,9.741779327E0
4.474755613E0,3.888336942E-2,-9.690931439E-2,9.722636223E0
4.477137332E0,3.828516230E-2,-9.212367237E-2,9.722636223E0
4.479518998E0,3.828516230E-2,-7.298108935E-2,9.722636223E0
4.481900665E0,3.828516230E-2,-5.862415582E-2,9.741779327E0
4.484282332E0,5.264209956E-2,-7.776673883E-2,9.736993790E0
4.486664050E0,4.785645381E-2,-8.255238086E-2,9.708279610E0
4.489045717E0,4.307080805E-2,-7.776673883E-2,9.722636223E0
4.491427384E0,4.307080805E-2,-6.340979785E-2,9.722636223E0
4.493809103E0,3.349951655E-2,-6.819544733E-2,9.736993790E0
4.496190769E0,4.307080805E-2,-6.819544733E-2,9.713065147E0
4.498572436E0,5.742774159E-2,-7.298108935E-2,9.727422714E0
4.500954103E0,3.828516230E-2,-8.733802289E-2,9.717850685E0
4.503335821E0,4.785645381E-2,-7.776673883E-2,9.727422714E0
4.505717488E0,3.349951655E-2,-7.776673883E-2,9.727422714E0
4.508099155E0,3.349951655E-2,-7.298108935E-2,9.732208252E0
4.510480873E0,3.409772366E-2,-9.690931439E-2,9.732208252E0
4.512862540E0,3.349951655E-2,-8.255238086E-2,9.717850685E0
4.515244207E0,1.914258115E-2,-8.733802289E-2,9.713065147E0
4.517625925E0,3.828516230E-2,-9.212367237E-2,9.727422714E0
4.520007592E0,3.409772366E-2,-1.016949639E-1,9.736993790E0
4.522389259E0,2.931207791E-2,-1.016949639E-1,9.736993790E0
4.524770925E0,3.409772366E-2,-1.112662554E-1,9.732208252E0
4.527152644E0,1.914258115E-2,-9.212367237E-2,9.703494072E0
4.529534311E0,4.307080805E-2,-9.690931439E-2,9.698708534E0
4.531915978E0,3.888336942E-2,-1.064806059E-1,9.708279610E0
4.534297696E0,4.845465720E-2,-1.016949639E-1,9.732208252E0
4.536679363E0,4.845465720E-2,-1.016949639E-1,9.741779327E0
4.539061030E0,3.888336942E-2,-1.064806059E-1,9.746564865E0
4.541442696E0,3.409772366E-2,-9.690931439E-2,9.765707016E0
4.543824415E0,1.495514158E-2,-9.212367237E-2,9.756135941E0
4.546206082E0,3.349951655E-2,-9.212367237E-2,9.727422714E0
4.548587748E0,3.828516230E-2,-8.733802289E-2,9.693922997E0
4.550969467E0,3.828516230E-2,-8.733802289E-2,9.674779892E0
4.553351134E0,3.349951655E-2,-7.298108935E-2,9.713065147E0
4.555732800E0,1.435693540E-2,-7.298108935E-2,9.722636223E0
4.558114519E0,2.392822690E-2,-4.905286431E-2,9.717850685E0
4.560496186E0,4.187439568E-3,-1.136590727E-2,9.726823807E0
4.562877853E0,3.409772366E-2,-1.160518974E-1,9.713065147E0
4.565259519E0,1.399801224E-1,-2.297109663E-1,9.713663101E0
4.567641238E0,1.393819153E-1,-1.148554832E-1,9.794421196E0
4.570022905E0,8.135596663E-2,-6.759724021E-2,9.756135941E0
4.572404571E0,6.640082598E-2,-4.426721856E-2,9.726823807E0
4.574786290E0,5.682953820E-2,-3.948157281E-2,9.731609344E0
4.577167957E0,4.725824669E-2,-2.512463741E-2,9.693324089E0
4.579549623E0,4.725824669E-2,3.589233849E-3,9.717252731E0
4.581931342E0,5.682953820E-2,-2.452643216E-2,9.817750931E0
4.584313009E0,8.673982322E-2,-1.202393398E-1,9.703494072E0
4.586694675E0,1.734796353E-2,1.082752272E-1,9.659226418E0
4.589076342E0,-4.606183618E-2,2.321037948E-1,9.711270332E0
4.591458061E0,-7.058826834E-2,3.224328458E-1,9.754341125E0
4.593839728E0,-5.742774159E-2,3.846462369E-1,9.705886841E0
4.596221394E0,1.794616925E-3,2.087737769E-1,9.812367439E0
4.598603113E0,7.058826834E-2,6.580262631E-2,9.712467194E0
4.600984780E0,1.872383654E-1,-1.764706671E-1,9.679565430E0
4.603366446E0,2.973082066E-1,-6.005984545E-1,9.801001549E0
4.605748113E0,1.974078715E-1,-1.956132501E-1,9.722636223E0
4.608129832E0,1.555334777E-1,1.196411327E-1,9.740582466E0
4.610511498E0,1.130608693E-1,1.190429255E-1,9.793225288E0
4.612893165E0,3.828516230E-2,-5.324030295E-2,9.847063065E0
4.615274884E0,3.050848842E-2,-2.500499785E-1,9.747162819E0
4.617656550E0,-3.050848842E-2,-3.463610709E-1,9.671191216E0
4.620038217E0,-7.238288224E-2,-4.564309120E-1,9.738788605E0
4.622419884E0,-6.520441920E-2,-6.478567123E-1,9.782457352E0
4.624801603E0,-2.512463741E-2,-3.936193287E-1,9.795618057E0
4.627183269E0,1.974078640E-2,-1.345962733E-1,9.894919395E0
4.629564936E0,-8.793623000E-2,-2.883351147E-1,9.958329201E0
4.631946655E0,-1.752742529E-1,-6.418746710E-1,1.029033375E1
4.634328321E0,-3.206382394E-1,-8.488538265E-1,1.035793114E1
4.636709988E0,-4.163511395E-1,-1.269392371E0,1.059960651E1
4.639091707E0,-6.825526357E-1,-1.448255897E0,1.074497032E1
4.641473373E0,-8.333004713E-1,-1.640279889E0,1.091785145E1
4.643855040E0,-9.260223508E-1,-1.860419631E0,1.121575832E1
4.646236759E0,-9.607182741E-1,-1.744965911E0,1.135454178E1
4.648618425E0,-8.350951076E-1,-1.916052699E0,1.128814125E1
4.651000092E0,-9.511470199E-1,-1.776072621E0,1.089511967E1
4.653381759E0,-9.978070259E-1,-1.470987678E0,1.067318535E1
4.655763478E0,-8.829515576E-1,-1.490130305E0,1.036630630E1
4.658145144E0,-7.339983582E-1,-1.131206870E0,1.016351414E1
4.660526811E0,-7.238288522E-1,-7.686942816E-1,9.965508461E0
4.662908530E0,-4.588237405E-1,-4.731806815E-1,1.014138031E1
4.665290196E0,-4.977070987E-1,1.196411345E-2,9.722636223E0
4.667671863E0,-2.877369225E-1,5.168496966E-1,9.854242325E0
4.670040300E0,-8.733802438E-1,7.423732281E-1,1.027956581E1
4.672435248E0,7.357929647E-2,1.998006850E-1,9.788438797E0
4.674864571E0,-2.991028363E-3,6.406782866E-1,9.034101486E0
4.677293894E0,1.070788130E-1,6.987041831E-1,9.920044899E0
4.679723217E0,4.229314029E-1,5.754738450E-1,9.455238342E0
4.682152592E0,-2.285145670E-1,7.411768436E-1,9.565906525E0
4.684581915E0,-1.878365725E-1,5.318048596E-1,9.767501831E0
4.687011186E0,-3.343969584E-1,8.267202377E-1,9.684949875E0
4.689440457E0,-3.415754437E-1,1.134197950E0,1.006660461E1
4.691869780E0,-2.458625287E-1,1.527219057E0,1.011266708E1
4.694299050E0,1.196411345E-2,1.588235974E0,1.039920712E1
4.696728321E0,2.620140910E-1,1.865205288E0,1.059900761E1
4.699144103E0,4.737788737E-1,2.221137524E0,1.058285618E1
4.701586915E0,5.910272002E-1,2.446661234E0,1.057208824E1
4.704016186E0,7.663014531E-1,2.603390932E0,1.095912743E1
4.706431915E0,7.082754970E-1,2.697309256E0,1.073420238E1
4.708874780E0,7.286145091E-1,2.544766903E0,1.077308559E1
4.711304050E0,7.543373108E-1,2.343769789E0,1.063430214E1
4.713733321E0,8.638089895E-1,1.977069736E0,1.062173939E1
4.716162644E0,8.620143533E-1,1.671386600E0,1.081974602E1
4.718591915E0,7.501499057E-1,1.412961721E0,1.094118118E1
4.721021186E0,6.197410822E-1,1.089930773E0,1.071745300E1
4.723450457E0,4.450650215E-1,8.153542876E-1,1.055055332E1
4.725879780E0,3.475574851E-1,5.665007830E-1,1.070608711E1
4.728309050E0,1.489532143E-1,4.115654826E-1,1.093639565E1
4.730738321E0,-1.734796353E-2,3.002992272E-1,1.097527885E1
4.733167644E0,-6.340979785E-2,1.465603858E-1,1.088495064E1
4.735596915E0,-2.446661144E-1,1.399801224E-1,1.100040436E1
4.738026186E0,-4.558327198E-1,2.584248483E-1,1.126301575E1
4.740455509E0,-6.065805554E-1,4.193421602E-1,1.122891808E1
4.742884780E0,-6.652047038E-1,5.760720372E-1,1.104168034E1
4.745314050E0,-7.716853023E-1,7.028916478E-1,1.089272690E1
4.747743373E0,-8.309076428E-1,8.548358679E-1,1.080598736E1
4.750172644E0,-8.183453679E-1,1.027119160E0,1.077667522E1
4.752601915E0,-7.387840152E-1,1.147358418E0,1.073779202E1
4.755031186E0,-5.934200287E-1,1.000798106E0,1.075753212E1
4.757460509E0,-6.119644046E-1,9.056833982E-1,1.086281681E1
4.759889780E0,-6.173482537E-1,9.678967595E-1,1.091545868E1
4.762319050E0,-5.653043389E-1,1.021137118E0,1.103450203E1
4.764748373E0,-6.340979934E-1,1.241874933E0,1.139761257E1
4.767177644E0,-7.178468108E-1,1.508674622E0,1.140120125E1
4.769606915E0,-6.532405615E-1,1.714457393E0,1.117029476E1
4.772036238E0,-4.677968323E-1,1.791625977E0,1.085862923E1
4.774465509E0,-2.913261652E-1,1.821536183E0,1.073420238E1
4.776894780E0,-1.339980662E-1,1.856830359E0,1.073360443E1
4.779324050E0,-4.785645381E-2,1.867598057E0,1.076710415E1
4.781753373E0,1.387837082E-1,1.811964989E0,1.072881889E1
4.784182644E0,2.297109663E-1,1.783849239E0,1.062293625E1
4.786611915E0,2.333002090E-1,1.878963947E0,1.058943653E1
4.789041238E0,2.955136001E-1,1.903490424E0,1.049312592E1
4.791470509E0,2.452643216E-1,2.093121529E0,1.031067276E1
4.793899780E0,2.638086975E-1,2.136192322E0,1.026221848E1
4.796282748E0,2.051845491E-1,2.268994093E0,1.019462109E1
4.798664415E0,3.296113312E-1,2.274976015E0,1.023769188E1
4.801046082E0,3.912265003E-1,2.299502611E0,1.019462109E1
4.803427748E0,3.762713671E-1,2.323430777E0,1.018983555E1
4.805809467E0,2.943171859E-1,2.422134638E0,1.010309505E1
4.808191134E0,2.937189937E-1,2.469393015E0,9.940383911E0
4.810572800E0,3.224328458E-1,2.464009047E0,9.696315765E0
4.812954519E0,2.919243574E-1,2.582453728E0,9.576076508E0
4.815336186E0,2.865405083E-1,2.662613392E0,9.354740143E0
4.817717853E0,2.135594189E-1,2.760719061E0,9.124430656E0
4.820099571E0,4.905286431E-2,2.950350285E0,8.989834785E0
4.822481238E0,4.785645381E-2,3.040679455E0,8.879166603E0
4.824862905E0,7.058826834E-2,3.131008387E0,8.793025017E0
4.827244623E0,8.434699476E-2,3.212364435E0,8.706285477E0
4.829626290E0,1.507478207E-1,3.245863914E0,8.610571861E0
4.832007957E0,1.447657645E-1,3.346960783E0,8.710473061E0
4.834389623E0,1.100698411E-1,3.460619688E0,8.647661209E0
4.836771342E0,1.196411327E-1,3.513859987E0,8.752944946E0
4.839153009E0,1.238285750E-1,3.561716557E0,8.776275635E0
4.841534675E0,1.136590764E-1,3.595216036E0,8.852845192E0
4.843916394E0,1.998006850E-1,3.577867985E0,8.943773270E0
4.846298061E0,1.663011760E-1,3.625126362E0,8.900702477E0
4.848679728E0,2.470589429E-1,3.659224033E0,8.866603851E0
