"Time (s)","Gyroscope x (rad/s)","Gyroscope y (rad/s)","Gyroscope z (rad/s)"
3.001316500E-2,-1.679830020E-3,-1.527118147E-3,-3.054236295E-4
3.239483200E-2,-1.679830020E-3,-3.054236295E-4,-3.054236295E-4
3.477649800E-2,7.635590737E-4,-1.527118147E-3,-1.527118147E-3
3.715816500E-2,7.635590737E-4,-1.527118147E-3,-3.054236295E-4
3.953988400E-2,-4.581354442E-4,-3.054236295E-4,-3.054236295E-4
4.192155000E-2,-4.581354442E-4,2.137965523E-3,-3.054236295E-4
4.430321700E-2,7.635590737E-4,9.162708884E-4,-1.527118147E-3
4.668488400E-2,-4.581354442E-4,2.137965523E-3,9.162708884E-4
4.906655000E-2,-1.679830020E-3,-3.054236295E-4,9.162708884E-4
5.144821700E-2,-4.581354442E-4,-2.748812549E-3,-3.054236295E-4
5.382993600E-2,-1.679830020E-3,-3.054236295E-4,-3.054236295E-4
5.621160300E-2,-4.581354442E-4,2.137965523E-3,-3.054236295E-4
5.859326900E-2,7.635590737E-4,2.137965523E-3,-1.527118147E-3
6.097493600E-2,-4.581354442E-4,-3.054236295E-4,-3.054236295E-4
6.335660300E-2,7.635590737E-4,9.162708884E-4,9.162708884E-4
6.573826900E-2,-1.679830020E-3,-3.054236295E-4,-3.054236295E-4
6.811998800E-2,-4.581354442E-4,-1.527118147E-3,-3.054236295E-4
7.050165500E-2,7.635590737E-4,-1.527118147E-3,-1.527118147E-3
7.288332100E-2,-1.679830020E-3,9.162708884E-4,-3.054236295E-4
7.526498800E-2,-1.679830020E-3,9.162708884E-4,-3.054236295E-4
7.764665500E-2,-4.581354442E-4,-3.054236295E-4,-3.054236295E-4
8.002832100E-2,7.635590737E-4,-3.054236295E-4,-3.054236295E-4
8.241004000E-2,-1.679830020E-3,-3.054236295E-4,-1.527118147E-3
8.479170700E-2,-4.581354442E-4,9.162708884E-4,9.162708884E-4
8.717337300E-2,7.635590737E-4,-1.527118147E-3,-3.054236295E-4
8.955504000E-2,7.635590737E-4,-3.054236295E-4,-3.054236295E-4
9.193670700E-2,-4.581354442E-4,-3.054236295E-4,-3.054236295E-4
9.431842500E-2,-4.581354442E-4,-1.527118147E-3,-1.527118147E-3
9.670009200E-2,-1.679830020E-3,-3.054236295E-4,9.162708884E-4
9.908175900E-2,7.635590737E-4,9.162708884E-4,9.162708884E-4
1.014634250E-1,7.635590737E-4,-3.054236295E-4,-3.054236295E-4
1.038450920E-1,-4.581354442E-4,-3.054236295E-4,-1.527118147E-3
1.062267590E-1,7.635590737E-4,9.162708884E-4,-2.748812549E-3
1.086084250E-1,1.985253533E-3,9.162708884E-4,-3.054236295E-4
1.109901440E-1,7.635590737E-4,-3.054236295E-4,-1.527118147E-3
1.133718110E-1,-4.581354442E-4,9.162708884E-4,-3.054236295E-4
1.157534780E-1,-4.581354442E-4,-3.054236295E-4,-1.527118147E-3
1.181351440E-1,7.635590737E-4,-1.527118147E-3,-1.527118147E-3
1.205168110E-1,7.635590737E-4,-1.527118147E-3,-3.054236295E-4
1.228985300E-1,-4.581354442E-4,2.137965523E-3,9.162708884E-4
1.252801960E-1,-4.581354442E-4,-3.054236295E-4,-3.054236295E-4
1.276618630E-1,-4.581354442E-4,2.137965523E-3,-2.748812549E-3
1.300435300E-1,7.635590737E-4,9.162708884E-4,-2.748812549E-3
1.324251960E-1,7.635590737E-4,-3.054236295E-4,-1.527118147E-3
1.348068630E-1,-4.581354442E-4,9.162708884E-4,-1.527118147E-3
1.371885820E-1,-1.679830020E-3,-1.527118147E-3,-1.527118147E-3
1.395702480E-1,-4.581354442E-4,-3.054236295E-4,-3.054236295E-4
1.419519150E-1,-4.581354442E-4,9.162708884E-4,-3.054236295E-4
1.443335820E-1,-4.581354442E-4,9.162708884E-4,-3.054236295E-4
1.467152480E-1,-4.581354442E-4,2.137965523E-3,-1.527118147E-3
1.490969150E-1,7.635590737E-4,-1.527118147E-3,-1.527118147E-3
1.514786340E-1,7.635590737E-4,-3.054236295E-4,9.162708884E-4
1.538603000E-1,-1.679830020E-3,-3.054236295E-4,9.162708884E-4
1.562419670E-1,-4.581354442E-4,-1.527118147E-3,9.162708884E-4
1.586236340E-1,7.635590737E-4,-1.527118147E-3,9.162708884E-4
1.610053000E-1,7.635590737E-4,-1.527118147E-3,-3.054236295E-4
1.633869670E-1,-4.581354442E-4,-1.527118147E-3,-1.527118147E-3
1.657686860E-1,7.635590737E-4,2.137965523E-3,-3.054236295E-4
1.681503530E-1,-4.581354442E-4,-1.527118147E-3,9.162708884E-4
1.705320190E-1,-4.581354442E-4,-1.527118147E-3,-1.527118147E-3
1.729136860E-1,-4.581354442E-4,-1.527118147E-3,-3.054236295E-4
1.752953530E-1,-4.581354442E-4,-1.527118147E-3,-2.748812549E-3
1.776770710E-1,-1.679830020E-3,-1.527118147E-3,-3.054236295E-4
1.800587380E-1,7.635590737E-4,-3.054236295E-4,-3.054236295E-4
1.824404050E-1,-4.581354442E-4,2.137965523E-3,9.162708884E-4
1.848220710E-1,7.635590737E-4,-3.054236295E-4,9.162708884E-4
1.872037380E-1,7.635590737E-4,-3.054236295E-4,9.162708884E-4
1.895854050E-1,7.635590737E-4,9.162708884E-4,-1.527118147E-3
1.919671230E-1,-4.581354442E-4,9.162708884E-4,-3.054236295E-4
1.943487900E-1,7.635590737E-4,2.137965523E-3,9.162708884E-4
1.967304570E-1,7.635590737E-4,-3.054236295E-4,-3.054236295E-4
1.991121230E-1,-4.581354442E-4,-1.527118147E-3,-3.054236295E-4
2.014937900E-1,7.635590737E-4,-1.527118147E-3,9.162708884E-4
2.038754570E-1,-4.581354442E-4,9.162708884E-4,-3.054236295E-4
2.062571750E-1,-4.581354442E-4,-1.527118147E-3,9.162708884E-4
2.086388420E-1,-1.679830020E-3,9.162708884E-4,-1.527118147E-3
2.110205090E-1,-4.581354442E-4,-3.054236295E-4,-3.054236295E-4
2.134021750E-1,7.635590737E-4,-1.527118147E-3,-3.054236295E-4
2.157838420E-1,2.137965523E-3,-1.527118147E-3,9.162708884E-4
2.181655090E-1,7.635590737E-4,-3.054236295E-4,-3.054236295E-4
2.205472280E-1,-4.581354442E-4,9.162708884E-4,9.162708884E-4
2.229288940E-1,-4.581354442E-4,-3.054236295E-4,-3.054236295E-4
2.253105610E-1,2.137965523E-3,-1.527118147E-3,-3.054236295E-4
2.276922280E-1,-1.679830020E-3,-3.054236295E-4,-3.054236295E-4
2.300738940E-1,7.635590737E-4,-3.054236295E-4,-3.054236295E-4
2.324556130E-1,-4.581354442E-4,9.162708884E-4,-3.054236295E-4
2.348372800E-1,-4.581354442E-4,-3.054236295E-4,-3.054236295E-4
2.372189460E-1,1.985253533E-3,9.162708884E-4,-3.054236295E-4
2.396006130E-1,7.635590737E-4,9.162708884E-4,-3.054236295E-4
2.419822800E-1,-4.581354442E-4,-3.054236295E-4,9.162708884E-4
2.443639460E-1,7.635590737E-4,-1.527118147E-3,-3.054236295E-4
2.467456650E-1,-4.581354442E-4,-3.054236295E-4,-1.527118147E-3
2.491273320E-1,-1.679830020E-3,-3.054236295E-4,-2.748812549E-3
2.515089980E-1,-4.581354442E-4,-1.527118147E-3,-3.054236295E-4
2.538906650E-1,7.635590737E-4,9.162708884E-4,-3.054236295E-4
2.562723320E-1,-4.581354442E-4,-1.527118147E-3,-3.054236295E-4
2.586539980E-1,-4.581354442E-4,-3.054236295E-4,-3.054236295E-4
2.610357170E-1,7.635590737E-4,-1.527118147E-3,-1.527118147E-3
2.634173840E-1,2.137965523E-3,-3.054236295E-4,-3.054236295E-4
2.657990500E-1,-4.581354442E-4,-3.054236295E-4,9.162708884E-4
2.681807170E-1,7.635590737E-4,9.162708884E-4,-3.054236295E-4
2.705623840E-1,-4.581354442E-4,9.162708884E-4,9.162708884E-4
2.729441030E-1,2.137965523E-3,-3.054236295E-4,9.162708884E-4
2.753257690E-1,7.635590737E-4,-3.054236295E-4,-3.054236295E-4
2.777074360E-1,-4.581354442E-4,-1.527118147E-3,-3.054236295E-4
2.800891030E-1,7.635590737E-4,-1.527118147E-3,-3.054236295E-4
2.824707690E-1,7.635590737E-4,-2.748812549E-3,-1.527118147E-3
2.848524360E-1,-4.581354442E-4,-1.527118147E-3,-3.054236295E-4
2.872341550E-1,-4.581354442E-4,-1.527118147E-3,-3.054236295E-4
2.896158210E-1,7.635590737E-4,-3.054236295E-4,-3.054236295E-4
2.919974880E-1,-4.581354442E-4,-3.054236295E-4,-3.054236295E-4
2.943791550E-1,-4.581354442E-4,9.162708884E-4,-3.054236295E-4
2.967608210E-1,-4.581354442E-4,-3.054236295E-4,-3.054236295E-4
2.991425400E-1,-4.581354442E-4,-1.527118147E-3,-2.748812549E-3
3.015242070E-1,7.635590737E-4,-1.527118147E-3,-3.054236295E-4
3.039058730E-1,-4.581354442E-4,-3.054236295E-4,-1.527118147E-3
3.062875400E-1,-1.679830020E-3,9.162708884E-4,-3.054236295E-4
3.086692070E-1,-1.679830020E-3,-1.527118147E-3,2.137965523E-3
3.110508730E-1,-4.581354442E-4,-3.054236295E-4,9.162708884E-4
3.134325920E-1,-1.679830020E-3,-3.054236295E-4,-3.054236295E-4
3.158142590E-1,7.635590737E-4,9.162708884E-4,-1.527118147E-3
3.181959250E-1,7.635590737E-4,-3.054236295E-4,-3.054236295E-4
3.205775920E-1,7.635590737E-4,-3.054236295E-4,-3.054236295E-4
3.229592590E-1,7.635590737E-4,-3.054236295E-4,-3.054236295E-4
3.253409250E-1,-4.581354442E-4,-1.527118147E-3,-3.054236295E-4
3.277226440E-1,-1.679830020E-3,-2.748812549E-3,-1.527118147E-3
3.301043110E-1,-1.679830020E-3,9.162708884E-4,-3.054236295E-4
3.324859780E-1,-4.581354442E-4,-3.054236295E-4,-1.527118147E-3
3.348676440E-1,-1.679830020E-3,-3.054236295E-4,-1.527118147E-3
3.372493110E-1,7.635590737E-4,9.162708884E-4,-1.527118147E-3
3.396310300E-1,1.985253533E-3,9.162708884E-4,-1.527118147E-3
3.420126960E-1,7.635590737E-4,-3.054236295E-4,-1.527118147E-3
3.443943630E-1,7.635590737E-4,-1.527118147E-3,-3.054236295E-4
3.467760300E-1,-4.581354442E-4,-1.527118147E-3,9.162708884E-4
3.491576960E-1,-1.679830020E-3,-2.748812549E-3,2.137965523E-3
3.515393630E-1,7.635590737E-4,-1.527118147E-3,9.162708884E-4
3.539210820E-1,2.137965523E-3,-1.527118147E-3,9.162708884E-4
3.563027480E-1,3.359660041E-3,-3.054236295E-4,9.162708884E-4
3.586844150E-1,-4.581354442E-4,-1.527118147E-3,-3.054236295E-4
3.610660820E-1,-1.679830020E-3,9.162708884E-4,-1.527118147E-3
3.634477480E-1,-4.123218823E-3,9.162708884E-4,-3.054236295E-4
3.658294670E-1,-1.679830020E-3,-2.748812549E-3,9.162708884E-4
3.682111340E-1,7.635590737E-4,-3.054236295E-4,-3.054236295E-4
3.705928000E-1,-4.581354442E-4,2.137965523E-3,-3.054236295E-4
3.729744670E-1,-1.679830020E-3,-3.054236295E-4,-1.527118147E-3
3.753561340E-1,7.635590737E-4,-3.054236295E-4,9.162708884E-4
3.777378000E-1,-4.581354442E-4,-1.527118147E-3,-2.748812549E-3
3.801194670E-1,-2.901524538E-3,-3.054236295E-4,-1.527118147E-3
3.825011860E-1,-1.679830020E-3,-3.054236295E-4,9.162708884E-4
3.848828530E-1,-1.679830020E-3,-3.054236295E-4,9.162708884E-4
3.872645190E-1,-1.679830020E-3,-1.527118147E-3,9.162708884E-4
3.896461860E-1,7.635590737E-4,-3.054236295E-4,-3.054236295E-4
3.920278530E-1,7.635590737E-4,-3.054236295E-4,-3.054236295E-4
3.944095710E-1,7.635590737E-4,-1.527118147E-3,9.162708884E-4
3.967912380E-1,-1.679830020E-3,-3.054236295E-4,-3.054236295E-4
3.991729050E-1,-4.581354442E-4,-1.527118147E-3,9.162708884E-4
4.015545710E-1,7.635590737E-4,-3.054236295E-4,9.162708884E-4
4.039362380E-1,-4.581354442E-4,-2.748812549E-3,-3.054236295E-4
4.063179570E-1,-1.679830020E-3,-1.527118147E-3,-3.054236295E-4
4.086996230E-1,-1.679830020E-3,-2.748812549E-3,-3.054236295E-4
4.110812900E-1,-4.581354442E-4,-1.527118147E-3,-1.527118147E-3
4.134629570E-1,7.635590737E-4,-3.054236295E-4,-1.527118147E-3
4.158446230E-1,-1.679830020E-3,-3.054236295E-4,9.162708884E-4
4.182262900E-1,-4.581354442E-4,-1.527118147E-3,-3.054236295E-4
4.206080090E-1,-4.581354442E-4,2.137965523E-3,-1.527118147E-3
4.229896750E-1,-4.581354442E-4,-3.054236295E-4,-1.527118147E-3
4.253713420E-1,-4.581354442E-4,-3.054236295E-4,-3.054236295E-4
4.277530090E-1,-2.901524538E-3,9.162708884E-4,-3.054236295E-4
4.301346750E-1,-4.581354442E-4,9.162708884E-4,-3.054236295E-4
4.325163420E-1,9.162708884E-4,-2.748812549E-3,9.162708884E-4
4.348980610E-1,7.635590737E-4,9.162708884E-4,9.162708884E-4
4.372797280E-1,7.635590737E-4,9.162708884E-4,9.162708884E-4
4.396613940E-1,7.635590737E-4,9.162708884E-4,-1.527118147E-3
4.420430610E-1,7.635590737E-4,9.162708884E-4,9.162708884E-4
4.444247280E-1,7.635590737E-4,-3.054236295E-4,-1.527118147E-3
4.468064460E-1,7.635590737E-4,9.162708884E-4,-3.054236295E-4
4.491881130E-1,7.635590737E-4,-3.054236295E-4,9.162708884E-4
4.515697800E-1,-4.581354442E-4,9.162708884E-4,9.162708884E-4
4.539514460E-1,-4.581354442E-4,-3.054236295E-4,-3.054236295E-4
4.563331130E-1,1.985253533E-3,9.162708884E-4,-1.527118147E-3
4.587148320E-1,7.635590737E-4,-3.054236295E-4,-3.054236295E-4
4.610964980E-1,-4.581354442E-4,9.162708884E-4,9.162708884E-4
4.634781650E-1,-4.581354442E-4,-3.054236295E-4,-3.054236295E-4
4.658598320E-1,-4.581354442E-4,9.162708884E-4,-3.054236295E-4
4.682414980E-1,7.635590737E-4,9.162708884E-4,-3.054236295E-4
4.706231650E-1,7.635590737E-4,9.162708884E-4,9.162708884E-4
4.730048840E-1,7.635590737E-4,-3.054236295E-4,-1.527118147E-3
4.753865500E-1,7.635590737E-4,2.137965523E-3,-3.054236295E-4
4.777682170E-1,1.985253533E-3,9.162708884E-4,-3.054236295E-4
4.801498840E-1,7.635590737E-4,9.162708884E-4,-1.527118147E-3
4.825315500E-1,-4.581354442E-4,9.162708884E-4,-3.054236295E-4
4.849132170E-1,-4.581354442E-4,9.162708884E-4,-3.054236295E-4
4.872949360E-1,7.635590737E-4,9.162708884E-4,-3.054236295E-4
4.896766030E-1,-4.581354442E-4,9.162708884E-4,-3.054236295E-4
4.920582690E-1,2.137965523E-3,9.162708884E-4,9.162708884E-4
4.944399360E-1,-4.581354442E-4,-1.527118147E-3,-3.054236295E-4
4.968216030E-1,-4.581354442E-4,-1.527118147E-3,-3.054236295E-4
4.992033210E-1,-1.679830020E-3,-1.527118147E-3,-3.054236295E-4
5.015849880E-1,-1.679830020E-3,-3.054236295E-4,-1.527118147E-3
5.039666550E-1,7.635590737E-4,-3.054236295E-4,-3.054236295E-4
5.063483210E-1,-4.581354442E-4,9.162708884E-4,-1.527118147E-3
5.087299880E-1,-4.581354442E-4,9.162708884E-4,-3.054236295E-4
5.111117070E-1,-4.581354442E-4,-3.054236295E-4,9.162708884E-4
5.134933730E-1,7.635590737E-4,9.162708884E-4,-1.527118147E-3
5.158750400E-1,-4.581354442E-4,9.162708884E-4,9.162708884E-4
5.182567070E-1,-4.581354442E-4,-1.527118147E-3,-3.054236295E-4
5.206383730E-1,9.162708884E-4,-1.527118147E-3,2.137965523E-3
5.230200400E-1,-4.581354442E-4,9.162708884E-4,-3.054236295E-4
5.254017590E-1,-4.581354442E-4,9.162708884E-4,-1.527118147E-3
5.277834250E-1,-1.679830020E-3,9.162708884E-4,-1.527118147E-3
5.301650920E-1,-4.581354442E-4,-3.054236295E-4,-2.748812549E-3
5.325467590E-1,-1.679830020E-3,-3.054236295E-4,-1.527118147E-3
5.349284250E-1,-1.679830020E-3,-1.527118147E-3,-1.527118147E-3
5.373101440E-1,7.635590737E-4,9.162708884E-4,-1.527118147E-3
5.396918110E-1,7.635590737E-4,-3.054236295E-4,-3.054236295E-4
5.420734780E-1,7.635590737E-4,9.162708884E-4,9.162708884E-4
5.444551440E-1,7.635590737E-4,-3.054236295E-4,-3.054236295E-4
5.468368110E-1,-1.679830020E-3,-3.054236295E-4,-1.527118147E-3
5.492184780E-1,-1.679830020E-3,-2.748812549E-3,-3.054236295E-4
5.516001960E-1,-4.581354442E-4,9.162708884E-4,-3.054236295E-4
5.539818630E-1,-2.901524538E-3,7.635590737E-4,-1.527118147E-3
5.563635300E-1,-1.679830020E-3,-3.054236295E-4,-1.527118147E-3
5.587451960E-1,-4.581354442E-4,9.162708884E-4,-3.054236295E-4
5.611268630E-1,7.635590737E-4,9.162708884E-4,-3.054236295E-4
5.635085300E-1,-4.581354442E-4,9.162708884E-4,-1.527118147E-3
5.658902480E-1,-4.581354442E-4,9.162708884E-4,-2.748812549E-3
5.682719150E-1,-4.581354442E-4,9.162708884E-4,-2.748812549E-3
5.706535820E-1,-1.679830020E-3,-3.054236295E-4,-1.527118147E-3
5.730352480E-1,-1.679830020E-3,9.162708884E-4,-1.527118147E-3
5.754169150E-1,-4.581354442E-4,-3.054236295E-4,-2.748812549E-3
5.777986340E-1,-4.581354442E-4,-2.748812549E-3,-3.054236295E-4
5.801803000E-1,-1.679830020E-3,-3.054236295E-4,9.162708884E-4
5.825619670E-1,-1.679830020E-3,-3.054236295E-4,9.162708884E-4
5.849436340E-1,-4.581354442E-4,-1.527118147E-3,-1.527118147E-3
5.873253000E-1,7.635590737E-4,9.162708884E-4,9.162708884E-4
5.897070190E-1,7.635590737E-4,9.162708884E-4,-3.054236295E-4
5.920886860E-1,-4.581354442E-4,-3.054236295E-4,-3.054236295E-4
5.944703530E-1,7.635590737E-4,-3.054236295E-4,9.162708884E-4
5.968520190E-1,-4.581354442E-4,-1.527118147E-3,-1.527118147E-3
5.992336860E-1,-4.581354442E-4,9.162708884E-4,-3.054236295E-4
6.016154050E-1,-1.679830020E-3,-3.054236295E-4,-3.054236295E-4
6.039970710E-1,-1.679830020E-3,9.162708884E-4,-1.527118147E-3
6.063787380E-1,7.635590737E-4,9.162708884E-4,-3.054236295E-4
6.087604050E-1,7.635590737E-4,9.162708884E-4,-1.527118147E-3
6.111420710E-1,7.635590737E-4,-3.054236295E-4,-3.054236295E-4
6.135237380E-1,-4.581354442E-4,-3.054236295E-4,-1.527118147E-3
6.159054570E-1,-4.581354442E-4,-3.054236295E-4,-2.748812549E-3
6.182871230E-1,-4.581354442E-4,9.162708884E-4,-1.527118147E-3
6.206687900E-1,7.635590737E-4,-3.054236295E-4,-3.054236295E-4
6.230504570E-1,-1.679830020E-3,-1.527118147E-3,-3.054236295E-4
6.254321230E-1,-1.679830020E-3,9.162708884E-4,-1.527118147E-3
6.278138420E-1,-1.679830020E-3,9.162708884E-4,-3.054236295E-4
6.301955090E-1,-4.581354442E-4,9.162708884E-4,-3.054236295E-4
6.325771750E-1,-4.581354442E-4,-3.054236295E-4,-3.054236295E-4
6.349588420E-1,-4.581354442E-4,-1.527118147E-3,9.162708884E-4
6.373405090E-1,-4.581354442E-4,9.162708884E-4,-3.054236295E-4
6.397221750E-1,7.635590737E-4,9.162708884E-4,-3.054236295E-4
6.421038940E-1,7.635590737E-4,-1.527118147E-3,-1.527118147E-3
6.444855610E-1,7.635590737E-4,-3.054236295E-4,-1.527118147E-3
6.468672280E-1,1.985253533E-3,3.359660041E-3,-1.527118147E-3
6.492488940E-1,7.635590737E-4,3.359660041E-3,-3.054236295E-4
6.516305610E-1,-4.581354442E-4,9.162708884E-4,-3.054236295E-4
6.540122800E-1,-4.581354442E-4,-3.054236295E-4,9.162708884E-4
6.563939460E-1,-4.581354442E-4,-1.527118147E-3,-3.054236295E-4
6.587756130E-1,-1.679830020E-3,-1.527118147E-3,-3.054236295E-4
6.611572800E-1,-1.679830020E-3,-1.527118147E-3,-3.054236295E-4
6.635389460E-1,7.635590737E-4,9.162708884E-4,-1.527118147E-3
6.659206650E-1,-4.581354442E-4,-3.054236295E-4,-1.527118147E-3
6.683023320E-1,-4.581354442E-4,-1.527118147E-3,9.162708884E-4
6.706839980E-1,-4.581354442E-4,-1.527118147E-3,-3.054236295E-4
6.730656650E-1,-1.679830020E-3,9.162708884E-4,-3.054236295E-4
6.754473320E-1,-4.581354442E-4,2.137965523E-3,-1.527118147E-3
6.778289980E-1,7.635590737E-4,9.162708884E-4,2.137965523E-3
6.802107170E-1,-4.581354442E-4,-3.054236295E-4,-1.527118147E-3
6.825923840E-1,7.635590737E-4,2.137965523E-3,9.162708884E-4
6.849740500E-1,1.985253533E-3,9.162708884E-4,-3.054236295E-4
6.873557170E-1,-4.581354442E-4,3.359660041E-3,9.162708884E-4
6.897373840E-1,-4.581354442E-4,9.162708884E-4,-3.054236295E-4
6.921191030E-1,2.137965523E-3,-2.748812549E-3,-3.054236295E-4
6.945007690E-1,2.137965523E-3,-3.054236295E-4,-3.054236295E-4
6.968824360E-1,-4.581354442E-4,9.162708884E-4,-3.054236295E-4
6.992641030E-1,-4.581354442E-4,9.162708884E-4,9.162708884E-4
7.016457690E-1,-4.581354442E-4,9.162708884E-4,9.162708884E-4
7.040274880E-1,-4.581354442E-4,-1.527118147E-3,9.162708884E-4
7.064091550E-1,-1.679830020E-3,-3.970507067E-3,-3.054236295E-4
7.087908210E-1,-1.679830020E-3,-1.527118147E-3,-3.054236295E-4
7.111724880E-1,-1.679830020E-3,-3.054236295E-4,-3.054236295E-4
7.135541550E-1,7.635590737E-4,-1.527118147E-3,-3.054236295E-4
7.159358210E-1,7.635590737E-4,-3.054236295E-4,-3.054236295E-4
7.183175400E-1,-4.581354442E-4,-3.054236295E-4,-1.527118147E-3
7.206992070E-1,-4.581354442E-4,9.162708884E-4,-3.054236295E-4
7.230808730E-1,7.635590737E-4,-3.054236295E-4,-1.527118147E-3
7.254625400E-1,7.635590737E-4,-1.527118147E-3,-3.054236295E-4
7.278442070E-1,-4.581354442E-4,-1.527118147E-3,-1.527118147E-3
7.302259250E-1,2.137965523E-3,-1.527118147E-3,9.162708884E-4
7.326075920E-1,-4.581354442E-4,-3.054236295E-4,-3.054236295E-4
7.349892590E-1,-4.581354442E-4,-3.054236295E-4,-2.748812549E-3
7.373709250E-1,7.635590737E-4,-1.527118147E-3,-1.527118147E-3
7.397525920E-1,2.137965523E-3,-1.527118147E-3,9.162708884E-4
7.421342590E-1,1.985253533E-3,-3.054236295E-4,-1.527118147E-3
7.445159780E-1,-4.581354442E-4,-3.054236295E-4,-3.054236295E-4
7.468976440E-1,-4.581354442E-4,9.162708884E-4,-3.054236295E-4
7.492793110E-1,2.137965523E-3,-1.527118147E-3,-3.054236295E-4
7.516609780E-1,7.635590737E-4,2.137965523E-3,-3.054236295E-4
7.540426440E-1,-1.679830020E-3,-1.527118147E-3,-1.527118147E-3
7.564243630E-1,7.635590737E-4,-2.748812549E-3,-1.527118147E-3
7.588060300E-1,7.635590737E-4,-1.527118147E-3,-1.527118147E-3
7.611876960E-1,-4.581354442E-4,-3.054236295E-4,-3.054236295E-4
7.635693630E-1,-4.581354442E-4,9.162708884E-4,-1.527118147E-3
7.659510300E-1,7.635590737E-4,-3.054236295E-4,-3.054236295E-4
7.683327480E-1,7.635590737E-4,9.162708884E-4,9.162708884E-4
7.707144150E-1,-1.679830020E-3,2.137965523E-3,9.162708884E-4
7.730960820E-1,-1.679830020E-3,9.162708884E-4,-3.054236295E-4
7.754777480E-1,-1.679830020E-3,-3.054236295E-4,-3.054236295E-4
7.778594150E-1,-4.581354442E-4,-1.527118147E-3,-3.054236295E-4
7.802411340E-1,1.985253533E-3,-3.054236295E-4,-1.527118147E-3
7.826228000E-1,7.635590737E-4,9.162708884E-4,-1.527118147E-3
7.850044670E-1,-1.679830020E-3,-3.054236295E-4,-3.054236295E-4
7.873861340E-1,-4.581354442E-4,-1.527118147E-3,-3.054236295E-4
7.897678000E-1,7.635590737E-4,-3.054236295E-4,9.162708884E-4
7.921494670E-1,2.137965523E-3,-1.527118147E-3,-3.054236295E-4
7.945311860E-1,7.635590737E-4,-1.527118147E-3,9.162708884E-4
7.969128530E-1,-4.581354442E-4,-3.054236295E-4,-1.527118147E-3
7.992945190E-1,7.635590737E-4,-1.527118147E-3,-1.527118147E-3
8.016761860E-1,2.137965523E-3,-3.054236295E-4,-3.054236295E-4
8.040578530E-1,7.635590737E-4,-3.054236295E-4,-3.054236295E-4
8.064395710E-1,-4.581354442E-4,-3.054236295E-4,-3.054236295E-4
8.088212380E-1,-4.581354442E-4,9.162708884E-4,-1.527118147E-3
8.112029050E-1,-4.581354442E-4,-1.527118147E-3,9.162708884E-4
8.135845710E-1,7.635590737E-4,-3.054236295E-4,9.162708884E-4
8.159662380E-1,7.635590737E-4,2.137965523E-3,-3.054236295E-4
8.183479570E-1,-4.581354442E-4,-3.054236295E-4,-3.054236295E-4
8.207296230E-1,-4.581354442E-4,-1.527118147E-3,-3.054236295E-4
8.231112900E-1,-4.581354442E-4,-2.748812549E-3,-1.527118147E-3
8.254929570E-1,-4.581354442E-4,9.162708884E-4,9.162708884E-4
8.278746230E-1,-1.679830020E-3,9.162708884E-4,-3.054236295E-4
8.302563420E-1,7.635590737E-4,9.162708884E-4,9.162708884E-4
8.326380090E-1,-4.581354442E-4,-3.054236295E-4,-3.054236295E-4
8.350196750E-1,7.635590737E-4,-3.054236295E-4,-3.054236295E-4
8.374013420E-1,7.635590737E-4,9.162708884E-4,-1.527118147E-3
8.397830090E-1,7.635590737E-4,-3.054236295E-4,-2.748812549E-3
8.421646750E-1,7.635590737E-4,-3.054236295E-4,-1.527118147E-3
8.445463940E-1,7.635590737E-4,-3.054236295E-4,9.162708884E-4
8.469280610E-1,7.635590737E-4,-1.527118147E-3,9.162708884E-4
8.493097280E-1,-1.679830020E-3,-3.054236295E-4,-3.054236295E-4
8.516913940E-1,-4.581354442E-4,-3.054236295E-4,-3.054236295E-4
8.540730610E-1,-1.679830020E-3,-3.054236295E-4,-3.054236295E-4
8.564547800E-1,-4.581354442E-4,9.162708884E-4,-3.054236295E-4
8.588364460E-1,-1.679830020E-3,2.137965523E-3,-3.054236295E-4
8.612181130E-1,-1.679830020E-3,9.162708884E-4,-3.054236295E-4
8.635997800E-1,-4.581354442E-4,-3.054236295E-4,9.162708884E-4
8.659814460E-1,-4.581354442E-4,-3.054236295E-4,9.162708884E-4
8.683631650E-1,-4.581354442E-4,-3.054236295E-4,-3.054236295E-4
8.707448320E-1,-4.581354442E-4,-3.054236295E-4,-3.054236295E-4
8.731264980E-1,-4.581354442E-4,-3.054236295E-4,-1.527118147E-3
8.755081650E-1,-1.679830020E-3,-1.527118147E-3,9.162708884E-4
8.778898320E-1,7.635590737E-4,-1.527118147E-3,-3.054236295E-4
8.802715500E-1,7.635590737E-4,-3.054236295E-4,-2.748812549E-3
8.826532170E-1,-4.581354442E-4,9.162708884E-4,-1.527118147E-3
8.850348840E-1,7.635590737E-4,9.162708884E-4,-3.054236295E-4
8.874165500E-1,7.635590737E-4,-3.054236295E-4,-3.054236295E-4
8.897982170E-1,-4.581354442E-4,-3.054236295E-4,-3.054236295E-4
8.921799360E-1,-4.581354442E-4,-3.054236295E-4,-3.054236295E-4
8.945616030E-1,7.635590737E-4,9.162708884E-4,9.162708884E-4
8.969432690E-1,-4.581354442E-4,-3.054236295E-4,-3.054236295E-4
8.993249360E-1,-1.679830020E-3,9.162708884E-4,-1.527118147E-3
9.017066030E-1,-4.581354442E-4,-3.054236295E-4,-3.054236295E-4
9.040882690E-1,-4.581354442E-4,-3.054236295E-4,-1.527118147E-3
9.064699880E-1,-4.581354442E-4,-3.054236295E-4,-3.054236295E-4
9.088516550E-1,2.137965523E-3,-1.527118147E-3,2.137965523E-3
9.112333210E-1,-4.581354442E-4,-3.054236295E-4,-3.054236295E-4
9.136149880E-1,7.635590737E-4,9.162708884E-4,-3.054236295E-4
9.159966550E-1,2.137965523E-3,-1.527118147E-3,-3.054236295E-4
9.183783730E-1,7.635590737E-4,-3.054236295E-4,9.162708884E-4
9.207600400E-1,-4.581354442E-4,-3.054236295E-4,-1.527118147E-3
9.231417070E-1,1.985253533E-3,-3.054236295E-4,-3.054236295E-4
9.255233730E-1,7.635590737E-4,-3.054236295E-4,9.162708884E-4
9.279050400E-1,-1.679830020E-3,9.162708884E-4,-3.054236295E-4
9.302867590E-1,-4.581354442E-4,9.162708884E-4,-3.054236295E-4
9.326684250E-1,7.635590737E-4,2.137965523E-3,-3.054236295E-4
9.350500920E-1,7.635590737E-4,9.162708884E-4,-3.054236295E-4
9.374317590E-1,-4.581354442E-4,-3.054236295E-4,-3.054236295E-4
9.398134250E-1,7.635590737E-4,-3.054236295E-4,9.162708884E-4
9.421951440E-1,7.635590737E-4,9.162708884E-4,-3.054236295E-4
9.445768110E-1,-4.581354442E-4,9.162708884E-4,-3.054236295E-4
9.469584780E-1,-4.581354442E-4,-3.054236295E-4,9.162708884E-4
9.493401440E-1,9.162708884E-4,-2.748812549E-3,9.162708884E-4
9.517218630E-1,-4.581354442E-4,-1.527118147E-3,9.162708884E-4
9.541035300E-1,7.635590737E-4,9.162708884E-4,-3.054236295E-4
9.564851960E-1,-4.581354442E-4,2.137965523E-3,-1.527118147E-3
9.588668630E-1,7.635590737E-4,9.162708884E-4,-3.054236295E-4
9.612485300E-1,-1.679830020E-3,-1.527118147E-3,-3.054236295E-4
9.636301960E-1,-4.581354442E-4,-1.527118147E-3,-3.054236295E-4
9.660119150E-1,7.635590737E-4,-3.054236295E-4,-1.527118147E-3
9.683935820E-1,1.985253533E-3,9.162708884E-4,-3.054236295E-4
9.707752480E-1,7.635590737E-4,-3.054236295E-4,-3.054236295E-4
9.731569150E-1,-4.581354442E-4,2.137965523E-3,-3.054236295E-4
9.755385820E-1,7.635590737E-4,-3.054236295E-4,-1.527118147E-3
9.779203000E-1,-4.581354442E-4,-1.527118147E-3,-3.054236295E-4
9.803019670E-1,7.635590737E-4,-1.527118147E-3,-3.054236295E-4
9.826836340E-1,-1.679830020E-3,-3.054236295E-4,-3.054236295E-4
9.850653000E-1,-4.581354442E-4,-2.748812549E-3,-3.054236295E-4
9.874469670E-1,7.635590737E-4,2.137965523E-3,9.162708884E-4
9.898286340E-1,-4.581354442E-4,-3.054236295E-4,-3.054236295E-4
9.922103530E-1,-4.581354442E-4,-1.527118147E-3,-3.054236295E-4
9.945920190E-1,7.635590737E-4,9.162708884E-4,9.162708884E-4
9.969736860E-1,7.635590737E-4,9.162708884E-4,-3.054236295E-4
9.993553530E-1,-4.581354442E-4,-3.054236295E-4,9.162708884E-4
1.001737019E0,-1.679830020E-3,-3.054236295E-4,-3.054236295E-4
1.004118738E0,7.635590737E-4,-3.054236295E-4,-1.527118147E-3
1.006500405E0,7.635590737E-4,9.162708884E-4,-1.527118147E-3
1.008882071E0,-4.581354442E-4,9.162708884E-4,-1.527118147E-3
1.011263738E0,-4.581354442E-4,-1.527118147E-3,-3.054236295E-4
1.013645405E0,-4.581354442E-4,-1.527118147E-3,-3.054236295E-4
1.016027123E0,-4.581354442E-4,-1.527118147E-3,9.162708884E-4
1.018408790E0,-4.581354442E-4,2.137965523E-3,-3.054236295E-4
1.020790457E0,7.635590737E-4,-3.054236295E-4,-1.527118147E-3
1.023172123E0,-1.679830020E-3,9.162708884E-4,-1.527118147E-3
1.025553790E0,-1.679830020E-3,-3.054236295E-4,-1.527118147E-3
1.027935509E0,1.985253533E-3,-1.527118147E-3,-1.527118147E-3
1.030317175E0,1.985253533E-3,-3.054236295E-4,-1.527118147E-3
1.032698842E0,7.635590737E-4,9.162708884E-4,9.162708884E-4
1.035080509E0,7.635590737E-4,-3.054236295E-4,-1.527118147E-3
1.037462175E0,-4.581354442E-4,-3.054236295E-4,-3.054236295E-4
1.039843894E0,-4.581354442E-4,-3.054236295E-4,-3.054236295E-4
1.042225561E0,7.635590737E-4,-3.054236295E-4,-1.527118147E-3
1.044607228E0,-4.581354442E-4,9.162708884E-4,-1.527118147E-3
1.046988894E0,7.635590737E-4,9.162708884E-4,-3.054236295E-4
1.049370561E0,7.635590737E-4,2.137965523E-3,-3.054236295E-4
1.051752280E0,7.635590737E-4,3.359660041E-3,9.162708884E-4
1.054133946E0,-4.581354442E-4,9.162708884E-4,9.162708884E-4
1.056515613E0,-4.581354442E-4,2.137965523E-3,-3.054236295E-4
1.058897280E0,7.635590737E-4,9.162708884E-4,-3.054236295E-4
1.061278946E0,7.635590737E-4,-3.054236295E-4,-1.527118147E-3
1.063660665E0,7.635590737E-4,9.162708884E-4,-1.527118147E-3
1.066042332E0,7.635590737E-4,-1.527118147E-3,-3.054236295E-4
1.068423998E0,7.635590737E-4,-3.054236295E-4,-3.054236295E-4
1.070805665E0,-4.581354442E-4,-3.054236295E-4,-3.054236295E-4
1.073187332E0,7.635590737E-4,9.162708884E-4,-1.527118147E-3
1.075569050E0,-4.581354442E-4,-3.054236295E-4,-3.054236295E-4
1.077950717E0,-4.581354442E-4,-3.054236295E-4,9.162708884E-4
1.080332384E0,-4.581354442E-4,9.162708884E-4,-3.054236295E-4
1.082714050E0,7.635590737E-4,-3.054236295E-4,-1.527118147E-3
1.085095717E0,-4.581354442E-4,-3.054236295E-4,-1.527118147E-3
1.087477436E0,-4.581354442E-4,9.162708884E-4,-3.054236295E-4
1.089859103E0,-4.581354442E-4,9.162708884E-4,-1.527118147E-3
1.092240769E0,-4.581354442E-4,9.162708884E-4,9.162708884E-4
1.094622436E0,7.635590737E-4,9.162708884E-4,-3.054236295E-4
1.097004103E0,7.635590737E-4,-3.054236295E-4,-1.527118147E-3
1.099385821E0,-4.581354442E-4,-3.054236295E-4,9.162708884E-4
1.101767488E0,7.635590737E-4,9.162708884E-4,-3.054236295E-4
1.104149155E0,7.635590737E-4,-3.054236295E-4,9.162708884E-4
1.106530821E0,-4.581354442E-4,-1.527118147E-3,-3.054236295E-4
1.108912488E0,-1.679830020E-3,-3.054236295E-4,2.137965523E-3
1.111294207E0,7.635590737E-4,9.162708884E-4,9.162708884E-4
1.113675873E0,-4.581354442E-4,-3.054236295E-4,-3.054236295E-4
1.116057540E0,-4.581354442E-4,9.162708884E-4,9.162708884E-4
1.118439207E0,7.635590737E-4,9.162708884E-4,9.162708884E-4
1.120820873E0,-1.679830020E-3,-1.527118147E-3,-3.054236295E-4
1.123202592E0,-1.679830020E-3,-1.527118147E-3,-3.054236295E-4
1.125584259E0,-4.581354442E-4,9.162708884E-4,9.162708884E-4
1.127965925E0,-4.581354442E-4,9.162708884E-4,-3.054236295E-4
1.130347592E0,-4.581354442E-4,9.162708884E-4,-3.054236295E-4
1.132729259E0,-2.901524538E-3,-1.527118147E-3,9.162708884E-4
1.135110925E0,-1.679830020E-3,9.162708884E-4,-3.054236295E-4
1.137492644E0,-4.581354442E-4,-1.527118147E-3,-1.527118147E-3
1.139874311E0,-1.679830020E-3,-1.527118147E-3,-1.527118147E-3
1.142255978E0,-1.679830020E-3,-3.054236295E-4,-3.054236295E-4
1.144637644E0,7.635590737E-4,9.162708884E-4,9.162708884E-4
1.147019363E0,-4.581354442E-4,-3.054236295E-4,-3.054236295E-4
1.149401030E0,-3.054236295E-4,-1.527118147E-4,-2.290677279E-3
1.151782696E0,-3.054236295E-4,1.068982761E-3,-1.068982761E-3
1.154164363E0,1.068982761E-3,-2.596100792E-3,1.374406274E-3
1.156546030E0,9.162708884E-4,-1.374406274E-3,-1.068982761E-3
1.158927748E0,-3.054236295E-4,-1.527118147E-4,-1.068982761E-3
1.161309415E0,-3.054236295E-4,1.068982761E-3,-1.068982761E-3
1.163691082E0,9.162708884E-4,1.068982761E-3,1.374406274E-3
1.166072748E0,9.162708884E-4,1.068982761E-3,1.527118147E-4
1.168454415E0,-3.054236295E-4,1.068982761E-3,1.527118147E-4
1.170836134E0,-3.054236295E-4,-1.527118147E-4,1.527118147E-4
1.173217800E0,-3.054236295E-4,-1.527118147E-4,1.374406274E-3
1.175599467E0,9.162708884E-4,-1.374406274E-3,-1.068982761E-3
1.177981134E0,9.162708884E-4,-1.374406274E-3,-1.068982761E-3
1.180362800E0,-3.054236295E-4,3.512371797E-3,1.527118147E-4
1.182744519E0,-3.054236295E-4,-1.527118147E-4,1.527118147E-4
1.185126186E0,-3.054236295E-4,-1.527118147E-4,1.527118147E-4
1.187507853E0,-3.054236295E-4,1.068982761E-3,1.527118147E-4
1.189889519E0,-3.054236295E-4,-1.527118147E-4,-1.068982761E-3
1.192271186E0,-3.054236295E-4,-2.596100792E-3,1.527118147E-4
1.194652905E0,-3.054236295E-4,-1.374406274E-3,-1.068982761E-3
1.197034571E0,-1.527118147E-3,-1.527118147E-4,1.527118147E-4
1.199416238E0,-3.054236295E-4,1.068982761E-3,1.527118147E-4
1.201797905E0,9.162708884E-4,-1.527118147E-4,1.527118147E-4
1.204179571E0,-1.527118147E-3,-1.527118147E-4,1.527118147E-4
1.206561290E0,-3.054236295E-4,1.068982761E-3,-1.068982761E-3
1.208942957E0,-3.054236295E-4,1.068982761E-3,1.374406274E-3
1.211324623E0,-1.527118147E-3,1.068982761E-3,1.527118147E-4
1.213706290E0,9.162708884E-4,1.068982761E-3,-1.068982761E-3
1.216087957E0,2.290677279E-3,-1.527118147E-4,1.527118147E-4
1.218469675E0,-3.054236295E-4,-1.527118147E-4,-1.068982761E-3
1.220851342E0,-1.527118147E-3,-1.374406274E-3,-1.068982761E-3
1.223233009E0,-3.054236295E-4,-1.527118147E-4,-1.068982761E-3
1.225614675E0,-3.054236295E-4,-1.527118147E-4,-1.068982761E-3
1.227996342E0,9.162708884E-4,-1.374406274E-3,1.527118147E-4
1.230378061E0,9.162708884E-4,-1.527118147E-4,1.527118147E-4
1.232759728E0,-1.527118147E-3,-1.374406274E-3,-2.290677279E-3
1.235141394E0,-3.054236295E-4,-1.527118147E-4,1.374406274E-3
1.237523061E0,9.162708884E-4,1.068982761E-3,1.527118147E-4
1.239904728E0,9.162708884E-4,1.068982761E-3,1.374406274E-3
1.242286446E0,-3.054236295E-4,1.068982761E-3,1.527118147E-4
1.244668113E0,-3.054236295E-4,-2.596100792E-3,1.527118147E-4
1.247049780E0,-1.527118147E-3,1.068982761E-3,1.374406274E-3
1.249431446E0,-3.054236295E-4,-1.527118147E-4,1.527118147E-4
1.251813113E0,-3.054236295E-4,-1.374406274E-3,1.374406274E-3
1.254194832E0,2.290677279E-3,-1.374406274E-3,2.596100792E-3
1.256576498E0,9.162708884E-4,1.068982761E-3,1.527118147E-4
1.258958165E0,-3.054236295E-4,1.068982761E-3,-1.068982761E-3
1.261339832E0,-3.054236295E-4,-1.527118147E-4,1.527118147E-4
1.263721550E0,-3.054236295E-4,2.290677279E-3,1.374406274E-3
1.266103217E0,9.162708884E-4,1.068982761E-3,1.527118147E-4
1.268484884E0,-1.527118147E-3,-1.527118147E-4,1.374406274E-3
1.270866550E0,2.137965523E-3,2.290677279E-3,1.527118147E-4
1.273248217E0,9.162708884E-4,2.290677279E-3,1.374406274E-3
1.275629884E0,-3.054236295E-4,-1.527118147E-4,1.527118147E-4
1.278011603E0,-1.527118147E-3,2.290677279E-3,1.374406274E-3
1.280393269E0,-3.054236295E-4,1.068982761E-3,1.527118147E-4
1.282774936E0,9.162708884E-4,1.068982761E-3,-1.068982761E-3
1.285156603E0,9.162708884E-4,-1.527118147E-4,1.527118147E-4
1.287538269E0,-3.054236295E-4,-1.527118147E-4,1.374406274E-3
1.289919988E0,-3.054236295E-4,-1.527118147E-4,1.527118147E-4
1.292301655E0,-1.527118147E-3,1.068982761E-3,1.527118147E-4
1.294683321E0,-3.054236295E-4,-1.374406274E-3,1.527118147E-4
1.297064988E0,-3.054236295E-4,1.068982761E-3,-1.068982761E-3
1.299446707E0,9.162708884E-4,1.068982761E-3,-1.068982761E-3
1.301828373E0,-3.054236295E-4,-1.374406274E-3,-1.068982761E-3
1.304210040E0,-1.527118147E-3,1.068982761E-3,1.527118147E-4
1.306591707E0,-1.527118147E-3,-1.374406274E-3,-2.290677279E-3
1.308973373E0,-3.054236295E-4,1.068982761E-3,1.527118147E-4
1.311355092E0,-3.054236295E-4,-1.527118147E-4,1.374406274E-3
1.313736759E0,-1.527118147E-3,-1.527118147E-4,-1.068982761E-3
1.316118425E0,-1.527118147E-3,1.068982761E-3,-1.068982761E-3
1.318500092E0,9.162708884E-4,-1.527118147E-4,1.527118147E-4
1.320881759E0,2.290677279E-3,-1.374406274E-3,-1.068982761E-3
1.323263478E0,2.290677279E-3,-1.374406274E-3,-1.068982761E-3
1.325645144E0,-1.527118147E-3,-1.527118147E-4,-1.068982761E-3
1.328026811E0,9.162708884E-4,1.068982761E-3,1.527118147E-4
1.330408478E0,-3.054236295E-4,-1.527118147E-4,1.527118147E-4
1.332790144E0,-1.527118147E-3,-1.527118147E-4,1.527118147E-4
1.335171863E0,-3.054236295E-4,2.290677279E-3,1.527118147E-4
1.337553530E0,-3.054236295E-4,2.290677279E-3,1.527118147E-4
1.339935196E0,-3.054236295E-4,1.068982761E-3,1.527118147E-4
1.342316863E0,-3.054236295E-4,-1.374406274E-3,1.374406274E-3
1.344698530E0,-3.054236295E-4,1.068982761E-3,1.374406274E-3
1.347080248E0,9.162708884E-4,1.068982761E-3,1.527118147E-4
1.349461915E0,-3.054236295E-4,1.068982761E-3,1.527118147E-4
1.351843582E0,9.162708884E-4,-1.527118147E-4,-1.068982761E-3
1.354225248E0,-3.054236295E-4,-1.374406274E-3,1.374406274E-3
1.356606967E0,9.162708884E-4,-1.527118147E-4,-1.068982761E-3
1.358988634E0,-3.054236295E-4,1.068982761E-3,1.527118147E-4
1.361370300E0,-3.054236295E-4,1.068982761E-3,-1.068982761E-3
1.363751967E0,-3.054236295E-4,-1.527118147E-4,1.374406274E-3
1.366133634E0,9.162708884E-4,1.068982761E-3,1.527118147E-4
1.368515353E0,-3.054236295E-4,-1.527118147E-4,1.527118147E-4
1.370897019E0,9.162708884E-4,-1.374406274E-3,-2.290677279E-3
1.373278686E0,-3.054236295E-4,-2.596100792E-3,-1.068982761E-3
1.375660353E0,-3.054236295E-4,-1.527118147E-4,1.527118147E-4
1.378042019E0,-3.054236295E-4,-1.527118147E-4,1.374406274E-3
1.380423738E0,-3.054236295E-4,-1.374406274E-3,1.374406274E-3
1.382805405E0,-3.054236295E-4,1.068982761E-3,2.596100792E-3
1.385187071E0,9.162708884E-4,1.068982761E-3,1.527118147E-4
1.387568738E0,9.162708884E-4,-1.374406274E-3,-1.068982761E-3
1.389950405E0,9.162708884E-4,-1.374406274E-3,1.527118147E-4
1.392332123E0,-3.054236295E-4,-1.527118147E-4,1.374406274E-3
1.394713790E0,9.162708884E-4,1.068982761E-3,2.596100792E-3
1.397095457E0,9.162708884E-4,-1.527118147E-4,1.374406274E-3
1.399477123E0,9.162708884E-4,1.068982761E-3,1.527118147E-4
1.401858842E0,9.162708884E-4,2.290677279E-3,1.527118147E-4
1.404240509E0,9.162708884E-4,-1.374406274E-3,-1.068982761E-3
1.406622175E0,2.290677279E-3,2.290677279E-3,2.596100792E-3
1.409003842E0,-3.054236295E-4,1.068982761E-3,1.527118147E-4
1.411385509E0,-3.054236295E-4,1.068982761E-3,1.527118147E-4
1.413767228E0,9.162708884E-4,1.068982761E-3,1.527118147E-4
1.416148894E0,-3.054236295E-4,-1.527118147E-4,1.527118147E-4
1.418530561E0,-3.054236295E-4,1.068982761E-3,-1.068982761E-3
1.420912228E0,-3.054236295E-4,-1.527118147E-4,-1.068982761E-3
1.423293894E0,-3.054236295E-4,-1.527118147E-4,1.527118147E-4
1.425675613E0,-3.054236295E-4,1.068982761E-3,1.527118147E-4
1.428057280E0,-3.054236295E-4,-1.527118147E-4,1.374406274E-3
1.430438946E0,-1.527118147E-3,-2.596100792E-3,1.527118147E-4
1.432820613E0,9.162708884E-4,1.068982761E-3,1.527118147E-4
1.435202280E0,9.162708884E-4,-1.527118147E-4,1.374406274E-3
1.437583998E0,2.290677279E-3,-1.527118147E-4,1.527118147E-4
1.439965665E0,-3.054236295E-4,-1.527118147E-4,1.374406274E-3
1.442347332E0,9.162708884E-4,-1.527118147E-4,1.374406274E-3
1.444728998E0,9.162708884E-4,-1.374406274E-3,1.527118147E-4
1.447110665E0,-3.054236295E-4,-1.374406274E-3,1.527118147E-4
1.449492384E0,9.162708884E-4,1.068982761E-3,-1.068982761E-3
1.451874050E0,-1.527118147E-3,1.068982761E-3,-1.068982761E-3
1.454255717E0,-3.054236295E-4,-1.527118147E-4,1.527118147E-4
1.456637384E0,-3.054236295E-4,-1.527118147E-4,1.374406274E-3
1.459019050E0,-3.054236295E-4,-2.596100792E-3,1.527118147E-4
1.461400769E0,-3.054236295E-4,-1.374406274E-3,1.374406274E-3
1.463782436E0,2.137965523E-3,1.068982761E-3,1.527118147E-4
1.466164103E0,-3.054236295E-4,1.068982761E-3,1.374406274E-3
1.468545769E0,-1.527118147E-3,-1.527118147E-4,1.527118147E-4
1.470927436E0,-3.054236295E-4,1.068982761E-3,1.527118147E-4
1.473309155E0,-3.054236295E-4,-1.527118147E-4,1.374406274E-3
1.475690821E0,-3.054236295E-4,-1.527118147E-4,1.374406274E-3
1.478072488E0,-3.054236295E-4,-2.596100792E-3,1.527118147E-4
1.480454155E0,9.162708884E-4,-1.527118147E-4,1.527118147E-4
1.482835873E0,-1.527118147E-3,-1.374406274E-3,1.527118147E-4
1.485217540E0,2.290677279E-3,1.068982761E-3,1.374406274E-3
1.487599207E0,2.290677279E-3,-1.527118147E-4,1.527118147E-4
1.489980873E0,9.162708884E-4,-1.527118147E-4,1.374406274E-3
1.492362540E0,9.162708884E-4,-1.527118147E-4,1.527118147E-4
1.494744259E0,9.162708884E-4,-1.527118147E-4,1.527118147E-4
1.497125925E0,-3.054236295E-4,1.068982761E-3,1.527118147E-4
1.499507592E0,-3.054236295E-4,-1.527118147E-4,-2.290677279E-3
1.501889259E0,-3.054236295E-4,-1.527118147E-4,-1.068982761E-3
1.504270978E0,-3.054236295E-4,1.068982761E-3,-1.068982761E-3
1.506652644E0,-3.054236295E-4,-1.527118147E-4,-1.068982761E-3
1.509034311E0,9.162708884E-4,1.068982761E-3,-1.068982761E-3
1.511415978E0,-3.054236295E-4,-1.527118147E-4,-1.068982761E-3
1.513797644E0,9.162708884E-4,-1.374406274E-3,1.527118147E-4
1.516179311E0,9.162708884E-4,-1.374406274E-3,1.374406274E-3
1.518561030E0,2.290677279E-3,-1.374406274E-3,1.527118147E-4
1.520942696E0,-3.054236295E-4,-1.374406274E-3,1.527118147E-4
1.523324363E0,9.162708884E-4,-1.527118147E-4,1.527118147E-4
1.525706030E0,9.162708884E-4,1.068982761E-3,1.527118147E-4
1.528087748E0,2.290677279E-3,-2.596100792E-3,-1.068982761E-3
1.530469415E0,9.162708884E-4,1.068982761E-3,-1.068982761E-3
1.532851082E0,9.162708884E-4,1.068982761E-3,-1.068982761E-3
1.535232748E0,9.162708884E-4,-1.527118147E-4,1.527118147E-4
1.537614415E0,9.162708884E-4,-1.527118147E-4,1.527118147E-4
1.539996134E0,9.162708884E-4,-1.374406274E-3,-2.290677279E-3
1.542377800E0,-3.054236295E-4,-1.374406274E-3,-1.068982761E-3
1.544759467E0,-3.054236295E-4,2.290677279E-3,1.527118147E-4
1.547141134E0,-3.054236295E-4,-1.527118147E-4,-1.068982761E-3
1.549522800E0,-1.527118147E-3,-1.527118147E-4,-1.068982761E-3
1.551904519E0,9.162708884E-4,1.068982761E-3,1.527118147E-4
1.554286186E0,9.162708884E-4,-1.527118147E-4,1.527118147E-4
1.556667853E0,2.137965523E-3,1.068982761E-3,1.527118147E-4
1.559049519E0,-3.054236295E-4,-1.527118147E-4,-1.068982761E-3
1.561431186E0,-3.054236295E-4,1.068982761E-3,1.527118147E-4
1.563812905E0,9.162708884E-4,1.068982761E-3,1.374406274E-3
1.566194571E0,2.137965523E-3,-1.527118147E-4,-1.068982761E-3
1.568576238E0,9.162708884E-4,-2.596100792E-3,1.527118147E-4
1.570957905E0,-3.054236295E-4,-3.817795310E-3,1.527118147E-4
1.573339623E0,-3.054236295E-4,-1.374406274E-3,1.527118147E-4
1.575721290E0,-3.054236295E-4,-1.527118147E-4,-2.290677279E-3
1.578102957E0,-3.054236295E-4,-1.527118147E-4,-1.068982761E-3
1.580484623E0,-1.527118147E-3,-2.596100792E-3,-1.068982761E-3
1.582866342E0,-3.054236295E-4,1.068982761E-3,1.374406274E-3
1.585248009E0,9.162708884E-4,-1.527118147E-4,-1.068982761E-3
1.587629675E0,9.162708884E-4,-1.527118147E-4,1.527118147E-4
1.590011342E0,9.162708884E-4,1.068982761E-3,-1.068982761E-3
1.592393009E0,-3.054236295E-4,-1.527118147E-4,1.527118147E-4
1.594774675E0,-1.527118147E-3,-1.527118147E-4,1.527118147E-4
1.597156394E0,-1.527118147E-3,-1.374406274E-3,-1.068982761E-3
1.599538061E0,-3.054236295E-4,-2.596100792E-3,1.374406274E-3
1.601919728E0,-3.054236295E-4,-1.374406274E-3,1.374406274E-3
1.604301394E0,9.162708884E-4,-1.527118147E-4,1.527118147E-4
1.606683113E0,9.162708884E-4,-1.527118147E-4,1.527118147E-4
1.609064780E0,9.162708884E-4,-1.527118147E-4,-1.068982761E-3
1.611446446E0,-3.054236295E-4,-1.374406274E-3,-1.068982761E-3
1.613828113E0,-3.054236295E-4,3.512371797E-3,1.527118147E-4
1.616209780E0,9.162708884E-4,1.068982761E-3,-1.068982761E-3
1.618591498E0,9.162708884E-4,-1.374406274E-3,1.527118147E-4
1.620973165E0,9.162708884E-4,1.068982761E-3,1.527118147E-4
1.623354832E0,-3.054236295E-4,1.068982761E-3,-1.068982761E-3
1.625736498E0,-3.054236295E-4,-1.374406274E-3,1.527118147E-4
1.628118217E0,-1.527118147E-3,-1.374406274E-3,-2.290677279E-3
1.630499884E0,9.162708884E-4,1.068982761E-3,1.527118147E-4
1.632881550E0,-3.054236295E-4,-2.596100792E-3,1.527118147E-4
1.635263217E0,-3.054236295E-4,-1.527118147E-4,1.527118147E-4
1.637644884E0,-1.527118147E-3,-1.527118147E-4,1.527118147E-4
1.640026603E0,-3.054236295E-4,-1.527118147E-4,-1.068982761E-3
1.642408269E0,9.162708884E-4,2.290677279E-3,-1.068982761E-3
1.644789936E0,-3.054236295E-4,-1.374406274E-3,1.527118147E-4
1.647171603E0,9.162708884E-4,-1.527118147E-4,1.374406274E-3
1.649553269E0,-3.054236295E-4,1.068982761E-3,2.596100792E-3
1.651934988E0,9.162708884E-4,1.068982761E-3,1.374406274E-3
1.654316655E0,9.162708884E-4,2.290677279E-3,1.527118147E-4
1.656698321E0,-3.054236295E-4,-1.374406274E-3,-1.068982761E-3
1.659079988E0,9.162708884E-4,-1.527118147E-4,1.374406274E-3
1.661461707E0,-3.054236295E-4,-1.374406274E-3,1.527118147E-4
1.663843373E0,9.162708884E-4,-1.527118147E-4,-1.068982761E-3
1.666225040E0,9.162708884E-4,1.068982761E-3,-1.068982761E-3
1.668606707E0,-3.054236295E-4,2.290677279E-3,1.527118147E-4
1.670988373E0,-3.054236295E-4,1.068982761E-3,1.374406274E-3
1.673370092E0,-3.054236295E-4,-1.374406274E-3,1.374406274E-3
1.675751759E0,-3.054236295E-4,1.068982761E-3,-1.068982761E-3
1.678133425E0,-3.054236295E-4,1.068982761E-3,1.527118147E-4
1.680515092E0,-3.054236295E-4,-1.527118147E-4,1.527118147E-4
1.682896759E0,-3.054236295E-4,2.290677279E-3,-1.068982761E-3
1.685278478E0,-1.527118147E-3,1.068982761E-3,2.596100792E-3
1.687660144E0,9.162708884E-4,1.068982761E-3,1.527118147E-4
1.690041811E0,-3.054236295E-4,-1.527118147E-4,1.527118147E-4
1.692423478E0,-1.527118147E-3,-2.596100792E-3,1.527118147E-4
1.694805144E0,-3.054236295E-4,-1.374406274E-3,1.527118147E-4
1.697186863E0,9.162708884E-4,-1.527118147E-4,1.527118147E-4
1.699568530E0,9.162708884E-4,-2.596100792E-3,1.527118147E-4
1.701950196E0,-3.054236295E-4,1.068982761E-3,-1.068982761E-3
1.704331863E0,9.162708884E-4,1.068982761E-3,1.527118147E-4
1.706713582E0,-3.054236295E-4,1.068982761E-3,-1.068982761E-3
1.709095248E0,-3.054236295E-4,2.290677279E-3,-1.068982761E-3
1.711476915E0,-1.527118147E-3,1.068982761E-3,1.527118147E-4
1.713858582E0,9.162708884E-4,1.068982761E-3,1.374406274E-3
1.716240300E0,9.162708884E-4,2.290677279E-3,1.374406274E-3
1.718621967E0,9.162708884E-4,-1.527118147E-4,1.527118147E-4
1.721003634E0,2.137965523E-3,1.068982761E-3,1.527118147E-4
1.723385300E0,9.162708884E-4,1.068982761E-3,-1.068982761E-3
1.725766967E0,-3.054236295E-4,-1.527118147E-4,1.527118147E-4
1.728148686E0,9.162708884E-4,-1.374406274E-3,1.527118147E-4
1.730530353E0,-3.054236295E-4,-1.374406274E-3,-1.068982761E-3
1.732912019E0,-3.054236295E-4,-1.374406274E-3,2.596100792E-3
1.735293686E0,-3.054236295E-4,-1.527118147E-4,1.374406274E-3
1.737675353E0,-3.054236295E-4,-1.374406274E-3,1.527118147E-4
1.740057071E0,-3.054236295E-4,-1.527118147E-4,1.527118147E-4
1.742438738E0,9.162708884E-4,1.068982761E-3,1.527118147E-4
1.744820405E0,9.162708884E-4,1.068982761E-3,1.374406274E-3
1.747202071E0,-3.054236295E-4,1.068982761E-3,1.527118147E-4
1.749583790E0,-1.527118147E-3,1.068982761E-3,1.374406274E-3
1.751965457E0,-3.054236295E-4,-1.527118147E-4,1.527118147E-4
1.754347123E0,2.290677279E-3,-1.527118147E-4,1.527118147E-4
1.756728790E0,2.290677279E-3,-1.374406274E-3,-1.068982761E-3
1.759110457E0,9.162708884E-4,-1.374406274E-3,-1.068982761E-3
1.761492175E0,9.162708884E-4,-1.374406274E-3,1.374406274E-3
1.763873842E0,9.162708884E-4,1.068982761E-3,1.527118147E-4
1.766255509E0,9.162708884E-4,-1.527118147E-4,-1.068982761E-3
1.768637175E0,9.162708884E-4,2.290677279E-3,1.527118147E-4
1.771018894E0,-1.527118147E-3,2.290677279E-3,1.527118147E-4
1.773400561E0,-3.054236295E-4,-1.527118147E-4,1.527118147E-4
1.775782228E0,9.162708884E-4,-1.527118147E-4,1.527118147E-4
1.778163894E0,9.162708884E-4,-1.527118147E-4,1.374406274E-3
1.780545613E0,-3.054236295E-4,1.068982761E-3,-1.068982761E-3
1.782927280E0,-1.527118147E-3,-1.527118147E-4,-2.290677279E-3
1.785308946E0,-3.054236295E-4,-1.527118147E-4,1.527118147E-4
1.787690613E0,-3.054236295E-4,-1.527118147E-4,2.596100792E-3
1.790072280E0,9.162708884E-4,1.068982761E-3,1.374406274E-3
1.792453998E0,9.162708884E-4,-1.527118147E-4,-1.068982761E-3
1.794835665E0,9.162708884E-4,-2.596100792E-3,1.527118147E-4
1.797217332E0,-3.054236295E-4,1.068982761E-3,-1.068982761E-3
1.799598998E0,9.162708884E-4,2.290677279E-3,-1.068982761E-3
1.801980665E0,-3.054236295E-4,1.068982761E-3,-1.068982761E-3
1.804362384E0,-3.054236295E-4,1.068982761E-3,1.527118147E-4
1.806744050E0,2.137965523E-3,1.068982761E-3,-1.068982761E-3
1.809125717E0,-3.054236295E-4,1.068982761E-3,-1.068982761E-3
1.811507384E0,-3.054236295E-4,-1.374406274E-3,1.527118147E-4
1.813889103E0,-3.054236295E-4,-1.527118147E-4,1.527118147E-4
1.816270769E0,-3.054236295E-4,1.068982761E-3,1.374406274E-3
1.818652436E0,-3.054236295E-4,1.068982761E-3,1.374406274E-3
1.821034103E0,9.162708884E-4,2.290677279E-3,3.817795310E-3
1.823415769E0,-3.054236295E-4,-1.374406274E-3,1.527118147E-4
1.825797488E0,2.137965523E-3,2.290677279E-3,-1.068982761E-3
1.828179155E0,-3.054236295E-4,2.290677279E-3,1.374406274E-3
1.830560821E0,2.290677279E-3,1.068982761E-3,1.374406274E-3
1.832942488E0,-3.054236295E-4,1.068982761E-3,1.527118147E-4
1.835324207E0,-3.054236295E-4,-1.527118147E-4,-1.068982761E-3
1.837705873E0,9.162708884E-4,-1.527118147E-4,1.527118147E-4
1.840087540E0,-3.054236295E-4,-1.527118147E-4,1.374406274E-3
1.842469207E0,9.162708884E-4,-1.527118147E-4,1.374406274E-3
1.844850873E0,9.162708884E-4,-1.374406274E-3,1.374406274E-3
1.847232592E0,2.290677279E-3,-1.374406274E-3,1.527118147E-4
1.849614259E0,9.162708884E-4,-2.596100792E-3,-1.068982761E-3
1.851995925E0,-3.054236295E-4,-1.374406274E-3,1.527118147E-4
1.854377592E0,-3.054236295E-4,-1.527118147E-4,1.374406274E-3
1.856759311E0,-3.054236295E-4,1.068982761E-3,1.374406274E-3
1.859140978E0,-3.054236295E-4,-1.527118147E-4,1.527118147E-4
1.861522644E0,-3.054236295E-4,1.068982761E-3,1.527118147E-4
1.863904311E0,-3.054236295E-4,1.068982761E-3,1.527118147E-4
1.866285978E0,-3.054236295E-4,1.068982761E-3,1.374406274E-3
1.868667696E0,9.162708884E-4,1.068982761E-3,1.527118147E-4
1.871049363E0,-1.527118147E-3,-2.596100792E-3,-1.068982761E-3
1.873431030E0,9.162708884E-4,1.068982761E-3,1.374406274E-3
1.875812696E0,9.162708884E-4,-1.527118147E-4,-1.068982761E-3
1.878194363E0,-3.054236295E-4,-1.527118147E-4,1.527118147E-4
1.880576082E0,9.162708884E-4,1.068982761E-3,1.374406274E-3
1.882957748E0,9.162708884E-4,1.068982761E-3,1.527118147E-4
1.885339415E0,9.162708884E-4,-1.527118147E-4,1.374406274E-3
1.887721082E0,-3.054236295E-4,-2.596100792E-3,1.527118147E-4
1.890102800E0,2.290677279E-3,-1.374406274E-3,-1.068982761E-3
1.892484467E0,9.162708884E-4,-1.374406274E-3,1.374406274E-3
1.894866134E0,-3.054236295E-4,-1.527118147E-4,1.527118147E-4
1.897247800E0,9.162708884E-4,1.068982761E-3,1.374406274E-3
1.899629519E0,-3.054236295E-4,1.068982761E-3,1.374406274E-3
1.902011186E0,9.162708884E-4,1.068982761E-3,1.527118147E-4
1.904392853E0,9.162708884E-4,-1.374406274E-3,-1.068982761E-3
1.906774519E0,-3.054236295E-4,-1.527118147E-4,-1.068982761E-3
1.909156186E0,9.162708884E-4,1.068982761E-3,1.527118147E-4
1.911537905E0,9.162708884E-4,2.290677279E-3,1.374406274E-3
1.913919571E0,-3.054236295E-4,1.068982761E-3,1.374406274E-3
1.916301238E0,-3.054236295E-4,-1.374406274E-3,1.527118147E-4
1.918682905E0,2.137965523E-3,1.068982761E-3,-1.068982761E-3
1.921064571E0,9.162708884E-4,2.290677279E-3,1.527118147E-4
1.923446290E0,-3.054236295E-4,1.068982761E-3,1.374406274E-3
1.925827957E0,2.137965523E-3,1.068982761E-3,1.527118147E-4
1.928209623E0,9.162708884E-4,-1.527118147E-4,1.374406274E-3
1.930591290E0,2.137965523E-3,-1.374406274E-3,-2.290677279E-3
1.932973009E0,9.162708884E-4,-1.374406274E-3,1.527118147E-4
1.935354675E0,-1.527118147E-3,1.068982761E-3,1.527118147E-4
1.937736342E0,-1.527118147E-3,1.068982761E-3,1.527118147E-4
1.940118009E0,-1.527118147E-3,-1.527118147E-4,1.527118147E-4
1.942499675E0,-3.054236295E-4,1.068982761E-3,1.374406274E-3
1.944881394E0,-3.054236295E-4,-1.527118147E-4,-1.068982761E-3
1.947263061E0,-2.748812549E-3,-1.374406274E-3,1.527118147E-4
1.949644728E0,-1.527118147E-3,-1.374406274E-3,1.527118147E-4
1.952026394E0,9.162708884E-4,-2.596100792E-3,-1.068982761E-3
1.954408113E0,-3.054236295E-4,-1.374406274E-3,1.527118147E-4
1.956789780E0,-1.527118147E-3,-1.527118147E-4,-1.068982761E-3
1.959171446E0,2.290677279E-3,-1.527118147E-4,1.527118147E-4
1.961553113E0,9.162708884E-4,-1.527118147E-4,1.527118147E-4
1.963934832E0,-3.054236295E-4,1.068982761E-3,1.527118147E-4
1.966316498E0,-1.527118147E-3,1.068982761E-3,1.527118147E-4
1.968698165E0,9.162708884E-4,1.068982761E-3,-2.290677279E-3
1.971079832E0,-1.527118147E-3,-1.527118147E-4,1.374406274E-3
1.973461498E0,9.162708884E-4,1.068982761E-3,1.527118147E-4
1.975843217E0,-1.527118147E-3,-1.527118147E-4,-1.068982761E-3
1.978224884E0,9.162708884E-4,-1.527118147E-4,1.527118147E-4
1.980606550E0,9.162708884E-4,-1.527118147E-4,1.374406274E-3
1.982988217E0,9.162708884E-4,1.068982761E-3,1.527118147E-4
1.985369884E0,-3.054236295E-4,-1.374406274E-3,-1.068982761E-3
1.987751603E0,-3.054236295E-4,1.068982761E-3,-2.290677279E-3
1.990133269E0,9.162708884E-4,-1.527118147E-4,-1.068982761E-3
1.992514936E0,9.162708884E-4,-1.527118147E-4,1.374406274E-3
1.994896603E0,9.162708884E-4,-1.527118147E-4,1.374406274E-3
1.997278321E0,-3.054236295E-4,1.068982761E-3,1.374406274E-3
1.999659988E0,9.162708884E-4,-1.527118147E-4,1.527118147E-4
2.002041655E0,9.162708884E-4,2.290677279E-3,1.374406274E-3
2.004423321E0,-1.527118147E-3,1.068982761E-3,1.374406274E-3
2.006804988E0,-1.527118147E-3,-1.374406274E-3,1.527118147E-4
2.009186707E0,-3.054236295E-4,-1.374406274E-3,-2.290677279E-3
2.011568373E0,2.290677279E-3,1.068982761E-3,1.374406274E-3
2.013950040E0,2.290677279E-3,-1.374406274E-3,1.527118147E-4
2.016331707E0,9.162708884E-4,-1.527118147E-4,1.374406274E-3
2.018713425E0,-3.054236295E-4,-1.527118147E-4,-1.068982761E-3
2.021095092E0,9.162708884E-4,1.068982761E-3,1.527118147E-4
2.023476759E0,9.162708884E-4,-1.374406274E-3,1.374406274E-3
2.025858425E0,-3.054236295E-4,1.068982761E-3,1.527118147E-4
2.028240144E0,-3.054236295E-4,-1.527118147E-4,1.527118147E-4
2.030621811E0,-3.054236295E-4,1.068982761E-3,1.527118147E-4
2.033003478E0,-2.748812549E-3,1.068982761E-3,2.596100792E-3
2.035385144E0,-3.054236295E-4,-1.527118147E-4,1.374406274E-3
2.037766811E0,9.162708884E-4,-1.527118147E-4,1.527118147E-4
2.040148530E0,-3.054236295E-4,-1.374406274E-3,1.374406274E-3
2.042530196E0,-3.054236295E-4,-1.527118147E-4,1.374406274E-3
2.044911863E0,-1.527118147E-3,1.068982761E-3,1.527118147E-4
2.047293582E0,-3.054236295E-4,-1.527118147E-4,1.527118147E-4
2.049675248E0,-3.054236295E-4,-1.527118147E-4,-1.068982761E-3
2.052056915E0,-3.054236295E-4,-1.527118147E-4,-1.068982761E-3
2.054438582E0,-3.054236295E-4,-1.527118147E-4,-1.068982761E-3
2.056820248E0,-1.527118147E-3,-1.527118147E-4,-1.068982761E-3
2.059201967E0,-3.054236295E-4,2.290677279E-3,1.374406274E-3
2.061583634E0,9.162708884E-4,-1.527118147E-4,1.527118147E-4
2.063965300E0,-3.054236295E-4,-1.374406274E-3,1.374406274E-3
2.066346967E0,2.137965523E-3,1.068982761E-3,1.527118147E-4
2.068728634E0,9.162708884E-4,-1.374406274E-3,1.374406274E-3
2.071110353E0,2.290677279E-3,-1.374406274E-3,-1.068982761E-3
2.073492019E0,-3.054236295E-4,-1.374406274E-3,-1.068982761E-3
2.075873686E0,-1.527118147E-3,-2.596100792E-3,1.374406274E-3
2.078255353E0,-1.527118147E-3,-1.374406274E-3,1.527118147E-4
2.080637071E0,-1.527118147E-3,-1.527118147E-4,1.527118147E-4
2.083018738E0,-1.527118147E-3,-1.527118147E-4,1.374406274E-3
2.085400405E0,-1.527118147E-3,2.137965523E-3,1.527118147E-4
2.087782071E0,-3.054236295E-4,-1.527118147E-4,1.527118147E-4
2.090163790E0,-3.054236295E-4,-1.527118147E-4,1.374406274E-3
2.092545457E0,9.162708884E-4,1.068982761E-3,1.527118147E-4
2.094927123E0,-3.054236295E-4,2.290677279E-3,1.374406274E-3
2.097308790E0,-3.054236295E-4,-1.374406274E-3,1.374406274E-3
2.099690457E0,-3.054236295E-4,-1.527118147E-4,2.596100792E-3
2.102072175E0,-3.054236295E-4,2.290677279E-3,1.374406274E-3
2.104453842E0,-3.054236295E-4,-1.527118147E-4,1.527118147E-4
2.106835509E0,-3.054236295E-4,-1.527118147E-4,-1.068982761E-3
2.109217175E0,-1.527118147E-3,-1.527118147E-4,-1.068982761E-3
2.111598894E0,-1.527118147E-3,-1.527118147E-4,1.527118147E-4
2.113980561E0,-3.054236295E-4,-1.374406274E-3,1.527118147E-4
2.116362228E0,-1.527118147E-3,-1.527118147E-4,1.527118147E-4
2.118743894E0,-3.054236295E-4,1.068982761E-3,1.527118147E-4
2.121125561E0,-3.054236295E-4,-1.527118147E-4,1.374406274E-3
2.123507280E0,9.162708884E-4,1.068982761E-3,1.527118147E-4
2.125888946E0,-3.054236295E-4,1.068982761E-3,-2.290677279E-3
2.128270613E0,9.162708884E-4,1.068982761E-3,1.527118147E-4
2.130652280E0,2.290677279E-3,1.068982761E-3,2.596100792E-3
2.133033998E0,-3.054236295E-4,-1.374406274E-3,1.374406274E-3
2.135415665E0,9.162708884E-4,-1.527118147E-4,1.527118147E-4
2.137797332E0,9.162708884E-4,-1.527118147E-4,1.374406274E-3
2.140178998E0,-3.054236295E-4,-1.374406274E-3,1.374406274E-3
2.142560717E0,-3.054236295E-4,1.068982761E-3,-1.068982761E-3
2.144942384E0,2.290677279E-3,-1.374406274E-3,1.374406274E-3
2.147324050E0,9.162708884E-4,-1.374406274E-3,1.527118147E-4
2.149705717E0,9.162708884E-4,-1.374406274E-3,1.527118147E-4
2.152087384E0,-3.054236295E-4,-1.527118147E-4,-1.068982761E-3
2.154469103E0,-3.054236295E-4,-1.527118147E-4,-1.068982761E-3
2.156850769E0,9.162708884E-4,-1.527118147E-4,1.527118147E-4
2.159232436E0,9.162708884E-4,-1.527118147E-4,1.527118147E-4
2.161614103E0,9.162708884E-4,-1.374406274E-3,1.374406274E-3
2.163995821E0,9.162708884E-4,-1.527118147E-4,1.374406274E-3
2.166377488E0,9.162708884E-4,1.068982761E-3,2.596100792E-3
2.168759155E0,9.162708884E-4,-1.527118147E-4,1.527118147E-4
2.171140821E0,9.162708884E-4,-1.527118147E-4,-2.290677279E-3
2.173522488E0,-3.054236295E-4,-1.374406274E-3,-1.068982761E-3
2.175904207E0,-3.054236295E-4,2.290677279E-3,-1.068982761E-3
2.178285873E0,-3.054236295E-4,-1.374406274E-3,-2.290677279E-3
2.180667540E0,-3.054236295E-4,-1.527118147E-4,-2.290677279E-3
2.183049207E0,-3.054236295E-4,-3.817795310E-3,1.527118147E-4
2.185430925E0,-2.748812549E-3,-2.596100792E-3,2.596100792E-3
2.187812592E0,-1.527118147E-3,-1.527118147E-4,-1.068982761E-3
2.190194259E0,9.162708884E-4,3.359660041E-3,-1.068982761E-3
2.192575925E0,9.162708884E-4,2.290677279E-3,1.527118147E-4
2.194957644E0,9.162708884E-4,-1.527118147E-4,-1.068982761E-3
2.197339311E0,-3.054236295E-4,-1.527118147E-4,1.374406274E-3
2.199720978E0,-3.054236295E-4,-1.527118147E-4,1.527118147E-4
2.202102644E0,9.162708884E-4,1.068982761E-3,1.527118147E-4
2.204484363E0,-3.054236295E-4,3.359660041E-3,-2.290677279E-3
2.206866030E0,9.162708884E-4,4.581354558E-3,-1.068982761E-3
2.209247696E0,2.137965523E-3,3.512371797E-3,-1.068982761E-3
2.211629363E0,2.137965523E-3,-1.527118147E-4,-3.512371797E-3
2.214011030E0,2.137965523E-3,-1.374406274E-3,-2.290677279E-3
2.216392748E0,2.290677279E-3,-2.596100792E-3,-2.290677279E-3
2.218774415E0,9.162708884E-4,-1.374406274E-3,-3.512371797E-3
2.221156082E0,-2.748812549E-3,-2.748812549E-3,-5.955760833E-3
2.223537748E0,-2.748812549E-3,3.359660041E-3,-8.399149403E-3
2.225919467E0,9.162708884E-4,2.137965523E-3,-7.177455351E-3
2.228301134E0,-1.527118147E-3,2.137965523E-3,-5.955760833E-3
2.230682800E0,-3.054236295E-4,2.137965523E-3,-5.955760833E-3
2.233064467E0,9.162708884E-4,1.068982761E-3,-3.512371797E-3
2.235446186E0,-3.054236295E-4,1.068982761E-3,-2.290677279E-3
2.237827853E0,-1.527118147E-3,1.068982761E-3,1.527118147E-4
2.240209519E0,9.162708884E-4,1.068982761E-3,-2.290677279E-3
2.242591186E0,9.162708884E-4,2.290677279E-3,-1.068982761E-3
2.244972853E0,-3.054236295E-4,2.290677279E-3,-1.068982761E-3
2.247354571E0,-1.527118147E-3,-1.374406274E-3,-1.068982761E-3
2.249736238E0,-2.748812549E-3,1.068982761E-3,1.374406274E-3
2.252117905E0,-3.054236295E-4,-1.527118147E-4,-1.068982761E-3
2.254499571E0,-3.054236295E-4,-1.527118147E-4,-3.512371797E-3
2.256881290E0,9.162708884E-4,1.068982761E-3,-1.068982761E-3
2.259262957E0,-3.054236295E-4,2.290677279E-3,-1.068982761E-3
2.261644623E0,-1.527118147E-3,1.068982761E-3,1.527118147E-4
2.264026290E0,-3.054236295E-4,1.068982761E-3,1.527118147E-4
2.266407957E0,-3.054236295E-4,-1.374406274E-3,1.374406274E-3
2.268789675E0,-3.054236295E-4,-2.596100792E-3,1.527118147E-4
2.271171342E0,-3.054236295E-4,-1.527118147E-4,1.527118147E-4
2.273553009E0,-1.527118147E-3,-1.374406274E-3,1.374406274E-3
2.275934675E0,-3.054236295E-4,-1.374406274E-3,-1.068982761E-3
2.278316394E0,2.290677279E-3,-1.374406274E-3,1.374406274E-3
2.280698061E0,2.137965523E-3,1.068982761E-3,1.527118147E-4
2.283079728E0,2.137965523E-3,-1.527118147E-4,-1.068982761E-3
2.285461394E0,-1.527118147E-3,1.068982761E-3,-1.068982761E-3
2.287843113E0,9.162708884E-4,-1.527118147E-4,-2.290677279E-3
2.290224780E0,-3.054236295E-4,2.290677279E-3,1.527118147E-4
2.292606446E0,-3.054236295E-4,2.290677279E-3,1.374406274E-3
2.294988113E0,-3.054236295E-4,-1.527118147E-4,1.527118147E-4
2.297369832E0,9.162708884E-4,-1.527118147E-4,1.527118147E-4
2.299751498E0,-3.054236295E-4,-1.527118147E-4,-1.068982761E-3
2.302133165E0,-3.054236295E-4,-1.374406274E-3,1.527118147E-4
2.304514832E0,-3.054236295E-4,-1.374406274E-3,1.527118147E-4
2.306896498E0,-1.527118147E-3,1.068982761E-3,1.527118147E-4
2.309278217E0,9.162708884E-4,-1.527118147E-4,1.527118147E-4
2.311659884E0,-3.054236295E-4,-1.527118147E-4,2.596100792E-3
2.314041550E0,-3.054236295E-4,-1.374406274E-3,1.527118147E-4
2.316423217E0,9.162708884E-4,-1.374406274E-3,1.527118147E-4
2.318804936E0,9.162708884E-4,2.290677279E-3,1.527118147E-4
2.321186603E0,-3.054236295E-4,-1.527118147E-4,1.527118147E-4
2.323568269E0,9.162708884E-4,-1.527118147E-4,1.527118147E-4
2.325949936E0,9.162708884E-4,-1.527118147E-4,1.374406274E-3
2.328331655E0,-3.054236295E-4,-1.527118147E-4,1.527118147E-4
2.330713321E0,-3.054236295E-4,-1.527118147E-4,1.374406274E-3
2.333094988E0,9.162708884E-4,1.068982761E-3,1.527118147E-4
2.335476655E0,9.162708884E-4,1.068982761E-3,-1.068982761E-3
2.337858373E0,-1.527118147E-3,-1.527118147E-4,1.527118147E-4
2.340240040E0,9.162708884E-4,-1.527118147E-4,1.527118147E-4
2.342621707E0,-3.054236295E-4,-1.527118147E-4,1.527118147E-4
2.345003373E0,-1.527118147E-3,1.068982761E-3,1.527118147E-4
2.347385092E0,-3.054236295E-4,2.290677279E-3,1.527118147E-4
2.349766759E0,-3.054236295E-4,1.068982761E-3,1.527118147E-4
2.352148425E0,-3.054236295E-4,-1.527118147E-4,1.374406274E-3
2.354530092E0,9.162708884E-4,-1.374406274E-3,1.374406274E-3
2.356911811E0,9.162708884E-4,1.068982761E-3,1.374406274E-3
2.359293478E0,9.162708884E-4,1.068982761E-3,1.527118147E-4
2.361675144E0,-1.527118147E-3,-1.527118147E-4,1.527118147E-4
2.364056811E0,-3.054236295E-4,1.068982761E-3,1.527118147E-4
2.366438530E0,9.162708884E-4,2.290677279E-3,-1.068982761E-3
2.368820196E0,9.162708884E-4,-1.527118147E-4,1.527118147E-4
2.371201863E0,9.162708884E-4,-1.527118147E-4,1.527118147E-4
2.373583530E0,-3.054236295E-4,-1.527118147E-4,1.527118147E-4
2.375965196E0,-3.054236295E-4,1.068982761E-3,1.527118147E-4
2.378346915E0,9.162708884E-4,1.068982761E-3,1.374406274E-3
2.380728582E0,-3.054236295E-4,1.068982761E-3,-1.068982761E-3
2.383110248E0,9.162708884E-4,-1.527118147E-4,1.374406274E-3
2.385491915E0,2.290677279E-3,-1.374406274E-3,1.374406274E-3
2.387873634E0,2.290677279E-3,-1.527118147E-4,1.527118147E-4
2.390255300E0,-3.054236295E-4,-1.527118147E-4,1.527118147E-4
2.392636967E0,9.162708884E-4,1.068982761E-3,1.527118147E-4
2.395018634E0,9.162708884E-4,2.290677279E-3,1.374406274E-3
2.397400300E0,-1.527118147E-3,1.068982761E-3,-1.068982761E-3
2.399782019E0,-1.527118147E-3,-1.527118147E-4,-1.068982761E-3
2.402163686E0,-3.054236295E-4,-2.596100792E-3,1.527118147E-4
2.404545353E0,9.162708884E-4,-1.527118147E-4,1.374406274E-3
2.406927019E0,2.290677279E-3,-1.527118147E-4,2.596100792E-3
2.409308738E0,-3.054236295E-4,1.068982761E-3,1.374406274E-3
2.411690405E0,-3.054236295E-4,-1.374406274E-3,1.527118147E-4
2.414072071E0,-1.527118147E-3,-1.527118147E-4,1.527118147E-4
2.416453738E0,-3.054236295E-4,1.068982761E-3,1.527118147E-4
2.418835457E0,-3.054236295E-4,-1.527118147E-4,1.527118147E-4
2.421217123E0,-3.054236295E-4,-1.527118147E-4,1.374406274E-3
2.423598790E0,-3.054236295E-4,1.068982761E-3,1.527118147E-4
2.425980457E0,9.162708884E-4,1.068982761E-3,-1.068982761E-3
2.428362175E0,-3.054236295E-4,2.290677279E-3,1.527118147E-4
2.430743842E0,-3.054236295E-4,1.068982761E-3,1.527118147E-4
2.433125509E0,-3.054236295E-4,1.068982761E-3,1.527118147E-4
2.435507175E0,9.162708884E-4,-1.527118147E-4,-1.068982761E-3
2.437888894E0,9.162708884E-4,1.068982761E-3,1.527118147E-4
2.440270561E0,9.162708884E-4,1.068982761E-3,1.527118147E-4
2.442652228E0,-1.527118147E-3,2.137965523E-3,-1.068982761E-3
2.445033894E0,-3.054236295E-4,1.068982761E-3,1.527118147E-4
2.447415561E0,9.162708884E-4,-1.374406274E-3,1.374406274E-3
2.449797280E0,9.162708884E-4,-1.374406274E-3,1.374406274E-3
2.452178946E0,-1.527118147E-3,-1.374406274E-3,-1.068982761E-3
2.454560613E0,-3.054236295E-4,-1.527118147E-4,-2.290677279E-3
2.456942280E0,-3.054236295E-4,-1.527118147E-4,-1.068982761E-3
2.459323998E0,9.162708884E-4,2.290677279E-3,1.374406274E-3
2.461705665E0,-3.054236295E-4,1.068982761E-3,1.527118147E-4
2.464087332E0,9.162708884E-4,2.290677279E-3,1.527118147E-4
2.466468998E0,-3.054236295E-4,1.068982761E-3,1.374406274E-3
2.468850717E0,-3.054236295E-4,-1.374406274E-3,1.527118147E-4
2.471232384E0,-3.054236295E-4,1.068982761E-3,-1.068982761E-3
2.473614050E0,-3.054236295E-4,1.068982761E-3,-2.290677279E-3
2.475995717E0,9.162708884E-4,-1.527118147E-4,1.374406274E-3
2.478377436E0,-1.527118147E-3,2.290677279E-3,1.527118147E-4
2.480759103E0,-3.054236295E-4,-1.527118147E-4,1.527118147E-4
2.483140769E0,2.137965523E-3,1.068982761E-3,1.527118147E-4
2.485522436E0,-3.054236295E-4,-1.527118147E-4,-1.068982761E-3
2.487904155E0,-3.054236295E-4,-1.527118147E-4,1.527118147E-4
2.490285821E0,9.162708884E-4,-1.374406274E-3,1.527118147E-4
2.492667488E0,-3.054236295E-4,-2.596100792E-3,-1.068982761E-3
2.495049155E0,9.162708884E-4,-1.527118147E-4,1.527118147E-4
2.497430873E0,1.068982761E-3,-1.374406274E-3,2.596100792E-3
2.499812540E0,9.162708884E-4,1.068982761E-3,1.374406274E-3
2.502194207E0,-3.054236295E-4,-1.527118147E-4,1.374406274E-3
2.504575873E0,9.162708884E-4,1.068982761E-3,1.527118147E-4
2.506957592E0,-3.054236295E-4,-1.374406274E-3,-1.068982761E-3
2.509339259E0,-3.054236295E-4,-2.596100792E-3,-2.290677279E-3
2.511720925E0,9.162708884E-4,1.068982761E-3,1.527118147E-4
2.514102592E0,9.162708884E-4,2.290677279E-3,1.527118147E-4
2.516484259E0,-3.054236295E-4,1.068982761E-3,1.527118147E-4
2.518865978E0,9.162708884E-4,-1.527118147E-4,-1.068982761E-3
2.521247644E0,2.290677279E-3,-1.374406274E-3,1.527118147E-4
2.523629311E0,-3.054236295E-4,-1.527118147E-4,-1.068982761E-3
2.526010978E0,-3.054236295E-4,1.068982761E-3,2.596100792E-3
2.528392696E0,-3.054236295E-4,-1.527118147E-4,1.527118147E-4
2.530774363E0,-3.054236295E-4,-1.374406274E-3,1.527118147E-4
2.533156030E0,9.162708884E-4,-1.527118147E-4,1.374406274E-3
2.535537696E0,9.162708884E-4,1.068982761E-3,1.527118147E-4
2.537919415E0,-3.054236295E-4,1.068982761E-3,-1.068982761E-3
2.540301082E0,-1.527118147E-3,-1.527118147E-4,-1.068982761E-3
2.542682748E0,-3.054236295E-4,-1.374406274E-3,-1.068982761E-3
2.545064415E0,-3.054236295E-4,-1.374406274E-3,-2.290677279E-3
2.547446134E0,9.162708884E-4,3.359660041E-3,-1.068982761E-3
2.549827800E0,-3.054236295E-4,2.290677279E-3,1.527118147E-4
2.552209467E0,9.162708884E-4,1.068982761E-3,1.527118147E-4
2.554591134E0,-3.054236295E-4,2.290677279E-3,1.527118147E-4
2.556972800E0,-3.054236295E-4,-1.374406274E-3,1.374406274E-3
2.559354519E0,-3.054236295E-4,-2.596100792E-3,1.527118147E-4
2.561736186E0,-3.054236295E-4,-1.374406274E-3,-2.290677279E-3
2.564117853E0,-3.054236295E-4,-1.374406274E-3,-1.068982761E-3
2.566499519E0,-3.054236295E-4,-1.374406274E-3,1.527118147E-4
2.568881238E0,9.162708884E-4,-1.374406274E-3,1.527118147E-4
2.571262905E0,9.162708884E-4,-1.527118147E-4,-1.068982761E-3
2.573644571E0,9.162708884E-4,-1.527118147E-4,1.527118147E-4
2.576026238E0,-3.054236295E-4,-1.527118147E-4,1.527118147E-4
2.578407957E0,-3.054236295E-4,-1.527118147E-4,1.374406274E-3
2.580789623E0,9.162708884E-4,1.068982761E-3,-1.068982761E-3
2.583171290E0,-3.054236295E-4,3.359660041E-3,-1.068982761E-3
2.585552957E0,9.162708884E-4,1.068982761E-3,-1.068982761E-3
2.587934675E0,9.162708884E-4,-2.596100792E-3,-1.068982761E-3
2.590316342E0,-3.054236295E-4,-1.374406274E-3,-2.290677279E-3
2.592698009E0,-1.527118147E-3,-1.527118147E-4,-1.068982761E-3
2.595079675E0,-3.054236295E-4,-1.527118147E-4,1.527118147E-4
2.597461394E0,9.162708884E-4,-1.374406274E-3,1.527118147E-4
2.599843061E0,-3.054236295E-4,-1.527118147E-4,1.374406274E-3
2.602224728E0,-3.054236295E-4,-1.527118147E-4,-1.068982761E-3
2.604606394E0,-3.054236295E-4,1.068982761E-3,1.527118147E-4
2.606988113E0,9.162708884E-4,1.068982761E-3,-1.068982761E-3
2.609369780E0,2.137965523E-3,2.290677279E-3,-1.068982761E-3
2.611751446E0,9.162708884E-4,-1.374406274E-3,-1.068982761E-3
2.614133113E0,-3.054236295E-4,-1.527118147E-4,1.374406274E-3
2.616514832E0,-3.054236295E-4,-1.374406274E-3,1.374406274E-3
2.618896498E0,9.162708884E-4,-1.527118147E-4,1.374406274E-3
2.621278165E0,2.137965523E-3,1.068982761E-3,1.527118147E-4
2.623659832E0,9.162708884E-4,-1.374406274E-3,-1.068982761E-3
2.626041550E0,-3.054236295E-4,-1.527118147E-4,-1.068982761E-3
2.628423217E0,9.162708884E-4,1.068982761E-3,-1.068982761E-3
2.630804884E0,9.162708884E-4,-1.527118147E-4,1.374406274E-3
2.633186550E0,2.290677279E-3,-1.527118147E-4,1.527118147E-4
2.635568217E0,9.162708884E-4,1.068982761E-3,-1.068982761E-3
2.637949936E0,9.162708884E-4,-1.374406274E-3,1.527118147E-4
2.640331603E0,2.137965523E-3,1.068982761E-3,-1.068982761E-3
2.642713269E0,9.162708884E-4,1.068982761E-3,1.527118147E-4
2.645094936E0,-3.054236295E-4,-1.527118147E-4,1.527118147E-4
2.647476655E0,-3.054236295E-4,-1.374406274E-3,1.527118147E-4
2.649858321E0,9.162708884E-4,-1.374406274E-3,-1.068982761E-3
2.652239988E0,-3.054236295E-4,-1.527118147E-4,1.527118147E-4
2.654621655E0,-3.054236295E-4,1.068982761E-3,-1.068982761E-3
2.657003373E0,9.162708884E-4,2.290677279E-3,-1.068982761E-3
2.659385040E0,9.162708884E-4,1.068982761E-3,1.374406274E-3
2.661766707E0,9.162708884E-4,-1.527118147E-4,1.527118147E-4
2.664148373E0,9.162708884E-4,1.068982761E-3,-1.068982761E-3
2.666530092E0,9.162708884E-4,-1.527118147E-4,-1.068982761E-3
2.668911759E0,2.137965523E-3,1.068982761E-3,-1.068982761E-3
2.671293425E0,-4.581354442E-4,9.162708884E-4,-1.068982761E-3
2.673675092E0,-4.581354442E-4,-3.054236295E-4,-1.068982761E-3
2.676056811E0,-4.581354442E-4,-1.527118147E-3,-1.068982761E-3
2.678438478E0,-4.581354442E-4,-3.054236295E-4,1.374406274E-3
2.680820144E0,2.137965523E-3,-1.527118147E-3,-1.068982761E-3
2.683201811E0,-4.581354442E-4,-3.054236295E-4,-1.068982761E-3
2.685583530E0,-1.679830020E-3,-3.054236295E-4,-1.068982761E-3
2.687965196E0,-4.581354442E-4,-3.054236295E-4,1.527118147E-4
2.690346863E0,-4.581354442E-4,-1.527118147E-3,1.527118147E-4
2.692728530E0,-1.679830020E-3,-1.527118147E-3,1.527118147E-4
2.695110248E0,7.635590737E-4,-1.527118147E-3,-1.068982761E-3
2.697491915E0,-4.581354442E-4,9.162708884E-4,1.374406274E-3
2.699873582E0,7.635590737E-4,-3.054236295E-4,-1.068982761E-3
2.702255248E0,2.137965523E-3,-1.527118147E-3,1.527118147E-4
2.704636967E0,7.635590737E-4,-1.527118147E-3,-1.068982761E-3
2.707018634E0,-4.581354442E-4,-3.054236295E-4,1.527118147E-4
2.709400300E0,7.635590737E-4,9.162708884E-4,-1.068982761E-3
2.711781967E0,-4.581354442E-4,9.162708884E-4,1.527118147E-4
2.714163634E0,7.635590737E-4,-3.054236295E-4,1.527118147E-4
2.716545353E0,-4.581354442E-4,-3.054236295E-4,1.374406274E-3
2.718927019E0,7.635590737E-4,-1.527118147E-3,-1.068982761E-3
2.721308686E0,7.635590737E-4,-3.054236295E-4,-1.068982761E-3
2.723690353E0,7.635590737E-4,-1.527118147E-3,-2.290677279E-3
2.726072071E0,-4.581354442E-4,-3.054236295E-4,-1.068982761E-3
2.728453738E0,7.635590737E-4,-3.054236295E-4,-2.290677279E-3
2.730835405E0,7.635590737E-4,-1.527118147E-3,-1.068982761E-3
2.733217071E0,-4.581354442E-4,-1.527118147E-3,-1.068982761E-3
2.735598790E0,-4.581354442E-4,9.162708884E-4,1.527118147E-4
2.737980457E0,-4.581354442E-4,-3.054236295E-4,-1.068982761E-3
2.740362123E0,-4.581354442E-4,-3.054236295E-4,-1.068982761E-3
2.742743790E0,-4.581354442E-4,9.162708884E-4,1.527118147E-4
2.745125509E0,7.635590737E-4,9.162708884E-4,-1.068982761E-3
2.747507175E0,-1.679830020E-3,-3.054236295E-4,1.527118147E-4
2.749888842E0,7.635590737E-4,-3.054236295E-4,-1.068982761E-3
2.752270509E0,7.635590737E-4,-3.054236295E-4,-2.290677279E-3
2.754652228E0,7.635590737E-4,-3.054236295E-4,1.527118147E-4
2.757033894E0,-4.581354442E-4,-3.054236295E-4,-1.068982761E-3
2.759415561E0,-2.901524538E-3,7.635590737E-4,-1.068982761E-3
2.761797228E0,-1.679830020E-3,-3.054236295E-4,1.527118147E-4
2.764178946E0,7.635590737E-4,-3.054236295E-4,1.374406274E-3
2.766560613E0,7.635590737E-4,9.162708884E-4,-1.068982761E-3
2.768942280E0,-4.581354442E-4,-1.527118147E-3,1.527118147E-4
2.771323946E0,7.635590737E-4,-3.054236295E-4,1.527118147E-4
2.773705665E0,-4.581354442E-4,9.162708884E-4,1.527118147E-4
2.776087332E0,7.635590737E-4,-2.748812549E-3,1.527118147E-4
2.778468998E0,7.635590737E-4,-1.527118147E-3,-1.068982761E-3
2.780850665E0,7.635590737E-4,9.162708884E-4,1.527118147E-4
2.783232384E0,-4.581354442E-4,9.162708884E-4,-1.068982761E-3
2.785614050E0,-4.581354442E-4,-3.054236295E-4,-1.068982761E-3
2.787995717E0,7.635590737E-4,-1.527118147E-3,-1.068982761E-3
2.790377384E0,-4.581354442E-4,-3.054236295E-4,-1.068982761E-3
2.792759103E0,-4.581354442E-4,-1.527118147E-3,1.527118147E-4
2.795140769E0,-4.581354442E-4,9.162708884E-4,-1.068982761E-3
2.797522436E0,7.635590737E-4,-1.527118147E-3,-1.068982761E-3
2.799904103E0,-4.581354442E-4,-1.527118147E-3,1.374406274E-3
2.802285821E0,-4.581354442E-4,-3.054236295E-4,1.527118147E-4
2.804667488E0,2.137965523E-3,-3.054236295E-4,1.527118147E-4
2.807049155E0,7.635590737E-4,-3.054236295E-4,1.374406274E-3
2.809430821E0,-4.581354442E-4,-3.054236295E-4,-1.068982761E-3
2.811812488E0,-4.581354442E-4,-1.527118147E-3,-1.068982761E-3
2.814194207E0,7.635590737E-4,-1.527118147E-3,1.527118147E-4
2.816575873E0,7.635590737E-4,9.162708884E-4,-1.068982761E-3
2.818957540E0,-4.581354442E-4,9.162708884E-4,1.527118147E-4
2.821339207E0,-4.581354442E-4,-3.054236295E-4,-1.068982761E-3
2.823720925E0,2.137965523E-3,-1.527118147E-3,1.527118147E-4
2.826102592E0,7.635590737E-4,-1.527118147E-3,1.527118147E-4
2.828484259E0,-1.679830020E-3,-3.054236295E-4,1.527118147E-4
2.830865978E0,-1.679830020E-3,-3.054236295E-4,1.527118147E-4
2.833247644E0,7.635590737E-4,2.137965523E-3,1.527118147E-4
2.835629311E0,-4.581354442E-4,-3.054236295E-4,1.374406274E-3
2.838010978E0,-1.679830020E-3,9.162708884E-4,1.527118147E-4
2.840392644E0,-4.581354442E-4,-3.054236295E-4,1.374406274E-3
2.842774363E0,7.635590737E-4,-1.527118147E-3,1.374406274E-3
2.845156030E0,2.137965523E-3,9.162708884E-4,1.374406274E-3
2.847537696E0,-4.581354442E-4,-3.054236295E-4,1.527118147E-4
2.849919415E0,7.635590737E-4,-3.054236295E-4,1.527118147E-4
2.852301082E0,7.635590737E-4,-1.527118147E-3,1.374406274E-3
2.854682748E0,-4.581354442E-4,-3.054236295E-4,1.374406274E-3
2.857064415E0,-4.581354442E-4,-1.527118147E-3,1.374406274E-3
2.859446134E0,-1.679830020E-3,9.162708884E-4,1.527118147E-4
2.861827800E0,-4.581354442E-4,-3.054236295E-4,1.527118147E-4
2.864209467E0,-4.581354442E-4,9.162708884E-4,1.374406274E-3
2.866591134E0,-4.581354442E-4,9.162708884E-4,1.527118147E-4
2.868972800E0,-4.581354442E-4,-3.054236295E-4,1.527118147E-4
2.871354519E0,-4.581354442E-4,-3.054236295E-4,1.374406274E-3
2.873736186E0,-1.679830020E-3,2.137965523E-3,1.374406274E-3
2.876117853E0,-4.581354442E-4,-3.054236295E-4,1.527118147E-4
2.878499519E0,7.635590737E-4,-1.527118147E-3,1.374406274E-3
2.880881238E0,2.137965523E-3,-3.054236295E-4,1.374406274E-3
2.883262905E0,-4.581354442E-4,-1.527118147E-3,-1.068982761E-3
2.885644571E0,7.635590737E-4,9.162708884E-4,-1.068982761E-3
2.888026238E0,1.985253533E-3,9.162708884E-4,1.527118147E-4
2.890407957E0,7.635590737E-4,-3.054236295E-4,-1.068982761E-3
2.892789623E0,-4.581354442E-4,-1.527118147E-3,1.374406274E-3
2.895171290E0,-4.581354442E-4,9.162708884E-4,1.527118147E-4
2.897552957E0,-4.581354442E-4,2.137965523E-3,-1.068982761E-3
2.899934675E0,7.635590737E-4,2.137965523E-3,-1.068982761E-3
2.902316342E0,7.635590737E-4,9.162708884E-4,1.374406274E-3
2.904698009E0,-4.581354442E-4,-3.054236295E-4,1.527118147E-4
2.907079675E0,7.635590737E-4,9.162708884E-4,-1.068982761E-3
2.909461394E0,7.635590737E-4,-3.054236295E-4,1.527118147E-4
2.911843061E0,7.635590737E-4,9.162708884E-4,-1.068982761E-3
2.914224728E0,7.635590737E-4,2.137965523E-3,1.527118147E-4
2.916606394E0,7.635590737E-4,3.359660041E-3,-1.068982761E-3
2.918988113E0,1.985253533E-3,9.162708884E-4,1.527118147E-4
2.921369780E0,7.635590737E-4,3.359660041E-3,1.527118147E-4
2.923751446E0,-4.581354442E-4,-3.054236295E-4,-1.068982761E-3
2.926133113E0,-4.581354442E-4,-1.527118147E-3,-1.068982761E-3
2.928514832E0,-4.581354442E-4,-1.527118147E-3,1.527118147E-4
2.930896498E0,7.635590737E-4,9.162708884E-4,1.527118147E-4
2.933278165E0,-4.581354442E-4,-1.527118147E-3,1.527118147E-4
2.935659884E0,-1.679830020E-3,-2.748812549E-3,1.374406274E-3
2.938041550E0,-1.679830020E-3,-1.527118147E-3,-1.068982761E-3
2.940423217E0,-1.679830020E-3,-3.054236295E-4,-1.068982761E-3
2.942804884E0,7.635590737E-4,2.137965523E-3,1.527118147E-4
2.945186550E0,-1.679830020E-3,2.137965523E-3,1.527118147E-4
2.947568269E0,7.635590737E-4,9.162708884E-4,1.527118147E-4
2.949949936E0,7.635590737E-4,9.162708884E-4,1.527118147E-4
2.952331603E0,-4.581354442E-4,-3.054236295E-4,1.374406274E-3
2.954713321E0,7.635590737E-4,-3.054236295E-4,1.527118147E-4
2.957094988E0,-4.581354442E-4,-3.054236295E-4,-1.068982761E-3
2.959476655E0,-4.581354442E-4,-3.054236295E-4,1.527118147E-4
2.961858321E0,7.635590737E-4,9.162708884E-4,-1.068982761E-3
2.964240040E0,-4.581354442E-4,9.162708884E-4,1.527118147E-4
2.966621707E0,-2.901524538E-3,9.162708884E-4,1.374406274E-3
2.969003373E0,-2.901524538E-3,-2.748812549E-3,1.527118147E-4
2.971385040E0,-4.581354442E-4,-1.527118147E-3,-2.290677279E-3
2.973766759E0,7.635590737E-4,2.137965523E-3,-1.068982761E-3
2.976148425E0,-4.581354442E-4,9.162708884E-4,1.527118147E-4
2.978530092E0,7.635590737E-4,2.137965523E-3,1.374406274E-3
2.980911759E0,-4.581354442E-4,9.162708884E-4,1.374406274E-3
2.983293478E0,-4.581354442E-4,2.137965523E-3,-1.068982761E-3
2.985675144E0,-4.581354442E-4,2.137965523E-3,1.527118147E-4
2.988056811E0,-4.581354442E-4,2.137965523E-3,1.527118147E-4
2.990438478E0,-4.581354442E-4,-1.527118147E-3,-1.068982761E-3
2.992820144E0,7.635590737E-4,-3.054236295E-4,1.527118147E-4
2.995201863E0,7.635590737E-4,-3.054236295E-4,1.374406274E-3
2.997583530E0,7.635590737E-4,-3.054236295E-4,1.527118147E-4
2.999965196E0,7.635590737E-4,-3.054236295E-4,-1.068982761E-3
3.002346863E0,2.137965523E-3,-3.054236295E-4,1.527118147E-4
3.004728582E0,-4.581354442E-4,9.162708884E-4,1.527118147E-4
3.007110248E0,-2.901524538E-3,9.162708884E-4,1.374406274E-3
3.009491915E0,-4.581354442E-4,9.162708884E-4,-1.068982761E-3
3.011873634E0,7.635590737E-4,9.162708884E-4,1.527118147E-4
3.014255300E0,-4.581354442E-4,-1.527118147E-3,1.527118147E-4
3.016636967E0,7.635590737E-4,-3.054236295E-4,1.527118147E-4
3.019018634E0,7.635590737E-4,9.162708884E-4,1.374406274E-3
3.021400353E0,7.635590737E-4,9.162708884E-4,-1.068982761E-3
3.023782019E0,-4.581354442E-4,9.162708884E-4,1.527118147E-4
3.026163686E0,-4.581354442E-4,2.137965523E-3,-1.068982761E-3
3.028545353E0,7.635590737E-4,3.359660041E-3,-1.068982761E-3
3.030927019E0,2.137965523E-3,-3.054236295E-4,1.527118147E-4
3.033308738E0,7.635590737E-4,-1.527118147E-3,-1.068982761E-3
3.035690405E0,-1.679830020E-3,9.162708884E-4,1.527118147E-4
3.038072071E0,-4.581354442E-4,-3.054236295E-4,1.527118147E-4
3.040453790E0,7.635590737E-4,9.162708884E-4,1.527118147E-4
3.042835457E0,7.635590737E-4,2.137965523E-3,1.527118147E-4
3.045217123E0,-4.581354442E-4,-3.054236295E-4,1.527118147E-4
3.047598790E0,-4.581354442E-4,-2.748812549E-3,-1.068982761E-3
3.049980509E0,7.635590737E-4,-1.527118147E-3,-1.068982761E-3
3.052362175E0,7.635590737E-4,-3.054236295E-4,1.374406274E-3
3.054743842E0,-4.581354442E-4,-3.054236295E-4,-1.068982761E-3
3.057125509E0,-1.679830020E-3,9.162708884E-4,-1.068982761E-3
3.059507228E0,7.635590737E-4,-3.054236295E-4,1.527118147E-4
3.061888894E0,-1.679830020E-3,-3.054236295E-4,1.527118147E-4
3.064270561E0,7.635590737E-4,-3.054236295E-4,1.527118147E-4
3.066652228E0,-4.581354442E-4,-1.527118147E-3,-1.068982761E-3
3.069033946E0,-4.581354442E-4,-3.054236295E-4,1.374406274E-3
3.071415613E0,-1.679830020E-3,-1.527118147E-3,-1.068982761E-3
3.073797280E0,1.985253533E-3,2.137965523E-3,-2.290677279E-3
3.076178946E0,-4.581354442E-4,-3.054236295E-4,-2.290677279E-3
3.078560665E0,7.635590737E-4,9.162708884E-4,1.527118147E-4
3.080942332E0,-4.581354442E-4,-3.054236295E-4,-1.068982761E-3
3.083323998E0,-4.581354442E-4,9.162708884E-4,-1.068982761E-3
3.085705665E0,-4.581354442E-4,9.162708884E-4,-1.068982761E-3
3.088087384E0,-1.679830020E-3,-1.527118147E-3,1.527118147E-4
3.090469050E0,9.162708884E-4,-1.527118147E-3,3.817795310E-3
3.092850717E0,7.635590737E-4,-3.054236295E-4,1.374406274E-3
3.095232384E0,-4.581354442E-4,-3.054236295E-4,1.527118147E-4
3.097614103E0,7.635590737E-4,9.162708884E-4,1.527118147E-4
3.099995769E0,7.635590737E-4,-3.054236295E-4,1.374406274E-3
3.102377436E0,-1.679830020E-3,-1.527118147E-3,1.374406274E-3
3.104759103E0,-4.581354442E-4,9.162708884E-4,-1.068982761E-3
3.107140821E0,-4.581354442E-4,9.162708884E-4,-1.068982761E-3
3.109522488E0,-2.901524538E-3,-3.054236295E-4,1.527118147E-4
3.111904155E0,-1.679830020E-3,-1.527118147E-3,-1.068982761E-3
3.114285873E0,-4.581354442E-4,9.162708884E-4,-1.068982761E-3
3.116667540E0,7.635590737E-4,-2.748812549E-3,1.527118147E-4
3.119049207E0,7.635590737E-4,-1.527118147E-3,1.527118147E-4
3.121430873E0,7.635590737E-4,3.206948051E-3,-1.068982761E-3
3.123812540E0,7.635590737E-4,2.137965523E-3,1.374406274E-3
3.126194259E0,-4.581354442E-4,-3.054236295E-4,-1.068982761E-3
3.128575925E0,-4.581354442E-4,-1.527118147E-3,1.374406274E-3
3.130957592E0,-1.679830020E-3,-3.054236295E-4,-1.068982761E-3
3.133339259E0,-4.581354442E-4,-1.527118147E-3,-1.068982761E-3
3.135720978E0,-4.581354442E-4,-3.054236295E-4,-2.290677279E-3
3.138102644E0,-4.581354442E-4,9.162708884E-4,-1.068982761E-3
3.140484311E0,7.635590737E-4,-1.527118147E-3,1.374406274E-3
3.142865978E0,-1.679830020E-3,-3.054236295E-4,1.374406274E-3
3.145247696E0,-4.581354442E-4,-1.527118147E-3,1.527118147E-4
3.147629363E0,-4.581354442E-4,-1.527118147E-3,1.527118147E-4
3.150011030E0,7.635590737E-4,-3.054236295E-4,1.527118147E-4
3.152392748E0,7.635590737E-4,-1.527118147E-3,-1.068982761E-3
3.154774415E0,7.635590737E-4,-1.527118147E-3,1.527118147E-4
3.157156082E0,7.635590737E-4,-1.527118147E-3,1.527118147E-4
3.159537748E0,9.162708884E-4,-1.527118147E-3,2.596100792E-3
3.161919467E0,-4.581354442E-4,2.137965523E-3,1.374406274E-3
3.164301134E0,-4.581354442E-4,-3.054236295E-4,-1.068982761E-3
3.166682800E0,-4.581354442E-4,-1.527118147E-3,1.527118147E-4
3.169064467E0,-4.581354442E-4,-1.527118147E-3,-1.068982761E-3
3.171446186E0,-4.581354442E-4,9.162708884E-4,-2.290677279E-3
3.173827853E0,-4.581354442E-4,-1.527118147E-3,1.527118147E-4
3.176209519E0,-4.581354442E-4,9.162708884E-4,1.527118147E-4
3.178591186E0,7.635590737E-4,9.162708884E-4,1.527118147E-4
3.180972905E0,-4.581354442E-4,-1.527118147E-3,1.527118147E-4
3.183354571E0,7.635590737E-4,2.137965523E-3,-2.290677279E-3
3.185736238E0,7.635590737E-4,-3.054236295E-4,-1.068982761E-3
3.188117905E0,-4.581354442E-4,-3.054236295E-4,1.527118147E-4
3.190499623E0,-4.581354442E-4,-3.054236295E-4,1.527118147E-4
3.192881290E0,7.635590737E-4,-1.527118147E-3,1.527118147E-4
3.195262957E0,7.635590737E-4,-1.527118147E-3,-1.068982761E-3
3.197644623E0,-4.581354442E-4,-2.748812549E-3,1.374406274E-3
3.200026342E0,-1.679830020E-3,-3.054236295E-4,-1.068982761E-3
3.202408009E0,-4.581354442E-4,9.162708884E-4,1.527118147E-4
3.204789675E0,-4.581354442E-4,-1.527118147E-3,-1.068982761E-3
3.207171394E0,-1.679830020E-3,9.162708884E-4,1.527118147E-4
3.209553061E0,-4.581354442E-4,2.137965523E-3,1.374406274E-3
3.211934728E0,-4.581354442E-4,-3.054236295E-4,1.374406274E-3
3.214316394E0,-4.581354442E-4,-3.054236295E-4,1.374406274E-3
3.216698061E0,-1.679830020E-3,-3.054236295E-4,1.374406274E-3
3.219079780E0,-4.581354442E-4,-1.527118147E-3,-1.068982761E-3
3.221461446E0,2.137965523E-3,-1.527118147E-3,1.374406274E-3
3.223843113E0,2.137965523E-3,-1.527118147E-3,1.527118147E-4
3.226224832E0,-4.581354442E-4,-1.527118147E-3,1.374406274E-3
3.228606498E0,-4.581354442E-4,-3.054236295E-4,-1.068982761E-3
3.230988165E0,7.635590737E-4,9.162708884E-4,1.527118147E-4
3.233369832E0,-4.581354442E-4,-2.748812549E-3,-1.068982761E-3
3.235751550E0,2.137965523E-3,-3.054236295E-4,1.527118147E-4
3.238133217E0,2.137965523E-3,-1.527118147E-3,1.527118147E-4
3.240514884E0,7.635590737E-4,9.162708884E-4,1.527118147E-4
3.242896550E0,7.635590737E-4,-3.054236295E-4,1.527118147E-4
3.245278269E0,7.635590737E-4,9.162708884E-4,-1.068982761E-3
3.247659936E0,7.635590737E-4,-3.054236295E-4,1.527118147E-4
3.250041603E0,1.985253533E-3,9.162708884E-4,-1.068982761E-3
3.252423269E0,-4.581354442E-4,-3.054236295E-4,1.527118147E-4
3.254804988E0,-4.581354442E-4,-3.054236295E-4,1.527118147E-4
3.257186655E0,-1.679830020E-3,-1.527118147E-3,1.527118147E-4
3.259568321E0,7.635590737E-4,-1.527118147E-3,-1.068982761E-3
3.261949988E0,7.635590737E-4,-2.748812549E-3,-1.068982761E-3
3.264331707E0,7.635590737E-4,-1.527118147E-3,-1.068982761E-3
3.266713373E0,7.635590737E-4,-3.054236295E-4,-1.068982761E-3
3.269095040E0,-4.581354442E-4,9.162708884E-4,1.374406274E-3
3.271476707E0,-4.581354442E-4,9.162708884E-4,1.527118147E-4
3.273858425E0,-4.581354442E-4,-3.054236295E-4,-2.290677279E-3
3.276240092E0,7.635590737E-4,-3.054236295E-4,1.527118147E-4
3.278621759E0,7.635590737E-4,-3.054236295E-4,-1.068982761E-3
3.281003425E0,-4.581354442E-4,-1.527118147E-3,1.527118147E-4
3.283385144E0,-1.679830020E-3,9.162708884E-4,1.527118147E-4
3.285766811E0,7.635590737E-4,-1.527118147E-3,1.527118147E-4
3.288148478E0,-4.581354442E-4,-3.054236295E-4,1.527118147E-4
3.290530196E0,7.635590737E-4,-3.054236295E-4,-1.068982761E-3
3.292911863E0,-1.679830020E-3,-1.527118147E-3,1.527118147E-4
3.295293530E0,-4.581354442E-4,-2.748812549E-3,1.527118147E-4
3.297675196E0,7.635590737E-4,2.137965523E-3,1.527118147E-4
3.300056915E0,7.635590737E-4,2.137965523E-3,1.527118147E-4
3.302438582E0,7.635590737E-4,2.137965523E-3,-1.068982761E-3
3.304820248E0,7.635590737E-4,2.137965523E-3,-1.068982761E-3
3.307201915E0,7.635590737E-4,9.162708884E-4,-1.068982761E-3
3.309583634E0,-4.581354442E-4,-3.054236295E-4,1.374406274E-3
3.311965300E0,-4.581354442E-4,9.162708884E-4,1.374406274E-3
3.314346967E0,-4.581354442E-4,2.137965523E-3,2.596100792E-3
3.316728634E0,7.635590737E-4,9.162708884E-4,1.527118147E-4
3.319110353E0,2.137965523E-3,-3.054236295E-4,1.527118147E-4
3.321492019E0,7.635590737E-4,-3.054236295E-4,-1.068982761E-3
3.323873686E0,-4.581354442E-4,-1.527118147E-3,-1.068982761E-3
3.326255353E0,-4.581354442E-4,9.162708884E-4,-1.068982761E-3
3.328637071E0,-4.581354442E-4,9.162708884E-4,-1.068982761E-3
3.331018738E0,-4.581354442E-4,2.137965523E-3,1.374406274E-3
3.333400405E0,7.635590737E-4,-3.054236295E-4,1.527118147E-4
3.335782071E0,7.635590737E-4,9.162708884E-4,-2.290677279E-3
3.338163790E0,7.635590737E-4,9.162708884E-4,1.527118147E-4
3.340545457E0,7.635590737E-4,9.162708884E-4,-1.068982761E-3
3.342927123E0,-4.581354442E-4,-1.527118147E-3,-1.068982761E-3
3.345308842E0,1.985253533E-3,-3.054236295E-4,-1.068982761E-3
3.347690509E0,7.635590737E-4,9.162708884E-4,1.527118147E-4
3.350072175E0,-4.581354442E-4,-3.054236295E-4,-1.068982761E-3
3.352453842E0,7.635590737E-4,-3.054236295E-4,-1.068982761E-3
3.354835561E0,-4.581354442E-4,-1.527118147E-3,1.527118147E-4
3.357217228E0,7.635590737E-4,-1.527118147E-3,1.527118147E-4
3.359598894E0,2.137965523E-3,-1.527118147E-3,1.527118147E-4
3.361980561E0,2.137965523E-3,-1.527118147E-3,1.374406274E-3
3.364362280E0,2.137965523E-3,-1.527118147E-3,-1.068982761E-3
3.366743946E0,7.635590737E-4,-1.527118147E-3,-2.290677279E-3
3.369125613E0,-1.679830020E-3,-3.054236295E-4,-1.068982761E-3
3.371507280E0,7.635590737E-4,-1.527118147E-3,-1.068982761E-3
3.373888998E0,7.635590737E-4,9.162708884E-4,1.527118147E-4
3.376270665E0,7.635590737E-4,9.162708884E-4,2.596100792E-3
3.378652332E0,-4.581354442E-4,-1.527118147E-3,1.374406274E-3
3.381033998E0,-4.581354442E-4,9.162708884E-4,-1.068982761E-3
3.383415717E0,-1.679830020E-3,-1.527118147E-3,-1.068982761E-3
3.385797384E0,7.635590737E-4,-3.054236295E-4,-1.068982761E-3
3.388179050E0,-4.581354442E-4,-1.527118147E-3,1.527118147E-4
3.390560717E0,7.635590737E-4,-3.054236295E-4,1.527118147E-4
3.392942436E0,-4.581354442E-4,-1.527118147E-3,1.374406274E-3
3.395324103E0,2.137965523E-3,-3.054236295E-4,1.374406274E-3
3.397705769E0,2.137965523E-3,-3.054236295E-4,1.527118147E-4
3.400087436E0,7.635590737E-4,2.137965523E-3,1.374406274E-3
3.402469155E0,-4.581354442E-4,9.162708884E-4,-1.068982761E-3
3.404850821E0,-4.581354442E-4,9.162708884E-4,1.527118147E-4
3.407232488E0,7.635590737E-4,2.137965523E-3,-1.068982761E-3
3.409614207E0,7.635590737E-4,9.162708884E-4,1.527118147E-4
3.411995873E0,2.137965523E-3,-3.054236295E-4,1.527118147E-4
3.414377540E0,7.635590737E-4,-3.054236295E-4,1.527118147E-4
3.416759207E0,1.985253533E-3,9.162708884E-4,-1.068982761E-3
3.419140925E0,7.635590737E-4,-3.054236295E-4,1.527118147E-4
3.421522592E0,-4.581354442E-4,-3.054236295E-4,-1.068982761E-3
3.423904259E0,7.635590737E-4,9.162708884E-4,1.527118147E-4
3.426285925E0,-4.581354442E-4,9.162708884E-4,1.527118147E-4
3.428667644E0,7.635590737E-4,-1.527118147E-3,1.527118147E-4
3.431049311E0,2.137965523E-3,-1.527118147E-3,1.527118147E-4
3.433430978E0,-1.679830020E-3,-3.054236295E-4,1.527118147E-4
3.435812644E0,2.137965523E-3,-1.527118147E-3,1.374406274E-3
3.438194363E0,7.635590737E-4,-3.054236295E-4,-1.068982761E-3
3.440576030E0,7.635590737E-4,-3.054236295E-4,1.374406274E-3
3.442957696E0,7.635590737E-4,-3.054236295E-4,1.527118147E-4
3.445339415E0,7.635590737E-4,-3.054236295E-4,1.527118147E-4
3.447721082E0,7.635590737E-4,-2.748812549E-3,1.527118147E-4
3.450102748E0,7.635590737E-4,-1.527118147E-3,1.374406274E-3
3.452484415E0,-4.581354442E-4,-3.054236295E-4,1.527118147E-4
3.454866134E0,7.635590737E-4,-3.054236295E-4,1.374406274E-3
3.457247800E0,7.635590737E-4,-3.054236295E-4,1.527118147E-4
3.459629467E0,-4.581354442E-4,9.162708884E-4,1.527118147E-4
3.462011134E0,-4.581354442E-4,-3.054236295E-4,1.374406274E-3
3.464392853E0,-4.581354442E-4,-1.527118147E-3,1.527118147E-4
3.466774519E0,-4.581354442E-4,-1.527118147E-3,1.527118147E-4
3.469156186E0,7.635590737E-4,-1.527118147E-3,1.527118147E-4
3.471537853E0,7.635590737E-4,9.162708884E-4,1.527118147E-4
3.473919571E0,-4.581354442E-4,9.162708884E-4,-1.068982761E-3
3.476301238E0,-4.581354442E-4,9.162708884E-4,1.527118147E-4
3.478682905E0,7.635590737E-4,9.162708884E-4,-1.068982761E-3
3.481064571E0,1.985253533E-3,9.162708884E-4,-2.290677279E-3
3.483446290E0,-1.679830020E-3,7.635590737E-4,-2.290677279E-3
3.485827957E0,-4.581354442E-4,-3.054236295E-4,1.527118147E-4
3.488209623E0,7.635590737E-4,9.162708884E-4,-1.068982761E-3
3.490591290E0,-4.581354442E-4,-1.527118147E-3,1.527118147E-4
3.492973009E0,7.635590737E-4,-3.054236295E-4,1.527118147E-4
3.495354675E0,1.985253533E-3,-3.054236295E-4,-1.068982761E-3
3.497736342E0,-4.581354442E-4,-1.527118147E-3,-1.068982761E-3
3.500118061E0,2.137965523E-3,-1.527118147E-3,-1.068982761E-3
3.502499728E0,7.635590737E-4,-3.054236295E-4,1.527118147E-4
3.504881394E0,7.635590737E-4,9.162708884E-4,1.527118147E-4
3.507310665E0,-4.581354442E-4,2.137965523E-3,1.374406274E-3
3.509739936E0,7.635590737E-4,2.137965523E-3,-1.068982761E-3
3.512169207E0,7.635590737E-4,-2.748812549E-3,1.527118147E-4
3.514598478E0,7.635590737E-4,-2.748812549E-3,1.527118147E-4
3.517027905E0,-4.581354442E-4,-3.054236295E-4,1.527118147E-4
3.519457175E0,-4.581354442E-4,-1.527118147E-3,1.527118147E-4
3.521886446E0,-4.581354442E-4,-3.054236295E-4,1.374406274E-3
3.524315717E0,-4.581354442E-4,9.162708884E-4,1.374406274E-3
3.526745040E0,7.635590737E-4,9.162708884E-4,1.527118147E-4
3.529174311E0,-4.581354442E-4,-3.054236295E-4,1.374406274E-3
3.531603582E0,-4.581354442E-4,-3.054236295E-4,-2.290677279E-3
3.534032905E0,7.635590737E-4,-3.054236295E-4,1.527118147E-4
3.536462175E0,-4.581354442E-4,-3.054236295E-4,1.527118147E-4
3.538891446E0,-1.679830020E-3,2.137965523E-3,1.527118147E-4
3.541320717E0,-4.581354442E-4,9.162708884E-4,1.527118147E-4
3.543750040E0,-4.581354442E-4,-2.748812549E-3,1.527118147E-4
3.546179311E0,-1.679830020E-3,-1.527118147E-3,1.527118147E-4
3.548608582E0,-4.581354442E-4,9.162708884E-4,-1.068982761E-3
3.551037853E0,-4.581354442E-4,9.162708884E-4,-1.068982761E-3
3.553467175E0,-4.581354442E-4,-3.054236295E-4,1.527118147E-4
3.555896446E0,-4.581354442E-4,9.162708884E-4,-1.068982761E-3
3.558325717E0,7.635590737E-4,9.162708884E-4,1.527118147E-4
3.560754988E0,-4.581354442E-4,2.137965523E-3,1.527118147E-4
3.563184311E0,-4.581354442E-4,-3.054236295E-4,-1.068982761E-3
3.565613582E0,-4.581354442E-4,-3.054236295E-4,-1.068982761E-3
3.568042853E0,-1.679830020E-3,-2.748812549E-3,-2.290677279E-3
3.570472123E0,-4.581354442E-4,-1.527118147E-3,-1.068982761E-3
3.572901446E0,-4.581354442E-4,-3.054236295E-4,-1.068982761E-3
3.575330717E0,7.635590737E-4,-1.527118147E-3,1.527118147E-4
3.577759988E0,-4.581354442E-4,-3.054236295E-4,1.527118147E-4
3.580189311E0,-1.679830020E-3,-3.054236295E-4,-1.068982761E-3
3.582618582E0,-4.581354442E-4,-3.054236295E-4,-1.068982761E-3
3.585047853E0,1.985253533E-3,9.162708884E-4,1.527118147E-4
3.587477123E0,2.137965523E-3,-3.054236295E-4,1.374406274E-3
3.589906446E0,7.635590737E-4,9.162708884E-4,1.527118147E-4
3.592335717E0,-4.581354442E-4,-3.054236295E-4,1.374406274E-3
3.594764988E0,-4.581354442E-4,-3.054236295E-4,1.527118147E-4
3.597194259E0,7.635590737E-4,9.162708884E-4,1.527118147E-4
3.599623582E0,-4.581354442E-4,9.162708884E-4,1.527118147E-4
3.602052853E0,-4.581354442E-4,-1.527118147E-3,1.527118147E-4
3.604482123E0,-4.581354442E-4,-1.527118147E-3,1.527118147E-4
3.606911446E0,-4.581354442E-4,-3.054236295E-4,1.374406274E-3
3.609340717E0,-4.581354442E-4,-3.054236295E-4,-1.068982761E-3
3.611769988E0,7.635590737E-4,9.162708884E-4,-2.290677279E-3
3.614199259E0,7.635590737E-4,-3.054236295E-4,1.527118147E-4
3.616628582E0,7.635590737E-4,-1.527118147E-3,-1.068982761E-3
3.619057853E0,-1.679830020E-3,-3.054236295E-4,1.374406274E-3
3.621487123E0,7.635590737E-4,9.162708884E-4,1.527118147E-4
3.623916394E0,-4.581354442E-4,9.162708884E-4,1.527118147E-4
3.626345717E0,-4.581354442E-4,-1.527118147E-3,1.374406274E-3
3.628728790E0,-4.581354442E-4,-3.054236295E-4,1.374406274E-3
3.631110457E0,-4.581354442E-4,-3.054236295E-4,-1.068982761E-3
3.633492123E0,-4.581354442E-4,9.162708884E-4,1.527118147E-4
3.635873842E0,-4.581354442E-4,9.162708884E-4,1.374406274E-3
3.638255509E0,-1.679830020E-3,2.137965523E-3,1.527118147E-4
3.640637175E0,-4.581354442E-4,7.635590737E-4,-3.512371797E-3
3.643018842E0,-4.581354442E-4,-3.054236295E-4,-3.512371797E-3
3.645400561E0,-4.581354442E-4,2.137965523E-3,-1.068982761E-3
3.647782228E0,-4.581354442E-4,-1.527118147E-3,-1.068982761E-3
3.650163894E0,1.985253533E-3,-1.527118147E-3,-2.290677279E-3
3.652545613E0,-4.581354442E-4,9.162708884E-4,-1.068982761E-3
3.654927280E0,7.635590737E-4,9.162708884E-4,2.596100792E-3
3.657308946E0,3.359660041E-3,-3.054236295E-4,1.374406274E-3
3.659690613E0,-4.581354442E-4,-3.054236295E-4,1.374406274E-3
3.662072332E0,7.635590737E-4,9.162708884E-4,1.527118147E-4
3.664453998E0,7.635590737E-4,9.162708884E-4,1.527118147E-4
3.666835665E0,-1.679830020E-3,-1.527118147E-3,-2.290677279E-3
3.669217332E0,-1.679830020E-3,-1.527118147E-3,1.527118147E-4
3.671599050E0,-1.679830020E-3,-1.527118147E-3,-2.290677279E-3
3.673980717E0,-2.901524538E-3,-3.054236295E-4,-1.068982761E-3
3.676362384E0,2.137965523E-3,-3.054236295E-4,1.527118147E-4
3.678744103E0,3.359660041E-3,2.137965523E-3,1.527118147E-4
3.681125769E0,7.635590737E-4,-3.054236295E-4,1.527118147E-4
3.683507436E0,2.137965523E-3,-1.527118147E-3,-1.068982761E-3
3.685889103E0,7.635590737E-4,-1.527118147E-3,-1.068982761E-3
3.688270821E0,-4.581354442E-4,-1.527118147E-3,-1.068982761E-3
3.690652488E0,-4.581354442E-4,-1.527118147E-3,-2.290677279E-3
3.693034155E0,-1.679830020E-3,-1.527118147E-3,1.374406274E-3
3.695415821E0,-4.581354442E-4,-3.054236295E-4,1.374406274E-3
3.697797540E0,7.635590737E-4,2.137965523E-3,1.374406274E-3
3.700179207E0,7.635590737E-4,-3.054236295E-4,1.374406274E-3
3.702560873E0,7.635590737E-4,9.162708884E-4,1.374406274E-3
3.704942592E0,7.635590737E-4,-3.054236295E-4,1.527118147E-4
3.707324259E0,-4.581354442E-4,-3.054236295E-4,1.527118147E-4
3.709705925E0,-1.679830020E-3,-3.054236295E-4,-1.068982761E-3
3.712087592E0,-1.679830020E-3,9.162708884E-4,1.527118147E-4
3.714469311E0,-4.581354442E-4,9.162708884E-4,1.374406274E-3
3.716850978E0,-1.679830020E-3,9.162708884E-4,1.374406274E-3
3.719232644E0,7.635590737E-4,9.162708884E-4,1.527118147E-4
3.721614311E0,-4.581354442E-4,-3.054236295E-4,-1.068982761E-3
3.723996030E0,7.635590737E-4,-3.054236295E-4,-1.068982761E-3
3.726377696E0,7.635590737E-4,-3.054236295E-4,-1.068982761E-3
3.728759363E0,7.635590737E-4,-3.054236295E-4,-2.290677279E-3
3.731141082E0,2.137965523E-3,-3.054236295E-4,1.527118147E-4
3.733522748E0,-4.581354442E-4,-3.054236295E-4,1.527118147E-4
3.735904415E0,2.137965523E-3,-3.054236295E-4,1.374406274E-3
3.738286082E0,7.635590737E-4,9.162708884E-4,-1.068982761E-3
3.740667800E0,-4.581354442E-4,9.162708884E-4,1.527118147E-4
3.743049467E0,7.635590737E-4,-3.054236295E-4,2.596100792E-3
3.745431134E0,2.137965523E-3,-1.527118147E-3,1.527118147E-4
3.747812800E0,7.635590737E-4,-3.054236295E-4,1.374406274E-3
3.750194519E0,7.635590737E-4,-3.054236295E-4,1.527118147E-4
3.752576186E0,7.635590737E-4,9.162708884E-4,-1.068982761E-3
3.754957853E0,-4.581354442E-4,9.162708884E-4,1.527118147E-4
3.757339571E0,-4.581354442E-4,-1.527118147E-3,1.374406274E-3
3.759721238E0,-4.581354442E-4,9.162708884E-4,1.374406274E-3
3.762102905E0,-1.679830020E-3,-3.054236295E-4,1.527118147E-4
3.764484571E0,7.635590737E-4,9.162708884E-4,1.527118147E-4
3.766866238E0,7.635590737E-4,-1.527118147E-3,1.527118147E-4
3.769247957E0,7.635590737E-4,-1.527118147E-3,1.527118147E-4
3.771629623E0,-4.581354442E-4,-3.054236295E-4,-1.068982761E-3
3.774011290E0,7.635590737E-4,-3.054236295E-4,1.527118147E-4
3.776393009E0,7.635590737E-4,-3.054236295E-4,1.374406274E-3
3.778774675E0,7.635590737E-4,9.162708884E-4,1.527118147E-4
3.781156342E0,-4.581354442E-4,-3.054236295E-4,1.527118147E-4
3.783538009E0,-4.581354442E-4,-3.054236295E-4,-1.068982761E-3
3.785919728E0,-4.581354442E-4,-3.054236295E-4,1.374406274E-3
3.788301394E0,7.635590737E-4,2.137965523E-3,1.527118147E-4
3.790683061E0,1.985253533E-3,2.137965523E-3,1.527118147E-4
3.793064780E0,7.635590737E-4,9.162708884E-4,1.527118147E-4
3.795446446E0,7.635590737E-4,-1.527118147E-3,1.527118147E-4
3.797828113E0,7.635590737E-4,9.162708884E-4,1.527118147E-4
3.800209780E0,-4.581354442E-4,9.162708884E-4,1.527118147E-4
3.802591498E0,-1.679830020E-3,-3.054236295E-4,-1.068982761E-3
3.804973165E0,-1.679830020E-3,-3.054236295E-4,1.374406274E-3
3.807354832E0,-4.581354442E-4,9.162708884E-4,1.527118147E-4
3.809736498E0,2.137965523E-3,9.162708884E-4,1.374406274E-3
3.812118217E0,7.635590737E-4,-3.054236295E-4,-1.068982761E-3
3.814499884E0,7.635590737E-4,9.162708884E-4,1.527118147E-4
3.816881550E0,-1.679830020E-3,-2.748812549E-3,1.527118147E-4
3.819263217E0,7.635590737E-4,-3.054236295E-4,1.527118147E-4
3.821644936E0,-4.581354442E-4,-3.054236295E-4,1.527118147E-4
3.824026603E0,-4.581354442E-4,-3.054236295E-4,-1.068982761E-3
3.826408269E0,-4.581354442E-4,-1.527118147E-3,-2.290677279E-3
3.828789988E0,-1.679830020E-3,-3.054236295E-4,-2.290677279E-3
3.831171655E0,-4.581354442E-4,-3.054236295E-4,1.527118147E-4
3.833553321E0,-4.581354442E-4,-1.527118147E-3,1.527118147E-4
3.835934988E0,7.635590737E-4,-1.527118147E-3,1.374406274E-3
3.838316707E0,2.137965523E-3,-1.527118147E-3,1.527118147E-4
3.840698373E0,-4.581354442E-4,-3.054236295E-4,1.374406274E-3
3.843080040E0,7.635590737E-4,-3.054236295E-4,-1.068982761E-3
3.845461759E0,7.635590737E-4,-3.054236295E-4,1.374406274E-3
3.847843425E0,2.137965523E-3,9.162708884E-4,2.596100792E-3
3.850225092E0,-4.581354442E-4,-3.054236295E-4,1.527118147E-4
3.852606759E0,-1.679830020E-3,-3.054236295E-4,1.527118147E-4
3.854988478E0,-4.581354442E-4,9.162708884E-4,-1.068982761E-3
3.857370144E0,-4.581354442E-4,9.162708884E-4,1.527118147E-4
3.859751811E0,-4.581354442E-4,9.162708884E-4,-1.068982761E-3
3.862133530E0,-4.581354442E-4,-3.054236295E-4,-1.068982761E-3
3.864515196E0,-4.581354442E-4,-1.527118147E-3,-1.068982761E-3
3.866896863E0,-1.679830020E-3,-1.527118147E-3,-1.068982761E-3
3.869278530E0,-1.679830020E-3,2.137965523E-3,1.527118147E-4
3.871660248E0,7.635590737E-4,9.162708884E-4,1.527118147E-4
3.874041915E0,-4.581354442E-4,-3.054236295E-4,1.374406274E-3
3.876423582E0,7.635590737E-4,-2.748812549E-3,1.527118147E-4
3.878805248E0,7.635590737E-4,-1.527118147E-3,1.527118147E-4
3.881186967E0,-4.581354442E-4,-3.054236295E-4,-1.068982761E-3
3.883568634E0,7.635590737E-4,-1.527118147E-3,1.374406274E-3
3.885950300E0,-4.581354442E-4,-3.054236295E-4,1.374406274E-3
3.888332019E0,-4.581354442E-4,9.162708884E-4,-2.290677279E-3
3.890713686E0,-1.679830020E-3,9.162708884E-4,-1.068982761E-3
3.893095353E0,-1.679830020E-3,-3.054236295E-4,1.527118147E-4
3.895477019E0,7.635590737E-4,9.162708884E-4,1.527118147E-4
3.897858738E0,7.635590737E-4,-3.054236295E-4,1.374406274E-3
3.900240405E0,-1.679830020E-3,9.162708884E-4,1.527118147E-4
3.902622071E0,-4.581354442E-4,-3.054236295E-4,1.527118147E-4
3.905003738E0,2.137965523E-3,-3.054236295E-4,1.527118147E-4
3.907385457E0,-4.581354442E-4,-3.054236295E-4,1.527118147E-4
3.909767123E0,-4.581354442E-4,-3.054236295E-4,1.527118147E-4
3.912148790E0,1.985253533E-3,2.137965523E-3,1.527118147E-4
3.914530509E0,7.635590737E-4,9.162708884E-4,1.527118147E-4
3.916912175E0,-4.581354442E-4,9.162708884E-4,1.374406274E-3
3.919293842E0,-4.581354442E-4,-3.054236295E-4,1.374406274E-3
3.921675509E0,-1.679830020E-3,9.162708884E-4,-1.068982761E-3
3.924057228E0,7.635590737E-4,2.137965523E-3,1.527118147E-4
3.926438894E0,7.635590737E-4,-3.054236295E-4,2.596100792E-3
3.928820561E0,-4.581354442E-4,9.162708884E-4,1.374406274E-3
3.931202228E0,-1.679830020E-3,9.162708884E-4,1.527118147E-4
3.933583946E0,-1.679830020E-3,9.162708884E-4,1.527118147E-4
3.935965613E0,-4.581354442E-4,-3.054236295E-4,1.527118147E-4
3.938347280E0,-4.581354442E-4,9.162708884E-4,1.527118147E-4
3.940728998E0,-4.581354442E-4,-3.054236295E-4,-1.068982761E-3
3.943110665E0,9.162708884E-4,-2.748812549E-3,1.374406274E-3
3.945492332E0,-4.581354442E-4,-3.054236295E-4,1.527118147E-4
3.947873998E0,-4.581354442E-4,-3.054236295E-4,1.527118147E-4
3.950255717E0,2.137965523E-3,-1.527118147E-3,1.527118147E-4
3.952637384E0,7.635590737E-4,-3.054236295E-4,1.374406274E-3
3.955019050E0,7.635590737E-4,-3.054236295E-4,1.527118147E-4
3.957400717E0,-4.581354442E-4,-3.054236295E-4,-1.068982761E-3
3.959782436E0,7.635590737E-4,9.162708884E-4,-1.068982761E-3
3.962164103E0,7.635590737E-4,9.162708884E-4,1.527118147E-4
3.964545769E0,7.635590737E-4,-1.527118147E-3,1.527118147E-4
3.966927488E0,7.635590737E-4,-3.054236295E-4,1.527118147E-4
3.969309155E0,-4.581354442E-4,-3.054236295E-4,1.374406274E-3
3.971690821E0,-4.581354442E-4,9.162708884E-4,1.527118147E-4
3.974072488E0,7.635590737E-4,2.137965523E-3,1.527118147E-4
3.976454207E0,7.635590737E-4,9.162708884E-4,1.527118147E-4
3.978835873E0,7.635590737E-4,-3.054236295E-4,-1.068982761E-3
3.981217540E0,-4.581354442E-4,-3.054236295E-4,1.527118147E-4
3.983599259E0,-4.581354442E-4,9.162708884E-4,-1.068982761E-3
3.985980925E0,7.635590737E-4,-3.054236295E-4,1.527118147E-4
3.988362592E0,7.635590737E-4,-1.527118147E-3,1.527118147E-4
3.990744259E0,7.635590737E-4,-1.527118147E-3,1.374406274E-3
3.993125978E0,7.635590737E-4,-3.054236295E-4,1.527118147E-4
3.995507644E0,7.635590737E-4,-3.054236295E-4,-2.290677279E-3
3.997889311E0,-2.901524538E-3,-3.054236295E-4,-1.068982761E-3
4.000271030E0,-1.679830020E-3,3.206948051E-3,-1.068982761E-3
4.002652696E0,-4.581354442E-4,9.162708884E-4,1.527118147E-4
4.005034363E0,-1.679830020E-3,-3.054236295E-4,1.374406274E-3
4.007416030E0,-4.581354442E-4,-3.054236295E-4,1.527118147E-4
4.009797748E0,-4.581354442E-4,-3.054236295E-4,-1.068982761E-3
4.012179415E0,-4.581354442E-4,9.162708884E-4,1.374406274E-3
4.014561082E0,7.635590737E-4,9.162708884E-4,1.374406274E-3
4.016942800E0,7.635590737E-4,9.162708884E-4,1.374406274E-3
4.019324467E0,7.635590737E-4,9.162708884E-4,1.374406274E-3
4.021706134E0,-4.581354442E-4,-3.054236295E-4,1.374406274E-3
4.024087800E0,-4.581354442E-4,9.162708884E-4,1.527118147E-4
4.026469519E0,-4.581354442E-4,-3.054236295E-4,-1.068982761E-3
4.028851186E0,7.635590737E-4,-3.054236295E-4,1.374406274E-3
4.031232853E0,7.635590737E-4,9.162708884E-4,-1.068982761E-3
4.033614571E0,-4.581354442E-4,9.162708884E-4,1.527118147E-4
4.035996238E0,-4.581354442E-4,-3.054236295E-4,-1.068982761E-3
4.038377905E0,7.635590737E-4,-3.054236295E-4,-1.068982761E-3
4.040759571E0,1.985253533E-3,-3.054236295E-4,-1.068982761E-3
4.043141290E0,1.985253533E-3,-3.054236295E-4,-1.068982761E-3
4.045522957E0,3.359660041E-3,9.162708884E-4,-1.068982761E-3
4.047904623E0,-4.581354442E-4,-3.054236295E-4,-1.068982761E-3
4.050286290E0,-4.581354442E-4,9.162708884E-4,1.527118147E-4
4.052668009E0,7.635590737E-4,2.137965523E-3,1.527118147E-4
4.055049675E0,7.635590737E-4,-3.054236295E-4,2.596100792E-3
4.057431342E0,-1.679830020E-3,-3.054236295E-4,1.527118147E-4
4.059813061E0,-1.679830020E-3,-3.054236295E-4,1.527118147E-4
4.062194728E0,-4.581354442E-4,-3.054236295E-4,1.527118147E-4
4.064576394E0,7.635590737E-4,-1.527118147E-3,1.527118147E-4
4.066958061E0,-4.581354442E-4,-3.054236295E-4,1.374406274E-3
4.069339780E0,7.635590737E-4,-1.527118147E-3,1.374406274E-3
4.071721446E0,2.137965523E-3,-2.748812549E-3,1.527118147E-4
4.074103113E0,-4.581354442E-4,9.162708884E-4,1.527118147E-4
4.076484780E0,7.635590737E-4,-3.054236295E-4,-1.068982761E-3
4.078866498E0,-4.581354442E-4,-3.054236295E-4,-2.290677279E-3
4.081248165E0,7.635590737E-4,9.162708884E-4,1.527118147E-4
4.083629832E0,7.635590737E-4,-3.054236295E-4,1.527118147E-4
4.086011550E0,7.635590737E-4,-3.054236295E-4,1.527118147E-4
4.088393217E0,7.635590737E-4,9.162708884E-4,1.527118147E-4
4.090774884E0,7.635590737E-4,-1.527118147E-3,1.527118147E-4
4.093156550E0,-4.581354442E-4,9.162708884E-4,1.527118147E-4
4.095538269E0,-4.581354442E-4,-3.054236295E-4,1.527118147E-4
4.097919936E0,7.635590737E-4,2.137965523E-3,1.527118147E-4
4.100301603E0,7.635590737E-4,-3.054236295E-4,1.374406274E-3
4.102683321E0,7.635590737E-4,2.137965523E-3,1.374406274E-3
4.105064988E0,7.635590737E-4,9.162708884E-4,1.527118147E-4
4.107446655E0,7.635590737E-4,-3.054236295E-4,-1.068982761E-3
4.109828321E0,7.635590737E-4,-3.054236295E-4,1.374406274E-3
4.112210040E0,7.635590737E-4,-3.054236295E-4,-1.068982761E-3
4.114591707E0,2.137965523E-3,-1.527118147E-3,1.527118147E-4
4.116973373E0,7.635590737E-4,-3.054236295E-4,1.527118147E-4
4.119355040E0,7.635590737E-4,2.137965523E-3,1.527118147E-4
4.121736759E0,-4.581354442E-4,-3.054236295E-4,-1.068982761E-3
4.124118425E0,-1.679830020E-3,3.206948051E-3,1.527118147E-4
4.126500092E0,-4.581354442E-4,2.137965523E-3,2.596100792E-3
4.128881811E0,7.635590737E-4,2.137965523E-3,2.596100792E-3
4.131263478E0,7.635590737E-4,9.162708884E-4,1.527118147E-4
4.133645144E0,-4.581354442E-4,9.162708884E-4,-1.068982761E-3
4.136026863E0,7.635590737E-4,-3.054236295E-4,1.527118147E-4
4.138408530E0,-4.581354442E-4,-3.054236295E-4,1.527118147E-4
4.140790196E0,-4.581354442E-4,-3.054236295E-4,1.527118147E-4
4.143171863E0,-4.581354442E-4,-3.054236295E-4,1.374406274E-3
4.145553582E0,7.635590737E-4,9.162708884E-4,-1.068982761E-3
4.147935248E0,7.635590737E-4,9.162708884E-4,1.527118147E-4
4.150316915E0,7.635590737E-4,9.162708884E-4,1.374406274E-3
4.152698634E0,-1.679830020E-3,-3.054236295E-4,1.527118147E-4
4.155080300E0,-1.679830020E-3,-3.054236295E-4,1.527118147E-4
4.157461967E0,7.635590737E-4,-3.054236295E-4,1.374406274E-3
4.159843634E0,7.635590737E-4,-3.054236295E-4,1.527118147E-4
4.162225353E0,-1.679830020E-3,-3.054236295E-4,-1.068982761E-3
4.164607019E0,7.635590737E-4,-3.054236295E-4,-2.290677279E-3
4.166988686E0,7.635590737E-4,9.162708884E-4,1.527118147E-4
4.169370353E0,7.635590737E-4,9.162708884E-4,-1.068982761E-3
4.171752071E0,7.635590737E-4,-3.054236295E-4,1.374406274E-3
4.174133738E0,-1.679830020E-3,9.162708884E-4,1.374406274E-3
4.176515405E0,-4.581354442E-4,-1.527118147E-3,1.527118147E-4
4.178897123E0,-4.581354442E-4,-3.054236295E-4,2.596100792E-3
4.181278790E0,7.635590737E-4,9.162708884E-4,1.374406274E-3
4.183660457E0,-1.679830020E-3,-1.527118147E-3,-1.068982761E-3
4.186042123E0,-4.581354442E-4,9.162708884E-4,-1.068982761E-3
4.188423842E0,7.635590737E-4,2.137965523E-3,1.374406274E-3
4.190805509E0,-1.679830020E-3,-3.054236295E-4,-1.068982761E-3
4.193187175E0,-1.679830020E-3,-1.527118147E-3,1.527118147E-4
4.195568894E0,-4.581354442E-4,9.162708884E-4,-1.068982761E-3
4.197950561E0,-4.581354442E-4,9.162708884E-4,1.527118147E-4
4.200332228E0,-4.581354442E-4,2.137965523E-3,1.527118147E-4
4.202713894E0,-1.679830020E-3,-3.054236295E-4,-1.068982761E-3
4.205095613E0,-1.679830020E-3,7.635590737E-4,-1.068982761E-3
4.207477280E0,-1.679830020E-3,-3.054236295E-4,-1.068982761E-3
4.209858946E0,-4.581354442E-4,-3.054236295E-4,-1.068982761E-3
4.212240665E0,-4.581354442E-4,-3.054236295E-4,1.527118147E-4
4.214622332E0,-4.581354442E-4,-3.054236295E-4,1.527118147E-4
4.217003998E0,-4.581354442E-4,2.137965523E-3,1.527118147E-4
4.219385665E0,-1.679830020E-3,9.162708884E-4,1.374406274E-3
4.221767384E0,-4.581354442E-4,-3.054236295E-4,1.527118147E-4
4.224149050E0,2.137965523E-3,-3.054236295E-4,1.527118147E-4
4.226530717E0,7.635590737E-4,9.162708884E-4,1.527118147E-4
4.228912436E0,7.635590737E-4,2.137965523E-3,-1.068982761E-3
4.231294103E0,-1.679830020E-3,1.985253533E-3,1.527118147E-4
4.233675769E0,-4.581354442E-4,-3.054236295E-4,1.527118147E-4
4.236057436E0,-4.581354442E-4,-3.054236295E-4,1.374406274E-3
4.238439155E0,-4.581354442E-4,-3.054236295E-4,1.374406274E-3
4.240820821E0,-4.581354442E-4,9.162708884E-4,1.374406274E-3
4.243202488E0,-1.679830020E-3,9.162708884E-4,1.527118147E-4
4.245584207E0,-4.581354442E-4,-1.527118147E-3,1.374406274E-3
4.247965873E0,7.635590737E-4,-3.054236295E-4,1.527118147E-4
4.250347540E0,7.635590737E-4,-1.527118147E-3,-2.290677279E-3
4.252729207E0,7.635590737E-4,-1.527118147E-3,1.527118147E-4
4.255110925E0,-4.581354442E-4,2.137965523E-3,1.527118147E-4
4.257492592E0,-4.581354442E-4,9.162708884E-4,1.527118147E-4
4.259874259E0,1.985253533E-3,9.162708884E-4,1.527118147E-4
4.262255978E0,-4.581354442E-4,-3.054236295E-4,-1.068982761E-3
4.264637644E0,7.635590737E-4,-3.054236295E-4,-1.068982761E-3
4.267019311E0,7.635590737E-4,-3.054236295E-4,1.527118147E-4
4.269401030E0,-1.679830020E-3,-1.527118147E-3,1.527118147E-4
4.271782696E0,7.635590737E-4,9.162708884E-4,1.374406274E-3
4.274164363E0,7.635590737E-4,9.162708884E-4,1.527118147E-4
4.276546030E0,7.635590737E-4,-1.527118147E-3,1.527118147E-4
4.278927748E0,-4.581354442E-4,-3.054236295E-4,-1.068982761E-3
4.281309415E0,-4.581354442E-4,9.162708884E-4,1.527118147E-4
4.283691082E0,7.635590737E-4,9.162708884E-4,-2.290677279E-3
4.286072748E0,-4.581354442E-4,-3.054236295E-4,1.527118147E-4
4.288454467E0,7.635590737E-4,9.162708884E-4,1.374406274E-3
4.290836134E0,7.635590737E-4,-3.054236295E-4,-1.068982761E-3
4.293217800E0,7.635590737E-4,-3.054236295E-4,1.527118147E-4
4.295599519E0,-4.581354442E-4,9.162708884E-4,-1.068982761E-3
4.297981186E0,7.635590737E-4,1.985253533E-3,-3.512371797E-3
4.300362853E0,1.985253533E-3,-3.054236295E-4,-2.290677279E-3
4.302744519E0,1.985253533E-3,-3.054236295E-4,-1.068982761E-3
4.305126238E0,1.985253533E-3,9.162708884E-4,1.527118147E-4
4.307507905E0,-4.581354442E-4,9.162708884E-4,-1.068982761E-3
4.309889571E0,1.985253533E-3,2.137965523E-3,1.527118147E-4
4.312271290E0,1.985253533E-3,9.162708884E-4,-1.068982761E-3
4.314652957E0,-4.581354442E-4,-3.054236295E-4,1.527118147E-4
4.317034623E0,7.635590737E-4,-3.054236295E-4,1.527118147E-4
4.319416342E0,-4.581354442E-4,2.137965523E-3,1.527118147E-4
4.321798009E0,-1.679830020E-3,1.985253533E-3,-1.068982761E-3
4.324179675E0,7.635590737E-4,9.162708884E-4,1.527118147E-4
4.326561342E0,-4.581354442E-4,9.162708884E-4,1.374406274E-3
4.328943061E0,-1.679830020E-3,-3.054236295E-4,1.527118147E-4
4.331324728E0,-1.679830020E-3,9.162708884E-4,-1.068982761E-3
4.333706394E0,-1.679830020E-3,9.162708884E-4,-1.068982761E-3
4.336088061E0,7.635590737E-4,9.162708884E-4,1.527118147E-4
4.338469780E0,-4.581354442E-4,-3.054236295E-4,-1.068982761E-3
4.340851446E0,7.635590737E-4,9.162708884E-4,1.374406274E-3
4.343233113E0,-1.679830020E-3,2.137965523E-3,2.596100792E-3
4.345614832E0,7.635590737E-4,-3.054236295E-4,1.527118147E-4
4.347996498E0,7.635590737E-4,-3.054236295E-4,-1.068982761E-3
4.350378165E0,7.635590737E-4,9.162708884E-4,1.527118147E-4
4.352759832E0,-4.581354442E-4,9.162708884E-4,1.527118147E-4
4.355141550E0,-4.581354442E-4,-3.054236295E-4,2.596100792E-3
4.357523217E0,7.635590737E-4,-1.527118147E-3,1.374406274E-3
4.359904884E0,-4.581354442E-4,-3.054236295E-4,1.527118147E-4
4.362286603E0,7.635590737E-4,-1.527118147E-3,1.527118147E-4
4.364668269E0,-4.581354442E-4,-1.527118147E-3,1.527118147E-4
4.367049936E0,7.635590737E-4,-1.527118147E-3,1.527118147E-4
4.369431603E0,-1.679830020E-3,2.137965523E-3,1.374406274E-3
4.371813321E0,7.635590737E-4,9.162708884E-4,-1.068982761E-3
4.374194988E0,-4.581354442E-4,1.985253533E-3,-1.068982761E-3
4.376576655E0,-4.581354442E-4,-3.054236295E-4,1.527118147E-4
4.378958373E0,-4.581354442E-4,-3.054236295E-4,1.527118147E-4
4.381340040E0,7.635590737E-4,-3.054236295E-4,1.374406274E-3
4.383721707E0,7.635590737E-4,-3.054236295E-4,1.374406274E-3
4.386103373E0,2.137965523E-3,-3.054236295E-4,1.374406274E-3
4.388485092E0,7.635590737E-4,9.162708884E-4,1.527118147E-4
4.390866759E0,7.635590737E-4,9.162708884E-4,1.527118147E-4
4.393248425E0,-2.901524538E-3,9.162708884E-4,1.527118147E-4
4.395630144E0,-4.581354442E-4,9.162708884E-4,1.527118147E-4
4.398011811E0,-4.581354442E-4,-3.054236295E-4,-1.068982761E-3
4.400393478E0,-4.581354442E-4,9.162708884E-4,1.527118147E-4
4.402775196E0,-1.679830020E-3,-3.054236295E-4,-2.290677279E-3
4.405156863E0,-4.581354442E-4,-3.054236295E-4,1.527118147E-4
4.407538530E0,1.985253533E-3,9.162708884E-4,1.527118147E-4
4.409920196E0,7.635590737E-4,9.162708884E-4,1.527118147E-4
4.412301915E0,-4.581354442E-4,9.162708884E-4,-1.068982761E-3
4.414683582E0,7.635590737E-4,9.162708884E-4,1.374406274E-3
4.417065248E0,-4.581354442E-4,9.162708884E-4,1.527118147E-4
4.419446967E0,-1.679830020E-3,-3.054236295E-4,2.596100792E-3
4.421828634E0,-4.581354442E-4,-3.054236295E-4,1.527118147E-4
4.424210300E0,-4.581354442E-4,-1.527118147E-3,2.596100792E-3
4.426591967E0,2.137965523E-3,-3.054236295E-4,1.527118147E-4
4.428973686E0,-4.581354442E-4,1.985253533E-3,-1.068982761E-3
4.431355353E0,7.635590737E-4,9.162708884E-4,1.527118147E-4
4.433737019E0,-4.581354442E-4,9.162708884E-4,-1.068982761E-3
4.436118738E0,7.635590737E-4,-3.054236295E-4,1.527118147E-4
4.438500405E0,-4.581354442E-4,-1.527118147E-3,1.374406274E-3
4.440882071E0,-1.679830020E-3,9.162708884E-4,1.527118147E-4
4.443263738E0,-4.581354442E-4,-3.054236295E-4,-1.068982761E-3
4.445645457E0,7.635590737E-4,-3.054236295E-4,-1.068982761E-3
4.448027123E0,7.635590737E-4,2.137965523E-3,-1.068982761E-3
4.450408790E0,7.635590737E-4,2.137965523E-3,-1.068982761E-3
4.452790509E0,-4.581354442E-4,9.162708884E-4,1.527118147E-4
4.455172175E0,7.635590737E-4,9.162708884E-4,-1.068982761E-3
4.457553842E0,7.635590737E-4,9.162708884E-4,1.527118147E-4
4.459935561E0,-4.581354442E-4,1.985253533E-3,-1.068982761E-3
4.462317228E0,-4.581354442E-4,9.162708884E-4,1.527118147E-4
4.464698894E0,-1.679830020E-3,-3.054236295E-4,1.527118147E-4
4.467080561E0,-1.679830020E-3,-3.054236295E-4,1.527118147E-4
4.469462280E0,-4.581354442E-4,-3.054236295E-4,1.527118147E-4
4.471843946E0,-4.581354442E-4,-1.527118147E-3,1.527118147E-4
4.474225613E0,7.635590737E-4,-1.527118147E-3,-1.068982761E-3
4.476607332E0,-4.581354442E-4,-3.054236295E-4,-3.512371797E-3
4.478988998E0,7.635590737E-4,9.162708884E-4,1.527118147E-4
4.481370665E0,7.635590737E-4,2.137965523E-3,-1.068982761E-3
4.483752332E0,7.635590737E-4,2.137965523E-3,1.527118147E-4
4.486134050E0,7.635590737E-4,9.162708884E-4,1.527118147E-4
4.488515717E0,1.985253533E-3,2.137965523E-3,1.527118147E-4
4.490897384E0,-4.581354442E-4,-3.054236295E-4,1.527118147E-4
4.493279103E0,7.635590737E-4,-1.527118147E-3,1.374406274E-3
4.495660769E0,-4.581354442E-4,9.162708884E-4,-1.068982761E-3
4.498042436E0,-4.581354442E-4,1.985253533E-3,-2.290677279E-3
4.500424103E0,7.635590737E-4,-3.054236295E-4,-1.068982761E-3
4.502805821E0,-1.679830020E-3,-3.054236295E-4,1.527118147E-4
4.505187488E0,-4.581354442E-4,-3.054236295E-4,1.527118147E-4
4.507569155E0,-4.581354442E-4,9.162708884E-4,1.374406274E-3
4.509950873E0,7.635590737E-4,9.162708884E-4,1.527118147E-4
4.512332540E0,9.162708884E-4,-2.748812549E-3,1.374406274E-3
4.514714207E0,-4.581354442E-4,-1.527118147E-3,1.527118147E-4
4.517095925E0,7.635590737E-4,-1.527118147E-3,-1.068982761E-3
4.519477592E0,7.635590737E-4,-1.527118147E-3,1.374406274E-3
4.521859259E0,7.635590737E-4,-1.527118147E-3,1.527118147E-4
4.524240925E0,7.635590737E-4,9.162708884E-4,-1.068982761E-3
4.526622644E0,7.635590737E-4,2.137965523E-3,-1.068982761E-3
4.529004311E0,-4.581354442E-4,-1.527118147E-3,1.527118147E-4
4.531385978E0,-4.581354442E-4,7.635590737E-4,-2.290677279E-3
4.533767696E0,7.635590737E-4,9.162708884E-4,-1.068982761E-3
4.536149363E0,1.985253533E-3,3.359660041E-3,-1.068982761E-3
4.538531030E0,2.137965523E-3,-3.054236295E-4,1.527118147E-4
4.540912696E0,3.359660041E-3,9.162708884E-4,1.527118147E-4
4.543294415E0,1.985253533E-3,2.137965523E-3,-1.068982761E-3
4.545676082E0,7.635590737E-4,9.162708884E-4,-2.290677279E-3
4.548057748E0,-4.581354442E-4,7.635590737E-4,-2.290677279E-3
4.550439467E0,-4.581354442E-4,1.985253533E-3,-2.290677279E-3
4.552821134E0,-4.581354442E-4,7.635590737E-4,-3.512371797E-3
4.555202800E0,1.985253533E-3,9.162708884E-4,-3.512371797E-3
4.557584519E0,7.635590737E-4,1.985253533E-3,-4.734066315E-3
4.559966186E0,-4.581354442E-4,1.985253533E-3,-7.177455351E-3
4.562347853E0,7.635590737E-4,7.635590737E-4,-1.084253844E-2
4.564729519E0,7.635590737E-4,7.635590737E-4,-8.399149403E-3
4.567111238E0,7.635590737E-4,9.162708884E-4,-3.512371797E-3
4.569492905E0,-4.581354442E-4,3.206948051E-3,-3.512371797E-3
4.571874571E0,7.635590737E-4,3.206948051E-3,-2.290677279E-3
4.574256290E0,-4.581354442E-4,-1.527118147E-3,-3.512371797E-3
4.576637957E0,-4.581354442E-4,-1.527118147E-3,-3.512371797E-3
4.579019623E0,7.635590737E-4,-3.054236295E-4,-4.734066315E-3
4.581401342E0,1.985253533E-3,7.635590737E-4,-8.399149403E-3
4.583783009E0,1.985253533E-3,-4.581354442E-4,-9.620844387E-3
4.586164675E0,-4.581354442E-4,7.635590737E-4,-9.620844387E-3
4.588546342E0,-6.108472589E-4,3.206948051E-3,-1.832541823E-2
4.590928061E0,6.108472589E-4,-6.108472589E-4,-3.542914242E-2
4.593309728E0,1.679830020E-3,1.832541777E-3,-5.497625470E-2
4.595691394E0,2.901524538E-3,1.679830020E-3,-7.467607409E-2
4.598073113E0,1.527118147E-3,1.679830020E-3,-8.689302206E-2
4.600454780E0,2.748812549E-3,4.581354442E-4,-9.055810422E-2
4.602836446E0,6.566607859E-3,2.901524538E-3,-8.444963396E-2
4.605218113E0,4.123218823E-3,4.581354442E-4,-7.834116369E-2
4.607599832E0,2.901524538E-3,4.581354442E-4,-8.078455180E-2
4.609981498E0,2.748812549E-3,3.054236295E-4,-9.544488788E-2
4.612363165E0,6.413896102E-3,2.748812549E-3,-1.039967462E-1
4.614744884E0,1.007897966E-2,3.970507067E-3,-1.015533581E-1
4.617126550E0,1.267508045E-2,5.344913341E-3,-8.567132801E-2
4.619508217E0,1.771457121E-2,9.162709117E-3,-6.474980712E-2
4.621889884E0,2.290677279E-2,1.053711493E-2,-3.787253052E-2
4.624271603E0,3.038965166E-2,1.435491070E-2,-7.177455351E-3
4.626653269E0,4.291202128E-2,1.801999472E-2,5.192201585E-3
4.629034936E0,6.032116711E-2,2.305948362E-2,7.635590620E-3
4.631416655E0,8.750387281E-2,2.565558441E-2,1.756185852E-2
4.633798321E0,1.273616552E-1,2.962609194E-2,3.237490356E-2
4.636179988E0,1.769929975E-1,3.603998944E-2,5.940489471E-2
4.638561707E0,2.367033064E-1,4.382828996E-2,9.880454093E-2
4.640943373E0,3.014531136E-1,5.054761097E-2,1.467560530E-1
4.643325040E0,3.674246371E-1,5.711421743E-2,2.032594234E-1
4.645706759E0,4.260659516E-1,6.383354217E-2,2.672456801E-1
4.648088425E0,4.772244096E-1,6.810946763E-2,3.225273490E-1
4.650470092E0,5.283828974E-1,6.612421572E-2,3.741439581E-1
4.652851759E0,5.683933496E-1,5.207473040E-2,4.269822240E-1
4.655233478E0,5.972558856E-1,4.398100078E-2,4.723376334E-1
4.657615144E0,6.186355352E-1,3.222219273E-2,5.215108395E-1
4.659996811E0,6.361974478E-1,2.397575416E-2,5.570927262E-1
4.662378530E0,6.525375843E-1,2.672456764E-2,5.926745534E-1
4.664760196E0,6.612421870E-1,2.932066843E-2,6.062659025E-1
4.667141863E0,6.662816405E-1,1.710372418E-2,5.964923501E-1
4.669510300E0,6.736118197E-1,-1.221694518E-3,5.757235289E-1
4.671905248E0,6.809419990E-1,3.649812192E-2,5.780141950E-1
4.674334571E0,6.723901033E-1,1.588202827E-2,5.903838873E-1
4.676763894E0,6.626165509E-1,1.374406274E-3,5.952706337E-1
4.679193217E0,6.574243903E-1,2.428117767E-2,5.841227174E-1
4.681622592E0,6.461237073E-1,8.246437646E-3,5.302154422E-1
4.684051915E0,6.458182931E-1,2.504473738E-2,5.131117105E-1
4.686481186E0,6.484143734E-1,1.771457121E-2,5.045598149E-1
4.688910457E0,6.555918455E-1,1.771457121E-2,4.836383164E-1
4.691339780E0,6.728482842E-1,2.122694254E-2,4.543176591E-1
4.693769050E0,6.962131858E-1,1.878355257E-2,4.127800465E-1
4.696198321E0,7.281299233E-1,2.107422985E-2,3.637595475E-1
4.698614103E0,7.673768401E-1,1.985253580E-2,3.063398898E-1
4.701056915E0,8.116632700E-1,1.847812906E-2,2.365505993E-1
4.703486186E0,8.570187092E-1,1.695101149E-2,1.484358907E-1
4.705901915E0,9.072608948E-1,2.412846684E-2,5.665608495E-2
4.708344780E0,9.588775039E-1,2.260134928E-2,-3.512371704E-2
4.710774050E0,1.012937427E0,1.649287529E-2,-1.194206402E-1
4.713203321E0,1.065928459E0,5.497625098E-3,-1.927223057E-1
4.715632644E0,1.111436605E0,-4.275931045E-3,-2.502946556E-1
4.718061915E0,1.157097459E0,7.788302377E-3,-2.930539846E-1
4.720491186E0,1.201383829E0,1.878355257E-2,-3.260397315E-1
4.722920457E0,1.244753957E0,1.527118124E-2,-3.478775024E-1
4.725349780E0,1.288124204E0,5.803049076E-3,-3.538332880E-1
4.727779050E0,1.333937645E0,8.399149403E-3,-3.526115716E-1
4.730208321E0,1.379751205E0,2.199050039E-2,-3.487937748E-1
