"Time (s)","Acceleration x (m/s^2)","Acceleration y (m/s^2)","Acceleration z (m/s^2)"
1.532662500E-2,9.076625824E0,-5.769836307E-1,1.367027044E0
1.772959400E-2,8.964102745E0,-5.123429298E-1,1.434061766E0
2.013256300E-2,8.827639580E0,-4.572786987E-1,1.534614086E0
2.253553100E-2,8.827639580E0,-4.572786987E-1,1.534614086E0
2.493850000E-2,8.628929138E0,-4.668551087E-1,1.651924849E0
2.742042700E-2,8.458948135E0,-4.812196791E-1,1.809935331E0
2.992042700E-2,8.324878693E0,-4.979783893E-1,1.924852133E0
3.242037500E-2,8.243479729E0,-4.836137891E-1,2.030192375E0
3.496042700E-2,8.209961891E0,-4.860078692E-1,2.171444178E0
3.743954200E-2,8.224327087E0,-4.500963986E-1,2.286360979E0
3.987813600E-2,8.243479729E0,-3.950321376E-1,2.370154381E0
4.231672900E-2,8.351213455E0,-3.399678767E-1,2.487465143E0
4.475610400E-2,8.432612419E0,-3.136327863E-1,2.609564304E0
4.719547900E-2,8.557106972E0,-2.753272057E-1,2.741239786E0
4.963407300E-2,8.667234421E0,-2.442039102E-1,2.846580029E0
5.207266700E-2,8.815669060E0,-2.226570398E-1,2.971073151E0
5.451204200E-2,8.916220665E0,-1.771691442E-1,3.062048912E0
5.695146900E-2,9.043108940E0,-1.484399736E-1,3.181753874E0
5.939006300E-2,9.134083748E0,-1.508340687E-1,3.246394396E0
6.182865600E-2,9.215483665E0,-1.197107807E-1,3.318217516E0
6.426803100E-2,9.287306786E0,-1.029520929E-1,3.327793837E0
6.670740600E-2,9.392646790E0,-9.576979280E-2,3.337370157E0
6.914600000E-2,9.421376228E0,-1.005579904E-1,3.337370157E0
7.158459400E-2,9.447710991E0,-1.053461879E-1,3.356523037E0
7.402396900E-2,9.462076187E0,-1.077402830E-1,3.344552755E0
7.646339600E-2,9.488410950E0,-9.576979280E-2,3.332582235E0
7.890199000E-2,9.493198395E0,-1.197107807E-1,3.327793837E0
8.134058400E-2,9.474045753E0,-1.340753734E-1,3.323005676E0
8.377995900E-2,9.452498436E0,-1.532281637E-1,3.296670675E0
8.621933400E-2,9.457287788E0,-1.771691442E-1,3.272729635E0
8.865792700E-2,9.416587830E0,-2.250511348E-1,3.258364916E0
9.109652100E-2,9.368705750E0,-2.370216101E-1,3.241606474E0
9.353589600E-2,9.366312027E0,-2.513862252E-1,3.217665434E0
9.597527100E-2,9.308854103E0,-2.513862252E-1,3.217665434E0
9.841386500E-2,9.301671028E0,-2.633566856E-1,3.196118355E0
1.008524590E-1,9.270547867E0,-2.872976959E-1,3.205694914E0
1.032918340E-1,9.280123711E0,-2.609626055E-1,3.215271235E0
1.057312610E-1,9.263365746E0,-2.896918058E-1,3.208088875E0
1.081698540E-1,9.258576393E0,-2.825095057E-1,3.222453356E0
1.106084480E-1,9.268154144E0,-2.896918058E-1,3.272729635E0
1.130478230E-1,9.249000549E0,-2.633566856E-1,3.311035156E0
1.154871980E-1,9.265759468E0,-2.896918058E-1,3.330188036E0
1.179257920E-1,9.260972023E0,-2.609626055E-1,3.373281717E0
1.203643860E-1,9.275335312E0,-2.322334200E-1,3.404404879E0
1.228037610E-1,9.280123711E0,-2.442039102E-1,3.425951958E0
1.252431880E-1,9.292095184E0,-2.346275151E-1,3.418769598E0
1.276817810E-1,9.301671028E0,-2.442039102E-1,3.449892998E0
1.301203750E-1,9.308854103E0,-2.418098152E-1,3.459469080E0
1.325597500E-1,9.330399513E0,-2.370216101E-1,3.457075119E0
1.349991250E-1,9.330399513E0,-2.872976959E-1,3.466651678E0
1.374377190E-1,9.330399513E0,-2.705389857E-1,3.454681158E0
1.398763130E-1,9.311247826E0,-2.825095057E-1,3.423557997E0
1.423156880E-1,9.306458473E0,-2.968740761E-1,3.404404879E0
1.447550630E-1,9.289700508E0,-3.088445663E-1,3.370887756E0
1.471936560E-1,9.301671028E0,-3.160268664E-1,3.320611715E0
1.496322500E-1,9.320823669E0,-3.399678767E-1,3.284700155E0
1.520716250E-1,9.301671028E0,-3.351796865E-1,3.255970955E0
1.545110520E-1,9.296882629E0,-3.303914666E-1,3.212877274E0
1.569496460E-1,9.289700508E0,-3.519383371E-1,3.217665434E0
1.593882400E-1,9.277729988E0,-3.256032467E-1,3.222453356E0
1.618276150E-1,9.246606827E0,-3.136327863E-1,3.203300714E0
1.642669900E-1,9.249000549E0,-3.064504862E-1,3.196118355E0
1.667055840E-1,9.251395226E0,-2.968740761E-1,3.200906754E0
1.691441770E-1,9.251395226E0,-2.849035859E-1,3.222453356E0
1.715835520E-1,9.251395226E0,-3.184209764E-1,3.208088875E0
1.740229790E-1,9.246606827E0,-3.040563762E-1,3.251182795E0
1.764615730E-1,9.244213104E0,-2.681449056E-1,3.260759115E0
1.789001150E-1,9.203513145E0,-2.274452150E-1,3.263153076E0
1.813394900E-1,9.205906868E0,-2.561744153E-1,3.260759115E0
1.837789170E-1,9.205906868E0,-2.920858860E-1,3.239212275E0
1.862175110E-1,9.210694313E0,-2.968740761E-1,3.234423876E0
1.886561040E-1,9.241818428E0,-2.944799662E-1,3.246394396E0
1.910954790E-1,9.229847908E0,-2.825095057E-1,3.208088875E0
1.935348540E-1,9.237030983E0,-2.872976959E-1,3.196118355E0
1.959734480E-1,9.270547867E0,-2.896918058E-1,3.174571514E0
1.984120420E-1,9.249000549E0,-3.064504862E-1,3.155418634E0
2.008514170E-1,9.251395226E0,-3.016622663E-1,3.136265993E0
2.032908440E-1,9.280123711E0,-3.160268664E-1,3.143448114E0
2.057294380E-1,9.304064751E0,-3.208150864E-1,3.131477594E0
2.081680310E-1,9.287306786E0,-3.208150864E-1,3.119507074E0
2.106074060E-1,9.318429947E0,-3.136327863E-1,3.114719152E0
2.130467810E-1,9.306458473E0,-3.256032467E-1,3.141054153E0
2.154853750E-1,9.306458473E0,-3.184209764E-1,3.145842552E0
2.179239690E-1,9.284913063E0,-3.184209764E-1,3.133872032E0
2.203633440E-1,9.294488907E0,-3.351796865E-1,3.121901512E0
2.228027190E-1,9.272941589E0,-3.471501470E-1,3.145842552E0
2.252413130E-1,9.265759468E0,-3.279973865E-1,3.157812834E0
2.276799060E-1,9.246606827E0,-3.136327863E-1,3.160207033E0
2.301192810E-1,9.237030983E0,-3.040563762E-1,3.162600994E0
2.325587090E-1,9.249000549E0,-2.681449056E-1,3.205694914E0
2.349973020E-1,9.249000549E0,-2.729330957E-1,3.193724394E0
2.374358960E-1,9.227454185E0,-2.537803054E-1,3.193724394E0
2.398752710E-1,9.251395226E0,-2.106865346E-1,3.179359674E0
2.423146460E-1,9.284913063E0,-2.082924396E-1,3.160207033E0
2.447532400E-1,9.282517433E0,-2.274452150E-1,3.167389154E0
2.471918340E-1,9.272941589E0,-2.418098152E-1,3.160207033E0
2.496312090E-1,9.265759468E0,-2.442039102E-1,3.126689672E0
2.520705840E-1,9.268154144E0,-2.633566856E-1,3.126689672E0
2.545091770E-1,9.270547867E0,-2.729330957E-1,3.133872032E0
2.569477710E-1,9.239424706E0,-2.705389857E-1,3.121901512E0
2.593871460E-1,9.227454185E0,-2.944799662E-1,3.117113113E0
2.618265730E-1,9.232241631E0,-3.447560668E-1,3.117113113E0
2.642651670E-1,9.213089943E0,-3.710911572E-1,3.121901512E0
2.667037610E-1,9.179572105E0,-3.830616176E-1,3.145842552E0
2.691431360E-1,9.193936348E0,-3.926380277E-1,3.172177553E0
2.715825110E-1,9.196331024E0,-3.878498375E-1,3.200906754E0
2.740211040E-1,9.198724747E0,-4.046085477E-1,3.215271235E0
2.764596980E-1,9.177177429E0,-4.093967080E-1,3.246394396E0
2.788990730E-1,9.213089943E0,-4.357318282E-1,3.253576994E0
2.813384480E-1,9.220272064E0,-4.309436381E-1,3.265547276E0
2.837770420E-1,9.241818428E0,-4.429140985E-1,3.284700155E0
2.862156360E-1,9.253788948E0,-4.333377182E-1,3.318217516E0
2.886550110E-1,9.287306786E0,-4.548845887E-1,3.296670675E0
2.910944380E-1,9.280123711E0,-4.453082085E-1,3.301458597E0
2.935330310E-1,9.296882629E0,-4.572786987E-1,3.267941475E0
2.959716250E-1,9.318429947E0,-4.644609988E-1,3.275123596E0
2.984110000E-1,9.335188866E0,-4.955842793E-1,3.272729635E0
3.008503750E-1,9.349553108E0,-5.051606894E-1,3.241606474E0
3.032889690E-1,9.359129906E0,-5.027666092E-1,3.236818075E0
3.057275630E-1,9.363917351E0,-5.171311498E-1,3.208088875E0
3.081669380E-1,9.373494148E0,-4.716432691E-1,3.184147835E0
3.106063130E-1,9.359129906E0,-4.357318282E-1,3.174571514E0
3.130449060E-1,9.359129906E0,-3.806675375E-1,3.138660192E0
3.154835000E-1,9.344764709E0,-3.471501470E-1,3.133872032E0
3.179228750E-1,9.354340553E0,-2.992681861E-1,3.095566273E0
3.203623020E-1,9.335188866E0,-2.657507956E-1,3.114719152E0
3.228008960E-1,9.311247826E0,-2.250511348E-1,3.153024673E0
3.252394900E-1,9.308854103E0,-2.011101246E-1,3.148236513E0
3.276788650E-1,9.296882629E0,-2.106865346E-1,3.176965714E0
3.301182400E-1,9.282517433E0,-2.322334200E-1,3.164995193E0
3.325568340E-1,9.253788948E0,-2.609626055E-1,3.212877274E0
3.349954270E-1,9.241818428E0,-2.825095057E-1,3.222453356E0
3.374348020E-1,9.215483665E0,-3.184209764E-1,3.227241755E0
3.398742290E-1,9.201118469E0,-3.256032467E-1,3.246394396E0
3.423128230E-1,9.220272064E0,-3.256032467E-1,3.251182795E0
3.447513650E-1,9.181965828E0,-3.375737667E-1,3.251182795E0
3.471907400E-1,9.177177429E0,-3.471501470E-1,3.253576994E0
3.496301670E-1,9.160418510E0,-3.423619568E-1,3.239212275E0
3.520687610E-1,9.148448944E0,-3.327855766E-1,3.244000435E0
3.545073540E-1,9.172389984E0,-3.447560668E-1,3.244000435E0
3.569467290E-1,9.172389984E0,-3.423619568E-1,3.279911995E0
3.593861040E-1,9.184359550E0,-3.519383371E-1,3.294276476E0
3.618246980E-1,9.172389984E0,-3.471501470E-1,3.275123596E0
3.642632920E-1,9.181965828E0,-3.591206670E-1,3.315823555E0
3.667026670E-1,9.198724747E0,-3.830616176E-1,3.349340677E0
3.691420420E-1,9.215483665E0,-3.974262178E-1,3.320611715E0
3.715806360E-1,9.217877388E0,-4.046085477E-1,3.327793837E0
3.740192290E-1,9.210694313E0,-4.429140985E-1,3.318217516E0
3.764586040E-1,9.191542625E0,-4.572786987E-1,3.327793837E0
3.788980310E-1,9.193936348E0,-4.524905086E-1,3.289488077E0
3.813366250E-1,9.179572105E0,-4.548845887E-1,3.299064636E0
3.837752190E-1,9.169995308E0,-4.740374088E-1,3.282305956E0
3.862145940E-1,9.162813187E0,-5.051606894E-1,3.263153076E0
3.886539690E-1,9.134083748E0,-4.955842793E-1,3.267941475E0
3.910925630E-1,9.114932060E0,-5.195252895E-1,3.284700155E0
3.935311560E-1,9.136477470E0,-5.362839699E-1,3.272729635E0
3.959705310E-1,9.138873100E0,-5.698013306E-1,3.287094116E0
3.984099060E-1,9.141266823E0,-5.650131702E-1,3.284700155E0
4.008485000E-1,9.129295349E0,-6.033187509E-1,3.291882515E0
4.032870940E-1,9.098173141E0,-5.961364508E-1,3.294276476E0
4.057264690E-1,9.107748985E0,-6.152892113E-1,3.299064636E0
4.081658960E-1,9.102960587E0,-6.128951311E-1,3.313429117E0
4.106044900E-1,9.110142708E0,-6.272596717E-1,3.327793837E0
4.130430840E-1,9.114932060E0,-6.105009913E-1,3.311035156E0
4.154824590E-1,9.150842667E0,-6.152892113E-1,3.313429117E0
4.179218340E-1,9.210694313E0,-5.961364508E-1,3.311035156E0
4.203604270E-1,9.246606827E0,-5.506485701E-1,3.342158556E0
4.227990210E-1,9.275335312E0,-5.458603501E-1,3.332582235E0
4.252383960E-1,9.301671028E0,-5.243134499E-1,3.339764357E0
4.276777710E-1,9.330399513E0,-5.171311498E-1,3.368493557E0
4.301163650E-1,9.363917351E0,-4.907960892E-1,3.354128838E0
4.325549590E-1,9.390253067E0,-4.692491889E-1,3.368493557E0
4.349943340E-1,9.414194107E0,-4.357318282E-1,3.402010918E0
4.374337610E-1,9.407011986E0,-3.854557574E-1,3.390040398E0
4.398723540E-1,9.407011986E0,-3.686970770E-1,3.402010918E0
4.423109480E-1,9.395040512E0,-3.351796865E-1,3.435528517E0
4.447503230E-1,9.378281593E0,-2.920858860E-1,3.428345919E0
4.471896980E-1,9.351946831E0,-2.729330957E-1,3.473834038E0
4.496282920E-1,9.335188866E0,-2.418098152E-1,3.497774839E0
4.520668860E-1,9.272941589E0,-2.130806297E-1,3.516927719E0
4.545062610E-1,9.263365746E0,-1.795632541E-1,3.507351160E0
4.569456360E-1,9.234635353E0,-1.987160444E-1,3.488198519E0
4.593842290E-1,9.213089943E0,-1.675927490E-1,3.490592718E0
4.618228230E-1,9.169995308E0,-1.628045589E-1,3.473834038E0
4.642621980E-1,9.146055222E0,-1.388635635E-1,3.454681158E0
4.667016250E-1,9.134083748E0,-1.436517686E-1,3.449892998E0
4.691402190E-1,9.098173141E0,-1.292871833E-1,3.404404879E0
4.715787610E-1,9.095778465E0,-1.149225831E-1,3.411587477E0
4.740181360E-1,9.074232101E0,-1.484399736E-1,3.375675917E0
4.764575630E-1,9.047896385E0,-1.747750491E-1,3.356523037E0
4.788961560E-1,9.038319588E0,-1.723809540E-1,3.342158556E0
4.813347500E-1,9.019167900E0,-2.370216101E-1,3.349340677E0
4.837741250E-1,9.021561623E0,-2.585684955E-1,3.337370157E0
4.862135000E-1,9.028743744E0,-3.088445663E-1,3.361311197E0
4.886520940E-1,9.011984825E0,-3.519383371E-1,3.382858276E0
4.910906880E-1,8.983255386E0,-3.663029373E-1,3.421163797E0
4.935300630E-1,8.997620583E0,-3.974262178E-1,3.435528517E0
4.959694380E-1,8.992832184E0,-4.070026278E-1,3.454681158E0
4.984080310E-1,8.978467941E0,-4.022144377E-1,3.471439600E0
5.008466250E-1,8.990437508E0,-4.237613082E-1,3.490592718E0
5.032860000E-1,9.002408981E0,-4.213672280E-1,3.473834038E0
5.057254270E-1,9.016773224E0,-4.213672280E-1,3.471439600E0
5.081640210E-1,9.028743744E0,-4.141849279E-1,3.485804558E0
5.106026150E-1,9.067049980E0,-3.878498375E-1,3.488198519E0
5.130419900E-1,9.059866905E0,-3.639088571E-1,3.509745359E0
5.154813650E-1,9.067049980E0,-3.375737667E-1,3.490592718E0
5.179199590E-1,9.088595390E0,-3.136327863E-1,3.481016159E0
5.203585520E-1,9.088595390E0,-2.729330957E-1,3.478622198E0
5.227979270E-1,9.114932060E0,-2.489921153E-1,3.495380640E0
5.252373020E-1,9.100566864E0,-2.370216101E-1,3.469045639E0
5.276758960E-1,9.141266823E0,-2.106865346E-1,3.466651678E0
5.301144900E-1,9.155631065E0,-1.819573492E-1,3.464257479E0
5.325538650E-1,9.143660545E0,-1.532281637E-1,3.452286959E0
5.349932920E-1,9.148448944E0,-1.412576735E-1,3.476227999E0
5.374318860E-1,9.155631065E0,-1.532281637E-1,3.481016159E0
5.398704790E-1,9.155631065E0,-1.604104638E-1,3.473834038E0
5.423098540E-1,9.150842667E0,-1.436517686E-1,3.497774839E0
5.447492290E-1,9.129295349E0,-1.029520929E-1,3.502563238E0
5.471878230E-1,9.143660545E0,-1.149225831E-1,3.536080360E0
5.496264170E-1,9.114932060E0,-9.098159522E-2,3.526504278E0
5.520657920E-1,9.112536430E0,-8.858749270E-2,3.538474798E0
5.545051670E-1,9.105354309E0,-8.619339764E-2,3.550444841E0
5.569437610E-1,9.090991020E0,-1.101343855E-1,3.591144800E0
5.593823540E-1,9.067049980E0,-1.053461879E-1,3.631844521E0
5.618217290E-1,9.019167900E0,-1.316812634E-1,3.648603201E0
5.642611040E-1,9.019167900E0,-1.221048757E-1,3.665361643E0
5.666996980E-1,8.976074219E0,-1.268930733E-1,3.682120323E0
5.691382920E-1,8.961709023E0,-1.316812634E-1,3.706061363E0
5.715776670E-1,8.944951057E0,-1.532281637E-1,3.694090843E0
5.740170940E-1,8.964102745E0,-1.819573492E-1,3.718031883E0
5.764556880E-1,8.971285820E0,-1.891396344E-1,3.708455801E0
5.788942810E-1,8.966496468E0,-1.651986539E-1,3.708455801E0
5.813336560E-1,8.964102745E0,-2.035042346E-1,3.684514761E0
5.837730310E-1,8.954526901E0,-2.250511348E-1,3.636632681E0
5.862116250E-1,8.949738503E0,-2.465980202E-1,3.600721121E0
5.886502190E-1,8.947344780E0,-2.801153958E-1,3.574385881E0
5.910895940E-1,8.944951057E0,-3.088445663E-1,3.552839279E0
5.935289690E-1,8.940161705E0,-2.872976959E-1,3.519321680E0
5.959675630E-1,8.944951057E0,-2.657507956E-1,3.500169039E0
5.984061560E-1,8.932979584E0,-2.825095057E-1,3.476227999E0
6.008455310E-1,8.973679543E0,-3.256032467E-1,3.425951958E0
6.032849590E-1,9.033532143E0,-4.070026278E-1,3.399616957E0
6.057235520E-1,9.035925865E0,-4.524905086E-1,3.375675917E0
6.081620940E-1,9.033532143E0,-4.620669186E-1,3.366099358E0
6.106014690E-1,9.057473183E0,-4.740374088E-1,3.375675917E0
6.130408960E-1,9.071837425E0,-5.051606894E-1,3.378069878E0
6.154794900E-1,9.105354309E0,-5.458603501E-1,3.382858276E0
6.179180840E-1,9.093384743E0,-5.698013306E-1,3.404404879E0
6.203574590E-1,9.112536430E0,-5.721954107E-1,3.433134079E0
6.227968340E-1,9.162813187E0,-5.721954107E-1,3.471439600E0
6.252354270E-1,9.155631065E0,-5.458603501E-1,3.531292200E0
6.276740210E-1,9.205906868E0,-4.907960892E-1,3.550444841E0
6.301133960E-1,9.246606827E0,-4.931901991E-1,3.557627439E0
6.325527710E-1,9.287306786E0,-4.548845887E-1,3.579174280E0
6.349913650E-1,9.316036224E0,-4.093967080E-1,3.579174280E0
6.374299590E-1,9.349553108E0,-3.902439475E-1,3.627056122E0
6.398693340E-1,9.332795143E0,-3.639088571E-1,3.627056122E0
6.423087610E-1,9.342370987E0,-3.591206670E-1,3.648603201E0
6.447473540E-1,9.325612068E0,-3.303914666E-1,3.643815041E0
6.471858960E-1,9.330399513E0,-3.256032467E-1,3.617480040E0
6.496252710E-1,9.339976311E0,-3.184209764E-1,3.586356401E0
6.520646980E-1,9.349553108E0,-3.327855766E-1,3.524109840E0
6.545032920E-1,9.332795143E0,-3.303914666E-1,3.481016159E0
6.569418860E-1,9.342370987E0,-3.279973865E-1,3.421163797E0
6.593812610E-1,9.339976311E0,-3.399678767E-1,3.380463839E0
6.618206360E-1,9.318429947E0,-3.543324769E-1,3.342158556E0
6.642592290E-1,9.306458473E0,-3.734852672E-1,3.299064636E0
6.666978230E-1,9.277729988E0,-4.213672280E-1,3.291882515E0
6.691371980E-1,9.258576393E0,-4.381259084E-1,3.255970955E0
6.715765730E-1,9.225059509E0,-4.692491889E-1,3.248788595E0
6.740151670E-1,9.167601585E0,-4.620669186E-1,3.222453356E0
6.764537610E-1,9.150842667E0,-4.405199885E-1,3.215271235E0
6.788931360E-1,9.119719505E0,-4.309436381E-1,3.212877274E0
6.813325630E-1,9.110142708E0,-4.644609988E-1,3.198512554E0
6.837711560E-1,9.112536430E0,-4.812196791E-1,3.164995193E0
6.862097500E-1,9.102960587E0,-4.788255990E-1,3.164995193E0
6.886491250E-1,9.076625824E0,-4.788255990E-1,3.143448114E0
6.910885000E-1,9.045502663E0,-4.716432691E-1,3.141054153E0
6.935270940E-1,9.047896385E0,-4.668551087E-1,3.138660192E0
6.959656880E-1,9.031137466E0,-4.668551087E-1,3.121901512E0
6.984050630E-1,9.071837425E0,-4.644609988E-1,3.085989952E0
7.008444380E-1,9.040713310E0,-5.027666092E-1,3.074019432E0
7.032830310E-1,9.004802704E0,-4.788255990E-1,3.069231272E0
7.057216250E-1,9.004802704E0,-5.171311498E-1,3.054866791E0
7.081610000E-1,9.043108940E0,-5.219193697E-1,3.002196550E0
7.106003750E-1,9.045502663E0,-4.788255990E-1,2.973467112E0
7.130389690E-1,9.069443703E0,-4.596728086E-1,2.963891029E0
7.154775630E-1,9.064654350E0,-3.974262178E-1,2.932767630E0
7.179169380E-1,9.069443703E0,-3.806675375E-1,2.913614750E0
7.203563650E-1,9.079019547E0,-4.022144377E-1,2.877703190E0
7.227949590E-1,9.105354309E0,-4.141849279E-1,2.875309229E0
7.252335000E-1,9.138873100E0,-4.285495281E-1,2.942343950E0
7.276728750E-1,9.138873100E0,-4.596728086E-1,2.959102631E0
7.301123020E-1,9.150842667E0,-4.070026278E-1,2.973467112E0
7.325508960E-1,9.193936348E0,-3.902439475E-1,2.949526310E0
7.349894900E-1,9.282517433E0,-3.854557574E-1,2.904038429E0
7.374288650E-1,9.368705750E0,-3.830616176E-1,2.904038429E0
7.398682400E-1,9.442922592E0,-3.663029373E-1,2.920797110E0
7.423068340E-1,9.418981552E0,-3.495442569E-1,2.939949989E0
7.447454270E-1,9.380675316E0,-3.495442569E-1,2.966284990E0
7.471848020E-1,9.363917351E0,-3.663029373E-1,2.951920509E0
7.496241770E-1,9.375887871E0,-3.902439475E-1,2.956708670E0
7.520627710E-1,9.426163673E0,-4.022144377E-1,2.942343950E0
7.545013650E-1,9.452498436E0,-4.620669186E-1,2.944738150E0
7.569407400E-1,9.514745712E0,-5.291016698E-1,2.939949989E0
7.593801150E-1,9.545868874E0,-5.698013306E-1,2.949526310E0
7.618187090E-1,9.567416191E0,-5.961364508E-1,2.939949989E0
7.642573020E-1,9.608116150E0,-5.721954107E-1,2.959102631E0
7.666966770E-1,9.598538399E0,-5.386780500E-1,2.939949989E0
7.691361040E-1,9.603327751E0,-4.429140985E-1,2.935161591E0
7.715746980E-1,9.600934029E0,-3.160268664E-1,2.908826590E0
7.740132920E-1,9.608116150E0,-1.987160444E-1,2.860944748E0
7.764526670E-1,9.622479439E0,-8.140520006E-2,2.829821348E0
7.788920420E-1,9.605721474E0,-5.848705769E-6,2.841791868E0
7.813306360E-1,9.605721474E0,2.632924914E-2,2.841791868E0
7.837692290E-1,9.579386711E0,-2.394682914E-2,2.877703190E0
7.862086040E-1,9.543475151E0,-1.053461879E-1,2.884885788E0
7.886479790E-1,9.517139435E0,-2.250511348E-1,2.913614750E0
7.910865730E-1,9.488410950E0,-2.872976959E-1,2.961496592E0
7.935251670E-1,9.476439476E0,-3.303914666E-1,2.999802351E0
7.959645420E-1,9.469257355E0,-2.825095057E-1,3.002196550E0
7.984039170E-1,9.500380516E0,-2.298393101E-1,2.949526310E0
8.008425110E-1,9.533898354E0,-1.747750491E-1,2.904038429E0
8.032811040E-1,9.550656319E0,-1.125284880E-1,2.822638988E0
8.057204790E-1,9.550656319E0,-3.352322429E-2,2.769968987E0
8.081599060E-1,9.545868874E0,5.027022958E-2,2.695751667E0
8.105985000E-1,9.507563591E0,1.220932007E-1,2.616746426E0
8.130370420E-1,9.452498436E0,1.747633815E-1,2.556894302E0
8.154764170E-1,9.435740471E0,1.771574616E-1,2.513800144E0
8.179158440E-1,9.385464668E0,2.034925520E-1,2.489859343E0
8.203544380E-1,9.349553108E0,2.585568130E-1,2.470706463E0
8.227930310E-1,9.280123711E0,2.920742035E-1,2.451553583E0
8.252324060E-1,9.237030983E0,3.040446937E-1,2.463524103E0
8.276717810E-1,9.201118469E0,2.681332231E-1,2.475494623E0
8.301103750E-1,9.160418510E0,2.537686229E-1,2.470706463E0
8.325489690E-1,9.110142708E0,2.992565036E-1,2.525770664E0
8.349883440E-1,9.100566864E0,3.231974840E-1,2.506618023E0
8.374277190E-1,9.110142708E0,3.231974840E-1,2.547317743E0
8.398663130E-1,9.126901627E0,2.968623936E-1,2.554499865E0
8.423049060E-1,9.136477470E0,2.417981327E-1,2.568864584E0
8.447442810E-1,9.155631065E0,1.627928764E-1,2.585623264E0
8.471836560E-1,9.158024788E0,5.505843461E-2,2.635899544E0
8.496222500E-1,9.191542625E0,-1.197633147E-2,2.693357706E0
8.520608440E-1,9.225059509E0,-1.915863156E-2,2.769968987E0
8.545002190E-1,9.263365746E0,3.590563685E-2,2.810668468E0
8.569396460E-1,9.335188866E0,7.660530508E-2,2.894461870E0
8.593782400E-1,9.416587830E0,1.101226956E-1,2.939949989E0
8.618168340E-1,9.543475151E0,1.556105763E-1,2.951920509E0
8.642562090E-1,9.620085716E0,1.699751765E-1,2.947132111E0
8.666955840E-1,9.694302559E0,1.556105763E-1,2.942343950E0
8.691341770E-1,9.763731956E0,1.340636909E-1,2.961496592E0
8.715727710E-1,9.794856071E0,1.364577860E-1,2.939949989E0
8.740121460E-1,9.821190834E0,1.125167906E-1,2.925585270E0
8.764515210E-1,9.873860359E0,9.575811028E-2,2.913614750E0
8.788901150E-1,9.888224602E0,5.266433954E-2,2.894461870E0
8.813287090E-1,9.876255035E0,5.505843461E-2,2.882491350E0
8.837680840E-1,9.878648758E0,-2.399936318E-3,2.853762388E0
8.862074590E-1,9.885830879E0,-2.394682914E-2,2.827427149E0
8.886460520E-1,9.878648758E0,-4.788781703E-2,2.801092148E0
8.910846460E-1,9.859496117E0,-6.225240976E-2,2.748421907E0
8.935240210E-1,9.857101440E0,-9.098159522E-2,2.683781147E0
8.959633960E-1,9.845131874E0,-8.858749270E-2,2.652657986E0
8.984019900E-1,9.816401482E0,-1.244989783E-1,2.585623264E0
9.008405840E-1,9.818797112E0,-1.173166782E-1,2.528164864E0
9.032799590E-1,9.790066719E0,-1.125284880E-1,2.499435663E0
9.057193860E-1,9.766125679E0,-1.388635635E-1,2.451553583E0
9.081579790E-1,9.761338234E0,-9.576979280E-2,2.389307261E0
9.105965210E-1,9.727820396E0,-5.507011339E-2,2.377336740E0
9.130358960E-1,9.713456154E0,-4.549372196E-2,2.331848621E0
9.154753230E-1,9.701485634E0,-1.197633147E-2,2.303119659E0
9.179139170E-1,9.727820396E0,-4.794038832E-3,2.295937538E0
9.203525110E-1,9.725426674E0,-5.848705769E-6,2.255237579E0
9.227918860E-1,9.711061478E0,1.914694905E-2,2.221720219E0
9.252312610E-1,9.711061478E0,5.505843461E-2,2.238478899E0
9.276698540E-1,9.679938316E0,5.745252967E-2,2.197779179E0
9.301084480E-1,9.632057190E0,6.463482976E-2,2.200173378E0
9.325478230E-1,9.598538399E0,8.618171513E-2,2.209749699E0
9.349871980E-1,9.555445671E0,9.575811028E-2,2.178626537E0
9.374257920E-1,9.495593071E0,1.173049957E-1,2.188202858E0
9.398643860E-1,9.435740471E0,1.316695958E-1,2.204961538E0
9.423037610E-1,9.390253067E0,1.220932007E-1,2.185808659E0
9.447431360E-1,9.368705750E0,1.220932007E-1,2.166656017E0
9.471817290E-1,9.342370987E0,9.815220535E-2,2.166656017E0
9.496203230E-1,9.332795143E0,1.077286005E-1,2.142714977E0
9.520596980E-1,9.318429947E0,1.077286005E-1,2.113985777E0
9.544990730E-1,9.299276352E0,1.101226956E-1,2.125956297E0
9.569376670E-1,9.270547867E0,9.575811028E-2,2.102015495E0
9.593762610E-1,9.263365746E0,1.149109006E-1,2.099621296E0
9.618156360E-1,9.215483665E0,1.053344905E-1,2.123562098E0
9.642550630E-1,9.227454185E0,1.412459761E-1,2.133138657E0
9.666936560E-1,9.205906868E0,1.125167906E-1,2.123562098E0
9.691322500E-1,9.201118469E0,1.244872957E-1,2.140321016E0
9.715716250E-1,9.196331024E0,1.292755008E-1,2.154685497E0
9.740110000E-1,9.160418510E0,1.603987813E-1,2.183414698E0
9.764495940E-1,9.148448944E0,1.723692566E-1,2.192991257E0
9.788881880E-1,9.141266823E0,1.819456816E-1,2.226508379E0
9.813275630E-1,9.112536430E0,1.460341811E-1,2.262419939E0
9.837669380E-1,9.098173141E0,1.484282762E-1,2.262419939E0
9.862055310E-1,9.083807945E0,1.077286005E-1,2.291149139E0
9.886441250E-1,9.062260628E0,9.336401522E-2,2.336637020E0
9.910835000E-1,9.028743744E0,8.378760517E-2,2.367760181E0
9.935228750E-1,9.016773224E0,6.463482976E-2,2.396489382E0
9.959614690E-1,9.007196426E0,5.984662473E-2,2.441977501E0
9.984000630E-1,9.009591103E0,4.069383442E-2,2.468312502E0
1.000839438E0,9.004802704E0,1.675284654E-2,2.489859343E0
1.003278813E0,9.011984825E0,-4.794038832E-3,2.552105904E0
1.005717406E0,9.035925865E0,-3.352322429E-2,2.566470385E0
1.008156000E0,9.071837425E0,-6.943470240E-2,2.619140625E0
1.010595375E0,9.083807945E0,-8.379930258E-2,2.647869825E0
1.013034802E0,9.153236389E0,-1.508340687E-1,2.676599026E0
1.015473396E0,9.201118469E0,-1.915337443E-1,2.695751667E0
1.017911938E0,9.265759468E0,-2.250511348E-1,2.748421907E0
1.020351313E0,9.335188866E0,-2.537803054E-1,2.784333467E0
1.022790740E0,9.380675316E0,-2.322334200E-1,2.813062668E0
1.025229334E0,9.435740471E0,-2.250511348E-1,2.839397669E0
1.027667927E0,9.526717186E0,-2.633566856E-1,2.856156349E0
1.030107302E0,9.591357231E0,-2.801153958E-1,2.880097389E0
1.032546677E0,9.660785675E0,-2.753272057E-1,2.904038429E0
1.034985271E0,9.701485634E0,-2.657507956E-1,2.894461870E0
1.037423865E0,9.770915031E0,-2.657507956E-1,2.930373430E0
1.039863240E0,9.792460442E0,-2.226570398E-1,2.896856308E0
1.042302615E0,9.852313995E0,-2.011101246E-1,2.939949989E0
1.044741209E0,9.890620232E0,-1.939278394E-1,2.923191309E0
1.047179802E0,9.960047722E0,-1.508340687E-1,2.894461870E0
1.049619177E0,9.998353958E0,-1.173166782E-1,2.892067909E0
1.052058552E0,9.979200363E0,-8.379930258E-2,2.851368189E0
1.054497146E0,1.001990032E1,-8.140520006E-2,2.820245028E0
1.056935740E0,9.993565559E0,-5.507011339E-2,2.760392427E0
1.059375115E0,9.998353958E0,-2.155273408E-2,2.698145866E0
1.061814490E0,9.972019196E0,3.351153433E-2,2.645475626E0
1.064253084E0,9.926530838E0,8.378760517E-2,2.599987984E0
1.066691677E0,9.919348717E0,1.364577860E-1,2.532953262E0
1.069131052E0,9.907378197E0,1.867338717E-1,2.463524103E0
1.071570479E0,9.883437157E0,2.154630721E-1,2.406065941E0
1.074009073E0,9.845131874E0,2.250394225E-1,2.367760181E0
1.076447615E0,9.780490875E0,2.633450329E-1,2.312695980E0
1.078886990E0,9.718243599E0,2.920742035E-1,2.303119659E0
1.081326417E0,9.658391953E0,3.064388037E-1,2.288754940E0
1.083765011E0,9.596144676E0,2.992565036E-1,2.262419939E0
1.086203604E0,9.538686752E0,3.112269938E-1,2.300725460E0
1.088642979E0,9.428557396E0,2.848919034E-1,2.329454660E0
1.091082354E0,9.344764709E0,2.753155231E-1,2.365366220E0
1.093520948E0,9.275335312E0,2.585568130E-1,2.410853863E0
1.095959542E0,9.249000549E0,2.465863526E-1,2.487465143E0
1.098398917E0,9.181965828E0,2.417981327E-1,2.487465143E0
1.100838292E0,9.124507904E0,2.346158326E-1,2.549711704E0
1.103276886E0,9.112536430E0,2.250394225E-1,2.604775906E0
1.105715479E0,9.095778465E0,2.154630721E-1,2.640687466E0
1.108154854E0,9.107748985E0,1.771574616E-1,2.676599026E0
1.110594229E0,9.119719505E0,1.484282762E-1,2.695751667E0
1.113032823E0,9.129295349E0,7.899941504E-2,2.712510347E0
1.115471417E0,9.146055222E0,2.872334421E-2,2.748421907E0
1.117910792E0,9.150842667E0,-1.676453277E-2,2.767574787E0
1.120350167E0,9.193936348E0,-7.422290742E-2,2.808274508E0
1.122788761E0,9.244213104E0,-9.337569773E-2,2.808274508E0
1.125227354E0,9.258576393E0,-1.436517686E-1,2.851368189E0
1.127666729E0,9.313641548E0,-1.891396344E-1,2.868126869E0
1.130106104E0,9.363917351E0,-2.298393101E-1,2.870520830E0
1.132544698E0,9.418981552E0,-2.442039102E-1,2.868126869E0
1.134983292E0,9.440528870E0,-2.849035859E-1,2.894461870E0
1.137422667E0,9.512351990E0,-3.184209764E-1,2.863338709E0
1.139862094E0,9.548262596E0,-3.543324769E-1,2.896856308E0
1.142300688E0,9.586568832E0,-3.854557574E-1,2.894461870E0
1.144739229E0,9.593750954E0,-4.070026278E-1,2.896856308E0
1.147178604E0,9.605721474E0,-4.500963986E-1,2.894461870E0
1.149618031E0,9.629662514E0,-5.003724694E-1,2.906432390E0
1.152056625E0,9.605721474E0,-5.003724694E-1,2.894461870E0
1.154495219E0,9.603327751E0,-4.285495281E-1,2.853762388E0
1.156934594E0,9.584175110E0,-2.992681861E-1,2.853762388E0
1.159373969E0,9.579386711E0,-2.370216101E-1,2.834609509E0
1.161812563E0,9.586568832E0,-1.651986539E-1,2.791515589E0
1.164251156E0,9.574597359E0,-1.197107807E-1,2.774757147E0
1.166690531E0,9.579386711E0,-5.267601460E-2,2.738845587E0
1.169129906E0,9.521927834E0,-9.582236409E-3,2.738845587E0
1.171568500E0,9.524321556E0,9.570553899E-3,2.705328226E0
1.174007094E0,9.529110909E0,4.069383442E-2,2.669416666E0
1.176446469E0,9.514745712E0,5.505843461E-2,2.631111145E0
1.178885844E0,9.517139435E0,7.181712985E-2,2.590411425E0
1.181324438E0,9.526717186E0,1.029404104E-1,2.523376703E0
1.183763031E0,9.524321556E0,1.580046713E-1,2.485071182E0
1.186202406E0,9.548262596E0,1.819456816E-1,2.441977501E0
1.188641781E0,9.536293030E0,2.058866620E-1,2.382124901E0
1.191080375E0,9.541080475E0,2.322217524E-1,2.341425180E0
1.193518969E0,9.529110909E0,2.801037133E-1,2.305513620E0
1.195958344E0,9.533898354E0,2.872859836E-1,2.279178619E0
1.198397719E0,9.529110909E0,3.016505837E-1,2.243267298E0
1.200836313E0,9.562627792E0,3.088329136E-1,2.255237579E0
1.203274906E0,9.555445671E0,3.255915940E-1,2.252843380E0
1.205714281E0,9.557839394E0,3.447443843E-1,2.221720219E0
1.208153709E0,9.574597359E0,3.351680040E-1,2.245661259E0
1.210592302E0,9.610509872E0,3.423502743E-1,2.274390459E0
1.213030896E0,9.598538399E0,3.327738643E-1,2.255237579E0
1.215470271E0,9.622479439E0,2.896800935E-1,2.271996498E0
1.217909646E0,9.651209831E0,3.184092641E-1,2.293543100E0
1.220348240E0,9.653603554E0,3.279856741E-1,2.300725460E0
1.222786834E0,9.665574074E0,3.208034039E-1,2.315090179E0
1.225226209E0,9.648816109E0,2.801037133E-1,2.315090179E0
1.227665584E0,9.634450912E0,2.705273032E-1,2.334243059E0
1.230104177E0,9.617691994E0,2.681332231E-1,2.343819141E0
1.232542771E0,9.620085716E0,2.609509230E-1,2.339031219E0
1.234982146E0,9.620085716E0,2.657391131E-1,2.317484140E0
1.237421521E0,9.646420479E0,2.609509230E-1,2.317484140E0
1.239860115E0,9.708667755E0,2.130689323E-1,2.291149139E0
1.242298709E0,9.715849876E0,1.747633815E-1,2.231296778E0
1.244738084E0,9.713456154E0,8.378760517E-2,2.200173378E0
1.247177459E0,9.703879356E0,2.388253808E-3,2.185808659E0
1.249616052E0,9.667967796E0,-8.858749270E-2,2.200173378E0
1.252054646E0,9.622479439E0,-1.891396344E-1,2.257631779E0
1.254494021E0,9.562627792E0,-2.561744153E-1,2.315090179E0
1.256933396E0,9.517139435E0,-3.232091665E-1,2.391701221E0
1.259371990E0,9.474045753E0,-3.758793473E-1,2.451553583E0
1.261810584E0,9.457287788E0,-3.878498375E-1,2.518588543E0
1.264249959E0,9.418981552E0,-3.830616176E-1,2.583229303E0
1.266689334E0,9.409405708E0,-4.141849279E-1,2.645475626E0
1.269127927E0,9.421376228E0,-4.141849279E-1,2.683781147E0
1.271566521E0,9.416587830E0,-4.357318282E-1,2.729269266E0
1.274005896E0,9.411799431E0,-4.309436381E-1,2.743633747E0
1.276445323E0,9.418981552E0,-4.477023184E-1,2.760392427E0
1.278883917E0,9.433346748E0,-4.548845887E-1,2.796303988E0
1.281322459E0,9.416587830E0,-4.548845887E-1,2.837003708E0
1.283761834E0,9.418981552E0,-4.764314890E-1,2.844185829E0
1.286201261E0,9.433346748E0,-4.429140985E-1,2.832215548E0
1.288639854E0,9.418981552E0,-4.429140985E-1,2.803486109E0
1.291078396E0,9.445316315E0,-4.213672280E-1,2.791515589E0
1.293517771E0,9.466863632E0,-4.070026278E-1,2.762786627E0
1.295957198E0,9.488410950E0,-4.046085477E-1,2.717298746E0
1.298395792E0,9.514745712E0,-3.974262178E-1,2.683781147E0
1.300834386E0,9.524321556E0,-3.902439475E-1,2.611958504E0
1.303273761E0,9.526717186E0,-3.495442569E-1,2.585623264E0
1.305713136E0,9.531504631E0,-3.447560668E-1,2.520982742E0
1.308151729E0,9.536293030E0,-3.208150864E-1,2.473100662E0
1.310590323E0,9.545868874E0,-3.208150864E-1,2.444371462E0
1.313029698E0,9.536293030E0,-3.423619568E-1,2.408459902E0
1.315469073E0,9.519534111E0,-3.184209764E-1,2.365366220E0
1.317907667E0,9.519534111E0,-3.040563762E-1,2.353395700E0
1.320346261E0,9.521927834E0,-2.944799662E-1,2.341425180E0
1.322785636E0,9.521927834E0,-2.609626055E-1,2.365366220E0
1.325225011E0,9.495593071E0,-2.370216101E-1,2.386913300E0
1.327663604E0,9.497986794E0,-1.891396344E-1,2.394095421E0
1.330102198E0,9.457287788E0,-1.651986539E-1,2.406065941E0
1.332541573E0,9.442922592E0,-1.628045589E-1,2.422824383E0
1.334980948E0,9.421376228E0,-1.508340687E-1,2.427612782E0
1.337419542E0,9.426163673E0,-1.221048757E-1,2.441977501E0
1.339858136E0,9.392646790E0,-1.532281637E-1,2.444371462E0
1.342297511E0,9.383070946E0,-1.699868441E-1,2.465918541E0
1.344736886E0,9.359129906E0,-1.436517686E-1,2.470706463E0
1.347175479E0,9.330399513E0,-1.508340687E-1,2.463524103E0
1.349614073E0,9.294488907E0,-1.508340687E-1,2.465918541E0
1.352053448E0,9.249000549E0,-1.843514442E-1,2.451553583E0
1.354492875E0,9.215483665E0,-2.154747397E-1,2.468312502E0
1.356931469E0,9.191542625E0,-2.585684955E-1,2.468312502E0
1.359370011E0,9.179572105E0,-2.944799662E-1,2.473100662E0
1.361809386E0,9.134083748E0,-2.274452150E-1,2.494647503E0
1.364248813E0,9.114932060E0,-1.891396344E-1,2.480283022E0
1.366687406E0,9.062260628E0,-1.819573492E-1,2.492253542E0
1.369125948E0,9.016773224E0,-1.915337443E-1,2.497041702E0
1.371565323E0,9.002408981E0,-2.058983445E-1,2.485071182E0
1.374004750E0,8.992832184E0,-2.418098152E-1,2.499435663E0
1.376443344E0,8.988043785E0,-2.609626055E-1,2.544923782E0
1.378881886E0,8.968891144E0,-2.681449056E-1,2.611958504E0
1.381321261E0,8.956920624E0,-3.112386763E-1,2.686175346E0
1.383760688E0,8.952133179E0,-3.399678767E-1,2.743633747E0
1.386199281E0,8.966496468E0,-3.878498375E-1,2.801092148E0
1.388637875E0,8.983255386E0,-3.830616176E-1,2.851368189E0
1.391077250E0,9.014378548E0,-3.974262178E-1,2.916008949E0
1.393516625E0,9.079019547E0,-3.974262178E-1,2.947132111E0
1.395955219E0,9.110142708E0,-4.141849279E-1,2.975861549E0
1.398393813E0,9.179572105E0,-4.453082085E-1,2.995014191E0
1.400833188E0,9.249000549E0,-4.357318282E-1,2.992619991E0
1.403272563E0,9.344764709E0,-4.524905086E-1,2.983043671E0
1.405711156E0,9.397435188E0,-4.213672280E-1,2.956708670E0
1.408149750E0,9.462076187E0,-3.567265570E-1,2.949526310E0
1.410589125E0,9.521927834E0,-3.064504862E-1,2.959102631E0
1.413028500E0,9.603327751E0,-2.513862252E-1,2.918402910E0
1.415467094E0,9.646420479E0,-1.819573492E-1,2.872915268E0
1.417905688E0,9.682332993E0,-1.244989783E-1,2.856156349E0
1.420345063E0,9.715849876E0,-6.464651227E-2,2.805880547E0
1.422784438E0,9.703879356E0,2.388253808E-3,2.781939507E0
1.425223031E0,9.711061478E0,3.111743927E-2,2.746027946E0
1.427661625E0,9.720639229E0,7.660530508E-2,2.714904785E0
1.430101000E0,9.703879356E0,1.101226956E-1,2.667022705E0
1.432540375E0,9.696698189E0,1.532164812E-1,2.655052185E0
1.434978969E0,9.703879356E0,1.915220618E-1,2.602381945E0
1.437417563E0,9.727820396E0,2.178571522E-1,2.528164864E0
1.439856938E0,9.737397194E0,2.489804327E-1,2.501829624E0
1.442296313E0,9.725426674E0,2.609509230E-1,2.470706463E0
1.444734906E0,9.713456154E0,2.489804327E-1,2.425218582E0
1.447173500E0,9.711061478E0,2.872859836E-1,2.370154381E0
1.449612875E0,9.720639229E0,2.729214132E-1,2.346213341E0
1.452052250E0,9.730215073E0,2.944683135E-1,2.331848621E0
1.454490844E0,9.732608795E0,2.848919034E-1,2.317484140E0
1.456929438E0,9.715849876E0,3.112269938E-1,2.310302019E0
1.459368813E0,9.742184639E0,2.920742035E-1,2.303119659E0
1.461808188E0,9.749367714E0,2.681332231E-1,2.315090179E0
1.464246781E0,9.725426674E0,2.729214132E-1,2.331848621E0
1.466685375E0,9.725426674E0,2.561627030E-1,2.360578060E0
1.469124750E0,9.711061478E0,2.441922128E-1,2.408459902E0
1.471564125E0,9.677544594E0,2.465863526E-1,2.410853863E0
1.474002719E0,9.694302559E0,2.298276126E-1,2.453948021E0
1.476441313E0,9.679938316E0,1.939161420E-1,2.487465143E0
1.478880688E0,9.655998230E0,1.843397617E-1,2.537741184E0
1.481320115E0,9.639238358E0,1.340636909E-1,2.568864584E0
1.483758709E0,9.622479439E0,1.029404104E-1,2.602381945E0
1.486197250E0,9.596144676E0,8.378760517E-2,2.626322985E0
1.488636625E0,9.579386711E0,7.660530508E-2,2.659840345E0
1.491076052E0,9.560234070E0,3.829973936E-2,2.647869825E0
1.493514646E0,9.560234070E0,3.829973936E-2,2.628716946E0
1.495953240E0,9.593750954E0,1.675284654E-2,2.609564304E0
1.498392615E0,9.605721474E0,-5.746421218E-2,2.542529345E0
1.500831990E0,9.617691994E0,-9.098159522E-2,2.532953262E0
1.503270584E0,9.600934029E0,-1.723809540E-1,2.518588543E0
1.505709177E0,9.565021515E0,-2.035042346E-1,2.494647503E0
1.508148552E0,9.524321556E0,-2.801153958E-1,2.470706463E0
1.510587927E0,9.478835106E0,-3.399678767E-1,2.451553583E0
1.513026521E0,9.438135147E0,-3.639088571E-1,2.463524103E0
1.515465115E0,9.414194107E0,-3.878498375E-1,2.451553583E0
1.517904490E0,9.430953026E0,-3.830616176E-1,2.422824383E0
1.520343865E0,9.426163673E0,-3.902439475E-1,2.408459902E0
1.522782459E0,9.457287788E0,-3.806675375E-1,2.401277781E0
1.525221052E0,9.466863632E0,-4.022144377E-1,2.403671741E0
1.527660427E0,9.476439476E0,-4.333377182E-1,2.408459902E0
1.530099802E0,9.483622551E0,-4.117908180E-1,2.422824383E0
1.532538396E0,9.493198395E0,-4.405199885E-1,2.437189102E0
1.534976990E0,9.502776146E0,-4.237613082E-1,2.446765423E0
1.537416365E0,9.509957314E0,-4.237613082E-1,2.463524103E0
1.539855740E0,9.533898354E0,-4.333377182E-1,2.473100662E0
1.542294334E0,9.557839394E0,-4.141849279E-1,2.487465143E0
1.544732927E0,9.545868874E0,-4.237613082E-1,2.480283022E0
1.547172302E0,9.567416191E0,-4.165790379E-1,2.480283022E0
1.549611677E0,9.572203636E0,-4.022144377E-1,2.482676983E0
1.552050271E0,9.567416191E0,-3.902439475E-1,2.485071182E0
1.554488865E0,9.562627792E0,-3.902439475E-1,2.473100662E0
1.556928240E0,9.550656319E0,-4.117908180E-1,2.461130142E0
1.559367615E0,9.543475151E0,-4.477023184E-1,2.473100662E0
1.561806209E0,9.529110909E0,-4.931901991E-1,2.477888823E0
1.564244802E0,9.488410950E0,-5.123429298E-1,2.468312502E0
1.566684177E0,9.433346748E0,-5.243134499E-1,2.482676983E0
1.569123552E0,9.368705750E0,-5.147370696E-1,2.532953262E0
1.571562146E0,9.323217392E0,-5.314957500E-1,2.535347223E0
1.574000740E0,9.311247826E0,-5.362839699E-1,2.561682224E0
1.576440115E0,9.289700508E0,-5.362839699E-1,2.588017464E0
1.578879490E0,9.292095184E0,-5.003724694E-1,2.614352465E0
1.581318084E0,9.282517433E0,-4.931901991E-1,2.667022705E0
1.583756677E0,9.268154144E0,-4.500963986E-1,2.698145866E0
1.586196052E0,9.289700508E0,-3.950321376E-1,2.755604267E0
1.588635427E0,9.311247826E0,-3.591206670E-1,2.820245028E0
1.591074021E0,9.328005791E0,-3.279973865E-1,2.832215548E0
1.593512615E0,9.344764709E0,-3.519383371E-1,2.889673710E0
1.595951990E0,9.378281593E0,-3.160268664E-1,2.944738150E0
1.598391365E0,9.380675316E0,-2.872976959E-1,2.975861549E0
1.600829959E0,9.407011986E0,-2.777212858E-1,3.018955231E0
1.603268552E0,9.474045753E0,-2.681449056E-1,3.021349192E0
1.605707927E0,9.526717186E0,-2.394157201E-1,3.011772871E0
1.608147354E0,9.550656319E0,-2.058983445E-1,2.997408152E0
1.610585948E0,9.584175110E0,-1.987160444E-1,2.973467112E0
1.613024490E0,9.639238358E0,-1.867455393E-1,2.918402910E0
1.615463865E0,9.648816109E0,-1.915337443E-1,2.882491350E0
1.617903292E0,9.627268791E0,-1.747750491E-1,2.865732908E0
1.620341886E0,9.608116150E0,-1.723809540E-1,2.825033188E0
1.622780427E0,9.605721474E0,-1.963219345E-1,2.774757147E0
1.625219802E0,9.596144676E0,-2.274452150E-1,2.743633747E0
1.627659229E0,9.557839394E0,-2.226570398E-1,2.695751667E0
1.630097823E0,9.533898354E0,-2.442039102E-1,2.695751667E0
1.632536417E0,9.512351990E0,-2.322334200E-1,2.643081665E0
1.634975792E0,9.493198395E0,-2.250511348E-1,2.628716946E0
1.637415167E0,9.409405708E0,-2.442039102E-1,2.607170105E0
1.639853761E0,9.387858391E0,-2.609626055E-1,2.631111145E0
1.642292302E0,9.320823669E0,-2.513862252E-1,2.609564304E0
1.644731677E0,9.263365746E0,-2.298393101E-1,2.626322985E0
1.647171104E0,9.232241631E0,-2.418098152E-1,2.635899544E0
1.649609698E0,9.201118469E0,-2.298393101E-1,2.659840345E0
1.652048292E0,9.160418510E0,-2.226570398E-1,2.724480867E0
1.654487667E0,9.138873100E0,-1.891396344E-1,2.726875305E0
1.656927042E0,9.112536430E0,-1.723809540E-1,2.743633747E0
1.659365636E0,9.117325783E0,-1.795632541E-1,2.762786627E0
1.661804229E0,9.122114182E0,-1.843514442E-1,2.769968987E0
1.664243604E0,9.148448944E0,-2.154747397E-1,2.757998466E0
1.666682979E0,9.158024788E0,-3.040563762E-1,2.769968987E0
1.669121573E0,9.143660545E0,-3.016622663E-1,2.791515589E0
1.671560167E0,9.153236389E0,-2.944799662E-1,2.789121628E0
1.673999542E0,9.165207863E0,-3.710911572E-1,2.789121628E0
1.676438917E0,9.169995308E0,-4.046085477E-1,2.774757147E0
1.678877511E0,9.179572105E0,-4.644609988E-1,2.765180588E0
1.681316104E0,9.186754227E0,-4.931901991E-1,2.769968987E0
1.683755479E0,9.179572105E0,-5.003724694E-1,2.760392427E0
1.686194854E0,9.217877388E0,-5.195252895E-1,2.772362947E0
1.688633448E0,9.227454185E0,-5.243134499E-1,2.772362947E0
1.691072042E0,9.237030983E0,-5.530426502E-1,2.829821348E0
1.693511417E0,9.275335312E0,-5.554367304E-1,2.827427149E0
1.695950792E0,9.299276352E0,-5.482544899E-1,2.858550549E0
1.698389386E0,9.344764709E0,-5.602249503E-1,2.880097389E0
1.700827979E0,9.375887871E0,-5.745894909E-1,2.925585270E0
1.703267354E0,9.378281593E0,-5.889541507E-1,2.935161591E0
1.705706729E0,9.416587830E0,-6.009246111E-1,2.966284990E0
1.708145323E0,9.397435188E0,-6.272596717E-1,2.968679190E0
1.710583917E0,9.409405708E0,-6.152892113E-1,2.971073151E0
1.713023292E0,9.404616356E0,-6.200774312E-1,2.980649471E0
1.715462667E0,9.397435188E0,-6.248656511E-1,2.992619991E0
1.717901261E0,9.363917351E0,-6.440183520E-1,2.956708670E0
1.720339854E0,9.359129906E0,-6.272596717E-1,2.937555790E0
1.722779229E0,9.296882629E0,-6.033187509E-1,2.920797110E0
1.725218604E0,9.249000549E0,-5.626190305E-1,2.880097389E0
1.727657198E0,9.217877388E0,-6.033187509E-1,2.860944748E0
1.730095792E0,9.196331024E0,-6.248656511E-1,2.820245028E0
1.732535167E0,9.172389984E0,-6.320479512E-1,2.789121628E0
1.734974542E0,9.129295349E0,-6.176832914E-1,2.755604267E0
1.737413136E0,9.105354309E0,-5.937423706E-1,2.765180588E0
1.739851729E0,9.069443703E0,-5.841659307E-1,2.755604267E0
1.742291104E0,9.062260628E0,-5.721954107E-1,2.746027946E0
1.744730479E0,9.064654350E0,-6.009246111E-1,2.743633747E0
1.747169073E0,9.069443703E0,-6.440183520E-1,2.746027946E0
1.749607667E0,9.050291061E0,-6.535947919E-1,2.743633747E0
1.752047042E0,9.074232101E0,-7.014767528E-1,2.717298746E0
1.754486417E0,9.040713310E0,-7.709056139E-1,2.681387186E0
1.756925011E0,9.071837425E0,-8.068171144E-1,2.683781147E0
1.759363604E0,9.009591103E0,-8.427286148E-1,2.714904785E0
1.761802979E0,9.011984825E0,-8.475168347E-1,2.702934265E0
1.764242354E0,9.040713310E0,-8.594872952E-1,2.738845587E0
1.766680948E0,9.050291061E0,-8.666695356E-1,2.810668468E0
1.769119542E0,9.079019547E0,-8.068171144E-1,2.832215548E0
1.771558917E0,9.129295349E0,-7.972407341E-1,2.880097389E0
1.773998292E0,9.169995308E0,-8.020289540E-1,2.918402910E0
1.776436886E0,9.220272064E0,-7.996348143E-1,2.963891029E0
1.778875479E0,9.246606827E0,-8.092111945E-1,2.980649471E0
1.781314854E0,9.272941589E0,-8.618813753E-1,3.030925751E0
1.783754281E0,9.299276352E0,-8.594872952E-1,3.050078392E0
1.786192875E0,9.328005791E0,-9.097633958E-1,3.074019432E0
1.788631417E0,9.316036224E0,-9.025810361E-1,3.102748632E0
1.791070792E0,9.332795143E0,-9.025810361E-1,3.102748632E0
1.793510219E0,9.359129906E0,-9.432807565E-1,3.078807592E0
1.795948813E0,9.390253067E0,-9.576452971E-1,3.062048912E0
1.798387354E0,9.426163673E0,-9.887686372E-1,3.057260752E0
1.800826729E0,9.433346748E0,-9.791922569E-1,3.057260752E0
1.803266104E0,9.430953026E0,-9.744039774E-1,3.054866791E0
1.805704698E0,9.411799431E0,-9.767981172E-1,3.054866791E0
1.808143292E0,9.380675316E0,-9.696158171E-1,3.038107872E0
1.810582667E0,9.363917351E0,-9.839804173E-1,3.035713911E0
1.813022094E0,9.344764709E0,-9.528571367E-1,3.050078392E0
1.815460688E0,9.351946831E0,-9.408866167E-1,3.064442873E0
1.817899229E0,9.328005791E0,-8.977928758E-1,3.083595753E0
1.820338604E0,9.344764709E0,-9.025810361E-1,3.107536793E0
1.822778031E0,9.351946831E0,-8.810341954E-1,3.162600994E0
1.825216625E0,9.349553108E0,-8.786400557E-1,3.200906754E0
1.827655167E0,9.359129906E0,-8.858223557E-1,3.239212275E0
1.830094542E0,9.380675316E0,-8.810341954E-1,3.294276476E0
1.832533969E0,9.373494148E0,-8.618813753E-1,3.320611715E0
1.834972563E0,9.395040512E0,-8.427286148E-1,3.361311197E0
1.837411104E0,9.395040512E0,-8.283640146E-1,3.378069878E0
1.839850479E0,9.371099472E0,-8.116053343E-1,3.375675917E0
1.842289906E0,9.366312027E0,-7.780879140E-1,3.392434359E0
1.844728500E0,9.361523628E0,-7.206295729E-1,3.370887756E0
1.847167042E0,9.339976311E0,-7.182354331E-1,3.368493557E0
1.849606417E0,9.306458473E0,-6.655653119E-1,3.351734877E0
1.852045844E0,9.294488907E0,-6.320479512E-1,3.299064636E0
1.854484438E0,9.277729988E0,-5.745894909E-1,3.244000435E0
1.856922979E0,9.241818428E0,-5.027666092E-1,3.212877274E0
1.859362354E0,9.203513145E0,-4.477023184E-1,3.155418634E0
1.861801781E0,9.138873100E0,-3.974262178E-1,3.047684431E0
1.864240375E0,9.131690025E0,-4.046085477E-1,3.006984711E0
1.866678917E0,9.141266823E0,-4.644609988E-1,2.968679190E0
1.869118292E0,9.131690025E0,-4.524905086E-1,2.925585270E0
1.871557719E0,9.095778465E0,-4.381259084E-1,2.882491350E0
1.873996313E0,9.038319588E0,-3.830616176E-1,2.865732908E0
1.876434906E0,8.995226860E0,-2.896918058E-1,2.856156349E0
1.878874281E0,8.964102745E0,-2.418098152E-1,2.793910027E0
1.881313656E0,8.942555428E0,-2.513862252E-1,2.757998466E0
1.883752250E0,8.940161705E0,-2.058983445E-1,2.702934265E0
1.886190792E0,8.930585861E0,-1.556222588E-1,2.659840345E0
1.888630167E0,8.932979584E0,-1.029520929E-1,2.633505106E0
1.891069594E0,8.925797462E0,-6.943470240E-2,2.619140625E0
1.893508188E0,8.911433220E0,-3.112912923E-2,2.645475626E0
1.895946781E0,8.928192139E0,7.176451385E-3,2.628716946E0
1.898386156E0,8.944951057E0,2.154104412E-2,2.664628506E0
1.900825531E0,9.004802704E0,4.548203945E-2,2.688569546E0
1.903264125E0,9.074232101E0,3.111743927E-2,2.748421907E0
1.905702719E0,9.119719505E0,4.069383442E-2,2.808274508E0
1.908142094E0,9.174783707E0,4.069383442E-2,2.868126869E0
1.910581469E0,9.251395226E0,6.702892482E-2,2.923191309E0
1.913020063E0,9.306458473E0,6.702892482E-2,2.961496592E0
1.915458656E0,9.387858391E0,9.815220535E-2,2.985437632E0
1.917898031E0,9.428557396E0,9.336401522E-2,3.026137352E0
1.920337406E0,9.517139435E0,1.029404104E-1,3.011772871E0
1.922776000E0,9.576992989E0,7.660530508E-2,2.951920509E0
1.925214594E0,9.624875069E0,9.815220535E-2,2.899250269E0
1.927653969E0,9.651209831E0,7.660530508E-2,2.846580029E0
1.930093344E0,9.684726715E0,6.224073470E-2,2.781939507E0
1.932531938E0,9.701485634E0,3.111743927E-2,2.729269266E0
1.934970479E0,9.699091911E0,-2.399936318E-3,2.638293505E0
1.937409854E0,9.711061478E0,-3.591732308E-2,2.599987984E0
1.939849281E0,9.713456154E0,-5.028191581E-2,2.513800144E0
1.942287875E0,9.679938316E0,-4.788781703E-2,2.456341982E0
1.944726469E0,9.655998230E0,-6.704060733E-2,2.389307261E0
1.947165844E0,9.634450912E0,-8.379930258E-2,2.353395700E0
1.949605219E0,9.600934029E0,-9.098159522E-2,2.310302019E0
1.952043813E0,9.569809914E0,-1.125284880E-1,2.291149139E0
1.954482406E0,9.541080475E0,-1.244989783E-1,2.286360979E0
1.956921781E0,9.526717186E0,-1.963219345E-1,2.236084938E0
1.959361156E0,9.509957314E0,-2.561744153E-1,2.236084938E0
1.961799750E0,9.471652031E0,-2.849035859E-1,2.240872860E0
1.964238344E0,9.433346748E0,-2.753272057E-1,2.221720219E0
1.966677719E0,9.411799431E0,-2.705389857E-1,2.192991257E0
1.969117094E0,9.383070946E0,-2.346275151E-1,2.190597057E0
1.971555688E0,9.385464668E0,-1.843514442E-1,2.171444178E0
1.973994281E0,9.356735229E0,-1.268930733E-1,2.149897099E0
1.976433656E0,9.342370987E0,-5.848705769E-6,2.147503138E0
1.978873031E0,9.356735229E0,9.336401522E-2,2.121168137E0
1.981311625E0,9.328005791E0,1.580046713E-1,2.133138657E0
1.983750219E0,9.308854103E0,2.394040227E-1,2.154685497E0
1.986189594E0,9.328005791E0,2.848919034E-1,2.137926579E0
1.988628969E0,9.318429947E0,3.471384645E-1,2.161867619E0
1.991067563E0,9.294488907E0,4.309319258E-1,2.224114418E0
1.993506156E0,9.272941589E0,4.764198065E-1,2.245661259E0
1.995945531E0,9.229847908E0,5.195135474E-1,2.267208099E0
1.998384906E0,9.208300591E0,5.602132678E-1,2.271996498E0
2.000823500E0,9.229847908E0,5.506368876E-1,2.300725460E0
2.003262094E0,9.289700508E0,5.626073480E-1,2.300725460E0
2.005701469E0,9.287306786E0,6.009129286E-1,2.293543100E0
2.008140844E0,9.306458473E0,6.057011485E-1,2.291149139E0
2.010579438E0,9.330399513E0,6.033070683E-1,2.298331499E0
2.013018031E0,9.395040512E0,6.080952287E-1,2.310302019E0
2.015457406E0,9.416587830E0,6.368244290E-1,2.305513620E0
2.017896781E0,9.409405708E0,6.679477096E-1,2.339031219E0
2.020335375E0,9.387858391E0,7.206178904E-1,2.379730701E0
2.022773969E0,9.270547867E0,7.589234114E-1,2.401277781E0
2.025213344E0,9.146055222E0,7.828644514E-1,2.473100662E0
2.027652719E0,8.983255386E0,7.852585316E-1,2.506618023E0
2.030091313E0,8.928192139E0,7.301942706E-1,2.556894302E0
2.032529906E0,8.940161705E0,6.416126490E-1,2.588017464E0
2.034969281E0,8.923403740E0,6.200657487E-1,2.619140625E0
2.037408656E0,8.818062782E0,6.631594896E-1,2.664628506E0
2.039847250E0,8.753422737E0,6.607654095E-1,2.729269266E0
2.042285844E0,8.822851181E0,6.248539090E-1,2.844185829E0
2.044725219E0,8.976074219E0,5.626073480E-1,2.899250269E0
2.047164594E0,9.181965828E0,5.290899873E-1,2.978255510E0
2.049603188E0,9.299276352E0,5.626073480E-1,3.066837311E0
2.052041781E0,9.378281593E0,5.650014281E-1,3.215271235E0
2.054481156E0,9.397435188E0,5.650014281E-1,3.402010918E0
2.056920531E0,9.426163673E0,5.889424086E-1,3.567203760E0
2.059359125E0,9.385464668E0,6.296421289E-1,3.773096085E0
2.061797719E0,9.208300591E0,6.583713293E-1,3.976594687E0
2.064237094E0,9.009591103E0,6.966768503E-1,4.163334846E0
2.066676469E0,8.758211136E0,7.038592100E-1,4.340497494E0
2.069115063E0,8.638505936E0,6.416126490E-1,4.520055294E0
2.071553656E0,8.502041817E0,6.080952287E-1,4.637366295E0
2.073993031E0,8.418249130E0,5.362722278E-1,4.718765736E0
2.076432406E0,8.415854454E0,4.859961867E-1,4.812135220E0
2.078871000E0,8.497253418E0,3.686853647E-1,4.819317818E0
2.081309594E0,8.602593422E0,3.184092641E-1,4.788194180E0
2.083748969E0,8.772574425E0,2.777096331E-1,4.752282619E0
2.086188344E0,8.961709023E0,2.729214132E-1,4.713977337E0
2.088626938E0,9.107748985E0,2.178571522E-1,4.682854176E0
2.091065531E0,9.239424706E0,1.340636909E-1,4.697218895E0
2.093504906E0,9.277729988E0,7.421121001E-2,4.670883656E0
2.095944281E0,9.289700508E0,-5.848705769E-6,4.697218895E0
2.098382875E0,9.320823669E0,-7.182880491E-2,4.754677296E0
2.100821469E0,9.404616356E0,-2.178688347E-1,4.828894138E0
2.103260844E0,9.521927834E0,-3.327855766E-1,4.881564140E0
2.105700219E0,9.665574074E0,-3.806675375E-1,4.962963581E0
2.108138813E0,9.744578362E0,-4.261554182E-1,5.039574623E0
2.110577406E0,9.778097153E0,-4.333377182E-1,5.118580341E0
2.113016781E0,9.794856071E0,-4.524905086E-1,5.199979305E0
2.115456156E0,9.742184639E0,-4.740374088E-1,5.290955067E0
2.117894750E0,9.713456154E0,-4.931901991E-1,5.341231346E0
2.120333344E0,9.689515114E0,-5.506485701E-1,5.362778187E0
2.122772719E0,9.811614037E0,-5.674072504E-1,5.360383987E0
2.125212094E0,9.876255035E0,-5.650131702E-1,5.362778187E0
2.127650688E0,9.919348717E0,-6.105009913E-1,5.346019268E0
2.130089281E0,1.000074768E1,-6.320479512E-1,5.360383987E0
2.132528656E0,1.007017708E1,-7.110531926E-1,5.365172386E0
2.134968031E0,1.012524033E1,-7.349941134E-1,5.420236111E0
2.137406625E0,1.008454132E1,-7.876642942E-1,5.456147671E0
2.139845219E0,1.009172344E1,-7.828761339E-1,5.470512867E0
2.142284594E0,1.006778240E1,-7.732997537E-1,5.489665031E0
2.144723969E0,1.002468872E1,-6.990826726E-1,5.460936069E0
2.147162563E0,9.955259323E0,-6.440183520E-1,5.377142906E0
2.149601156E0,9.861889839E0,-6.224715114E-1,5.310107708E0
2.152040531E0,9.821190834E0,-6.679593921E-1,5.202373505E0
2.154479906E0,9.802038193E0,-6.607771516E-1,5.099427223E0
2.156918500E0,9.744578362E0,-6.703535318E-1,4.977328300E0
2.159357094E0,9.622479439E0,-5.889541507E-1,4.852835178E0
2.161796469E0,9.490804672E0,-5.338898897E-1,4.776223660E0
2.164235844E0,9.385464668E0,-4.955842793E-1,4.656518459E0
2.166674438E0,9.287306786E0,-4.596728086E-1,4.584696293E0
2.169113031E0,9.263365746E0,-4.333377182E-1,4.450626373E0
2.171552406E0,9.234635353E0,-3.950321376E-1,4.354862690E0
2.173991781E0,9.196331024E0,-3.351796865E-1,4.232763767E0
2.176430375E0,9.136477470E0,-2.801153958E-1,4.127423286E0
2.178868969E0,9.062260628E0,-1.771691442E-1,4.024477005E0
2.181308344E0,8.976074219E0,-1.029520929E-1,3.935894966E0
2.183747719E0,8.892279625E0,-3.112912923E-2,3.804219484E0
2.186186313E0,8.832427979E0,4.787612706E-2,3.701273203E0
2.188624906E0,8.767786980E0,1.580046713E-1,3.569597960E0
2.191064281E0,8.674416542E0,2.298276126E-1,3.437922478E0
2.193503656E0,8.600199699E0,3.495325744E-1,3.346946716E0
2.195942250E0,8.490071297E0,4.452965260E-1,3.241606474E0
2.198380844E0,8.375154495E0,5.602132678E-1,3.150630713E0
2.200820219E0,8.274602890E0,6.272480488E-1,3.117113113E0
2.203259594E0,8.195597649E0,6.655536294E-1,3.076413393E0
2.205698188E0,8.128562927E0,6.535831094E-1,3.076413393E0
2.208136729E0,8.073498726E0,6.942828298E-1,3.085989952E0
2.210576104E0,8.049557686E0,6.942828298E-1,3.112324953E0
2.213015531E0,7.987310886E0,6.847063899E-1,3.153024673E0
2.215454125E0,7.934641361E0,6.535831094E-1,3.220059395E0
2.217892667E0,7.877182961E0,6.200657487E-1,3.287094116E0
2.220332042E0,7.817330360E0,6.200657487E-1,3.351734877E0
2.222771469E0,7.738324642E0,6.009129286E-1,3.406799078E0
2.225210063E0,7.721566200E0,5.721837282E-1,3.452286959E0
2.227648604E0,7.697625160E0,5.985188484E-1,3.459469080E0
2.230087979E0,7.664107800E0,6.320362687E-1,3.445104599E0
2.232527406E0,7.659319878E0,6.368244290E-1,3.421163797E0
2.234966000E0,7.716778278E0,6.607654095E-1,3.387646437E0
2.237404542E0,7.769448280E0,6.918886900E-1,3.325399637E0
2.239843917E0,7.826906681E0,6.799181700E-1,3.291882515E0
2.242283344E0,7.870000362E0,6.775241494E-1,3.296670675E0
2.244721938E0,8.006464005E0,6.535831094E-1,3.311035156E0
2.247160479E0,8.142927170E0,6.152775884E-1,3.346946716E0
2.249599854E0,8.260238647E0,5.817601085E-1,3.392434359E0
2.252039281E0,8.382336617E0,6.057011485E-1,3.461863518E0
2.254477875E0,8.458948135E0,6.344302893E-1,3.567203760E0
2.256916417E0,8.461342812E0,7.038592100E-1,3.643815041E0
2.259355792E0,8.482889175E0,7.158296704E-1,3.701273203E0
2.261795219E0,8.528376579E0,7.230119705E-1,3.794643164E0
2.264233813E0,8.624140739E0,7.684998512E-1,3.861677885E0
2.266672354E0,8.660052299E0,7.948349118E-1,3.940683126E0
2.269111729E0,8.669629097E0,8.522933125E-1,4.036447525E0
2.271551156E0,8.691175461E0,8.786283731E-1,4.120240688E0
2.273989750E0,8.691175461E0,8.858106732E-1,4.211216450E0
2.276428292E0,8.710329056E0,9.241162539E-1,4.292615891E0
2.278867667E0,8.703146935E0,9.097517133E-1,4.345286369E0
2.281307042E0,8.731875420E0,9.193280339E-1,4.397956371E0
2.283745636E0,8.784545898E0,8.666579127E-1,4.453020573E0
2.286184229E0,8.801304817E0,8.546874523E-1,4.498507977E0
2.288623604E0,8.827639580E0,8.403227925E-1,4.493720055E0
2.291063031E0,8.830033302E0,7.972290516E-1,4.522449017E0
2.293501625E0,8.880310059E0,7.278001904E-1,4.522449017E0
2.295940167E0,8.868338585E0,6.775241494E-1,4.505690575E0
2.298379542E0,8.865944862E0,6.296421289E-1,4.522449017E0
2.300818917E0,8.810880661E0,5.841542482E-1,4.505690575E0
2.303257511E0,8.751029015E0,5.434545875E-1,4.520055294E0
2.305696104E0,8.688781738E0,5.003607869E-1,4.517661095E0
2.308135479E0,8.614564896E0,4.812080264E-1,4.508084774E0
2.310574854E0,8.588230133E0,4.429024458E-1,4.503296852E0
2.313013448E0,8.542741776E0,4.285378456E-1,4.476961613E0
2.315452042E0,8.487677574E0,3.926263452E-1,4.443444252E0
2.317891417E0,8.446977615E0,3.638971448E-1,4.421897411E0
2.320330792E0,8.396701813E0,3.279856741E-1,4.395562172E0
2.322769386E0,8.341637611E0,3.327738643E-1,4.381197453E0
2.325207979E0,8.288967133E0,3.112269938E-1,4.359650612E0
2.327647354E0,8.190809250E0,3.184092641E-1,4.354862690E0
2.330086729E0,8.138138771E0,3.519266844E-1,4.345286369E0
2.332525323E0,8.061528206E0,3.830499649E-1,4.333315849E0
2.334963917E0,7.994493961E0,3.902322352E-1,4.335709572E0
2.337403292E0,7.937035084E0,3.902322352E-1,4.302192211E0
2.339842667E0,7.903517723E0,4.165673554E-1,4.314162731E0
2.342281261E0,7.893941402E0,4.093850255E-1,4.273463249E0
2.344719854E0,7.908306122E0,3.902322352E-1,4.237551689E0
2.347159229E0,7.915488243E0,3.806558847E-1,4.194457531E0
2.349598604E0,7.934641361E0,3.567148745E-1,4.146575928E0
2.352037198E0,7.953793526E0,3.279856741E-1,4.105875969E0
2.354475792E0,7.970552921E0,3.279856741E-1,4.093905449E0
2.356915167E0,7.970552921E0,2.968623936E-1,4.096300125E0
2.359354542E0,7.989705563E0,2.681332231E-1,4.077147007E0
2.361793136E0,7.996887684E0,2.561627030E-1,4.122634888E0
2.364231729E0,7.992099285E0,2.346158326E-1,4.156152248E0
2.366671104E0,7.999281406E0,2.489804327E-1,4.218398571E0
2.369110479E0,8.030405045E0,2.226453424E-1,4.256704807E0
2.371549073E0,8.071104050E0,2.465863526E-1,4.321345329E0
2.373987667E0,8.075892448E0,2.226453424E-1,4.318951130E0
2.376427042E0,8.135745049E0,2.178571522E-1,4.414715290E0
2.378866417E0,8.162079811E0,2.250394225E-1,4.414715290E0
2.381305011E0,8.229114532E0,2.370099425E-1,4.488932133E0
2.383743604E0,8.253055573E0,2.537686229E-1,4.510478497E0
2.386182979E0,8.322484970E0,2.585568130E-1,4.536814213E0
2.388622354E0,8.382336617E0,2.561627030E-1,4.577513695E0
2.391060948E0,8.461342812E0,2.848919034E-1,4.563148975E0
2.393499542E0,8.487677574E0,2.920742035E-1,4.577513695E0
2.395938917E0,8.528376579E0,2.681332231E-1,4.579907894E0
2.398378292E0,8.537953377E0,2.872859836E-1,4.611031055E0
2.400816886E0,8.533165932E0,2.801037133E-1,4.613425255E0
2.403255479E0,8.530770302E0,2.705273032E-1,4.651730537E0
2.405694854E0,8.502041817E0,2.848919034E-1,4.646942616E0
2.408134229E0,8.485283852E0,2.681332231E-1,4.637366295E0
2.410572823E0,8.494859695E0,2.705273032E-1,4.627789497E0
2.413011417E0,8.482889175E0,3.016505837E-1,4.603848457E0
2.415450792E0,8.485283852E0,2.896800935E-1,4.615818977E0
2.417890167E0,8.506830215E0,3.064388037E-1,4.584696293E0
2.420328761E0,8.521194458E0,3.088329136E-1,4.582301617E0
2.422767354E0,8.530770302E0,3.327738643E-1,4.577513695E0
2.425206729E0,8.535559654E0,2.968623936E-1,4.532025814E0
2.427646104E0,8.547530174E0,3.136211038E-1,4.496114254E0
2.430084698E0,8.525982857E0,2.729214132E-1,4.445837975E0
2.432523292E0,8.506830215E0,2.872859836E-1,4.378803730E0
2.434962667E0,8.497253418E0,3.303797841E-1,4.323739052E0
2.437402042E0,8.485283852E0,3.375620842E-1,4.263886452E0
2.439840636E0,8.482889175E0,3.471384645E-1,4.225581169E0
2.442279229E0,8.449371338E0,3.567148745E-1,4.165728569E0
2.444718604E0,8.446977615E0,3.686853647E-1,4.144181728E0
2.447157979E0,8.415854454E0,3.878381550E-1,4.139393806E0
2.449596573E0,8.423036575E0,4.045968354E-1,4.139393806E0
2.452035167E0,8.411066055E0,4.285378456E-1,4.136999607E0
2.454474542E0,8.377549171E0,4.500847459E-1,4.168122768E0
2.456913917E0,8.375154495E0,4.524788260E-1,4.213610649E0
2.459352511E0,8.360790253E0,4.572669864E-1,4.230369091E0
2.461791104E0,8.360790253E0,4.429024458E-1,4.287827492E0
2.464230479E0,8.353608131E0,4.213555157E-1,4.338103771E0
2.466669854E0,8.336849213E0,3.926263452E-1,4.395562172E0
2.469108448E0,8.288967133E0,3.447443843E-1,4.472173214E0
2.471547042E0,8.265026093E0,3.231974840E-1,4.508084774E0
2.473986417E0,8.231509209E0,2.896800935E-1,4.551178455E0
2.476425792E0,8.233902931E0,2.537686229E-1,4.589484215E0
2.478864386E0,8.221932411E0,2.585568130E-1,4.579907894E0
2.481302979E0,8.255449295E0,2.633450329E-1,4.565543175E0
2.483742354E0,8.272209167E0,2.633450329E-1,4.579907894E0
2.486181729E0,8.303331375E0,2.944683135E-1,4.548784733E0
2.488620323E0,8.346426010E0,3.136211038E-1,4.536814213E0
2.491058865E0,8.370367050E0,3.279856741E-1,4.512873173E0
2.493498240E0,8.425430298E0,3.327738643E-1,4.520055294E0
2.495937667E0,8.478100777E0,3.303797841E-1,4.527237892E0
2.498376261E0,8.504435539E0,3.447443843E-1,4.541602135E0
2.500814802E0,8.557106972E0,3.399561942E-1,4.567937374E0
2.503254177E0,8.602593422E0,3.184092641E-1,4.627789497E0
2.505693604E0,8.672022820E0,3.255915940E-1,4.620607853E0
2.508132198E0,8.739057541E0,3.375620842E-1,4.670883656E0
2.510570740E0,8.842003822E0,3.734735548E-1,4.687642097E0
2.513010115E0,8.930585861E0,4.093850255E-1,4.723553658E0
2.515449490E0,9.050291061E0,4.117791653E-1,4.740312099E0
2.517888084E0,9.172389984E0,3.902322352E-1,4.759465218E0
2.520326677E0,9.299276352E0,3.567148745E-1,4.785799980E0
2.522766052E0,9.418981552E0,3.375620842E-1,4.833682060E0
2.525205427E0,9.514745712E0,3.303797841E-1,4.898322582E0
2.527644021E0,9.576992989E0,3.399561942E-1,4.931839943E0
2.530082615E0,9.629662514E0,3.471384645E-1,5.008451462E0
2.532521990E0,9.689515114E0,3.638971448E-1,5.092244625E0
2.534961365E0,9.739790916E0,4.045968354E-1,5.142521381E0
2.537399959E0,9.782884598E0,4.213555157E-1,5.228708744E0
2.539838552E0,9.854707718E0,4.476906061E-1,5.267014027E0
2.542277927E0,9.926530838E0,4.859961867E-1,5.295742989E0
2.544717302E0,1.000792980E1,5.123313069E-1,5.319684029E0
2.547155896E0,1.004384136E1,5.075431466E-1,5.283772469E0
2.549594490E0,1.012284660E1,5.195135474E-1,5.252649784E0
2.552033865E0,1.019227600E1,5.314840674E-1,5.211949825E0
2.554473240E0,1.021142864E1,5.243018270E-1,5.199979305E0
2.556911834E0,1.024494553E1,5.123313069E-1,5.197585106E0
2.559350427E0,1.025452232E1,5.099371672E-1,5.223920345E0
2.561789802E0,1.023297596E1,4.955726266E-1,5.269408226E0
2.564229177E0,1.024734020E1,4.836021066E-1,5.295742989E0
2.566667771E0,1.022818661E1,4.883903265E-1,5.346019268E0
2.569106365E0,1.023536968E1,5.123313069E-1,5.434601307E0
2.571545740E0,1.021621704E1,5.482427478E-1,5.508818150E0
2.573985115E0,1.020903492E1,5.841542482E-1,5.561488152E0
2.576423709E0,1.021382236E1,6.535831094E-1,5.604582310E0
2.578862302E0,1.023058128E1,7.661057711E-1,5.635704994E0
2.581301677E0,1.023776340E1,8.451110125E-1,5.616552830E0
2.583741052E0,1.025931072E1,9.241162539E-1,5.597399712E0
2.586179646E0,1.029522133E1,1.017486095E0,5.580641270E0
2.588618240E0,1.038380337E1,1.149161458E0,5.494453907E0
2.591057615E0,1.045083904E1,1.254501820E0,5.456147671E0
2.593496990E0,1.052026653E1,1.345477581E0,5.413053989E0
2.595935584E0,1.058730221E1,1.429271102E0,5.338837147E0
2.598374177E0,1.065673065E1,1.472364902E0,5.235890865E0
2.600813552E0,1.075967693E1,1.458000302E0,5.099427223E0
2.603252927E0,1.088895893E1,1.467576742E0,4.998875141E0
2.605691521E0,1.105654621E1,1.424482822E0,4.912687778E0
2.608130115E0,1.117385578E1,1.395753741E0,4.826500416E0
2.610569490E0,1.134383678E1,1.383783221E0,4.766647816E0
2.613008865E0,1.146354198E1,1.343083501E0,4.716371059E0
2.615447459E0,1.158803558E1,1.340689540E0,4.685248375E0
2.617886052E0,1.170055771E1,1.333507180E0,4.630183697E0
2.620325427E0,1.182983971E1,1.307172179E0,4.613425255E0
2.622764802E0,1.194475555E1,1.278442860E0,4.637366295E0
2.625203396E0,1.209558392E1,1.235349178E0,4.651730537E0
2.627641990E0,1.222007751E1,1.228166819E0,4.685248375E0
2.630081365E0,1.233738804E1,1.220984459E0,4.730736256E0
2.632520740E0,1.244991112E1,1.194649339E0,4.785799980E0
2.634959334E0,1.256722164E1,1.153949738E0,4.797770500E0
2.637397927E0,1.266537952E1,1.031850696E0,4.826500416E0
2.639837302E0,1.273480892E1,9.001753330E-1,4.879170418E0
2.642276677E0,1.276353741E1,7.206178904E-1,4.931839943E0
2.644715271E0,1.276353741E1,4.955726266E-1,5.044362545E0
2.647153813E0,1.263186264E1,3.112269938E-1,5.176038265E0
2.649593188E0,1.249061108E1,1.627928764E-1,5.326866627E0
2.652032615E0,1.229668903E1,-1.197633147E-2,5.527970791E0
2.654471209E0,1.213389015E1,-1.364694685E-1,5.731469154E0
2.656909750E0,1.193996811E1,-2.705389857E-1,5.918209076E0
2.659349125E0,1.174365139E1,-4.453082085E-1,6.090584278E0
2.661788552E0,1.153297043E1,-5.650131702E-1,6.270141602E0
2.664227146E0,1.132947254E1,-7.014767528E-1,6.387452126E0
2.666665688E0,1.112118530E1,-7.996348143E-1,6.507157326E0
2.669105063E0,1.089135265E1,-8.642755151E-1,6.528704166E0
2.671544490E0,1.074052429E1,-8.906105757E-1,6.519127846E0
2.673983084E0,1.061603069E1,-8.666695356E-1,6.425757885E0
2.676421625E0,1.052026653E1,-8.044229746E-1,6.282112122E0
2.678861000E0,1.051069069E1,-7.182354331E-1,6.112131119E0
2.681300375E0,1.050350857E1,-5.769836307E-1,5.882297516E0
2.683738969E0,1.052744961E1,-4.022144377E-1,5.635704994E0
2.686177563E0,1.061842537E1,-2.394157201E-1,5.343625069E0
2.688616938E0,1.067588329E1,-1.101343855E-1,4.998875141E0
2.691056313E0,1.074291897E1,-2.399936318E-3,4.639760017E0
2.693494906E0,1.080277061E1,5.984662473E-2,4.295010090E0
2.695933500E0,1.081713581E1,1.675810814E-1,3.978988886E0
2.698372875E0,1.085783482E1,2.561627030E-1,3.610297441E0
2.700812250E0,1.083868313E1,3.231974840E-1,3.251182795E0
2.703250844E0,1.090332317E1,3.638971448E-1,2.863338709E0
2.705689438E0,1.092247581E1,4.045968354E-1,2.482676983E0
2.708128813E0,1.088177586E1,4.357201457E-1,2.142714977E0
2.710568188E0,1.080516434E1,4.069909453E-1,1.795570850E0
2.713006781E0,1.065912437E1,4.285378456E-1,1.517855167E0
2.715445375E0,1.053942013E1,3.998086452E-1,1.276051283E0
2.717884750E0,1.040774441E1,4.285378456E-1,1.031853199E0
2.720324125E0,1.026888657E1,4.381142259E-1,8.163843751E-1
2.722762719E0,1.005341816E1,4.692375064E-1,7.014676332E-1
2.725201313E0,9.818797112E0,5.027548671E-1,5.482453108E-1
2.727640688E0,9.588962555E0,5.554250479E-1,4.476931691E-1
2.730080063E0,9.416587830E0,5.554250479E-1,3.375645876E-1
2.732518656E0,9.284913063E0,5.721837282E-1,2.465888560E-1
2.734957250E0,9.172389984E0,6.320362687E-1,1.197016090E-1
2.737396625E0,9.069443703E0,6.200657487E-1,4.784874618E-3
2.739836000E0,8.899462700E0,6.057011485E-1,-1.340728402E-1
2.742274594E0,8.830033302E0,5.626073480E-1,-2.633541822E-1
2.744713188E0,8.667234421E0,5.147253871E-1,-4.046059847E-1
2.747152563E0,8.506830215E0,4.955726266E-1,-5.075522661E-1
2.749591938E0,8.320090294E0,4.429024458E-1,-5.793752074E-1
2.752030531E0,8.123774529E0,4.069909453E-1,-6.128926277E-1
2.754469125E0,7.946611881E0,3.974145651E-1,-6.248631477E-1
2.756908500E0,7.716778278E0,4.165673554E-1,-6.176807880E-1
2.759347875E0,7.498915195E0,4.285378456E-1,-6.272571683E-1
2.761786469E0,7.307387352E0,4.524788260E-1,-6.272571683E-1
2.764225063E0,7.170923710E0,4.285378456E-1,-5.985280275E-1
2.766664438E0,7.084736347E0,3.902322352E-1,-5.458578467E-1
2.769103813E0,6.979395866E0,3.423502743E-1,-5.290991664E-1
2.771542406E0,6.933907509E0,2.561627030E-1,-4.596702754E-1
2.773981000E0,6.874055386E0,1.939161420E-1,-3.710886240E-1
2.776420375E0,6.828567028E0,1.053344905E-1,-1.987135112E-1
2.778859750E0,6.795050144E0,6.224073470E-2,-6.224988773E-2
2.781298344E0,6.756744862E0,4.308793694E-2,1.675835997E-1
2.783736938E0,6.735197544E0,-7.188133895E-3,4.189639688E-1
2.786176313E0,6.699286461E0,7.176451385E-3,6.607679129E-1
2.788615688E0,6.761532784E0,3.111743927E-2,8.834191561E-1
2.791054281E0,6.826173306E0,4.548203945E-2,1.175499201E0
2.793492823E0,6.929119587E0,6.942303479E-2,1.434061766E0
2.795932198E0,7.077553749E0,8.857581019E-2,1.683048010E0
2.798371625E0,7.254717350E0,1.173049957E-1,1.908093452E0
2.800810219E0,7.503703117E0,1.460341811E-1,2.116379976E0
2.803248761E0,7.757477760E0,1.747633815E-1,2.315090179E0
2.805688136E0,8.013646126E0,1.987043321E-1,2.511406183E0
2.808127563E0,8.267419815E0,2.034925520E-1,2.707722187E0
2.810566156E0,8.506830215E0,1.771574616E-1,2.837003708E0
2.813004698E0,8.810880661E0,1.843397617E-1,3.006984711E0
2.815444073E0,9.112536430E0,1.508223712E-1,3.174571514E0
2.817883448E0,9.354340553E0,1.556105763E-1,3.337370157E0
2.820322042E0,9.593750954E0,1.268813908E-1,3.500169039E0
2.822760636E0,9.811614037E0,5.745252967E-2,3.665361643E0
2.825200011E0,9.998353958E0,-1.197633147E-2,3.818584204E0
2.827639386E0,1.016115284E1,-7.422290742E-2,3.981383085E0
2.830077979E0,1.035028553E1,-1.149225831E-1,4.132211208E0
2.832516573E0,1.049872112E1,-1.508340687E-1,4.227975368E0
2.834955948E0,1.062321377E1,-1.939278394E-1,4.268674850E0
2.837395323E0,1.066630745E1,-2.011101246E-1,4.254310131E0
2.839833917E0,1.067588329E1,-2.394157201E-1,4.194457531E0
2.842272511E0,1.064236641E1,-2.394157201E-1,4.062782288E0
2.844711886E0,1.058490753E1,-2.346275151E-1,3.914348125E0
2.847151261E0,1.043647385E1,-2.322334200E-1,3.770702124E0
2.849589854E0,1.030240440E1,-2.130806297E-1,3.643815041E0
2.852028448E0,1.024255180E1,-2.226570398E-1,3.514533758E0
2.854467823E0,1.017791080E1,-2.346275151E-1,3.402010918E0
2.856907198E0,1.015157604E1,-2.154747397E-1,3.332582235E0
2.859345792E0,1.013002872E1,-1.987160444E-1,3.289488077E0
2.861784386E0,1.008932972E1,-1.532281637E-1,3.246394396E0
2.864223761E0,1.009651184E1,-1.125284880E-1,3.232029915E0
2.866663136E0,1.007257080E1,-5.746421218E-2,3.241606474E0
2.869101729E0,1.008932972E1,-4.549372196E-2,3.263153076E0
2.871540323E0,1.003666019E1,2.393514663E-2,3.296670675E0
2.873979698E0,9.957653999E0,6.942303479E-2,3.366099358E0
2.876419073E0,9.871466637E0,1.292755008E-1,3.366099358E0
2.878857667E0,9.797249794E0,1.340636909E-1,3.387646437E0
2.881296261E0,9.706274033E0,1.484282762E-1,3.363705397E0
2.883735636E0,9.624875069E0,1.675810814E-1,3.318217516E0
2.886175011E0,9.497986794E0,2.322217524E-1,3.260759115E0
2.888613604E0,9.450104713E0,2.465863526E-1,3.160207033E0
2.891052198E0,9.272941589E0,2.370099425E-1,3.114719152E0
2.893491573E0,9.079019547E0,2.489804327E-1,3.030925751E0
2.895930948E0,8.870732307E0,2.417981327E-1,2.980649471E0
2.898369542E0,8.688781738E0,2.226453424E-1,2.968679190E0
2.900808084E0,8.614564896E0,2.034925520E-1,2.947132111E0
2.903247459E0,8.655264854E0,1.915220618E-1,2.947132111E0
2.905686886E0,8.621747017E0,2.441922128E-1,2.916008949E0
2.908125479E0,8.549923897E0,2.992565036E-1,2.913614750E0
2.910564021E0,8.585835457E0,3.208034039E-1,2.880097389E0
2.913003396E0,8.497253418E0,3.782617450E-1,2.899250269E0
2.915442823E0,8.389519691E0,4.429024458E-1,2.927979469E0
2.917881417E0,8.241085052E0,5.171195269E-1,2.954314470E0
2.920319959E0,8.130956650E0,5.626073480E-1,2.975861549E0
2.922759334E0,8.111804008E0,6.320362687E-1,2.942343950E0
2.925198709E0,8.147715569E0,6.607654095E-1,2.925585270E0
2.927637302E0,8.162079811E0,6.009129286E-1,2.834609509E0
2.930075896E0,8.073498726E0,5.506368876E-1,2.822638988E0
2.932515271E0,7.965764046E0,5.123313069E-1,2.765180588E0
2.934954646E0,7.898729801E0,3.854440749E-1,2.755604267E0
2.937393240E0,7.870000362E0,2.848919034E-1,2.741239786E0
2.939831834E0,7.831694603E0,1.532164812E-1,2.681387186E0
2.942271209E0,7.817330360E0,2.872334421E-2,2.683781147E0
2.944710584E0,7.769448280E0,-6.225240976E-2,2.686175346E0
2.947149177E0,7.757477760E0,-1.556222588E-1,2.681387186E0
2.949587771E0,7.716778278E0,-2.705389857E-1,2.693357706E0
2.952027146E0,7.697625160E0,-3.615147471E-1,2.655052185E0
2.954466521E0,7.719172001E0,-4.668551087E-1,2.681387186E0
2.956905115E0,7.764660358E0,-4.931901991E-1,2.719692707E0
2.959343709E0,7.776630878E0,-5.578308105E-1,2.765180588E0
2.961783084E0,7.800571918E0,-5.985305309E-1,2.769968987E0
2.964222459E0,7.814936161E0,-6.488066316E-1,2.808274508E0
2.966661052E0,7.810147762E0,-7.086590528E-1,2.872915268E0
2.969099646E0,7.802965641E0,-7.589351535E-1,2.937555790E0
2.971539021E0,7.779024601E0,-8.068171144E-1,2.983043671E0
2.973978396E0,7.764660358E0,-8.403344750E-1,3.045290232E0
2.976416990E0,7.764660358E0,-8.499108553E-1,3.121901512E0
2.978855584E0,7.769448280E0,-8.714578152E-1,3.145842552E0
2.981294959E0,7.800571918E0,-9.001870155E-1,3.172177553E0
2.983734334E0,7.819724083E0,-9.001870155E-1,3.217665434E0
2.986172927E0,7.858029842E0,-9.360984564E-1,3.291882515E0
2.988611521E0,7.881970882E0,-9.791922569E-1,3.361311197E0
2.991050896E0,7.886759281E0,-9.959509373E-1,3.404404879E0
2.993490271E0,7.879576683E0,-9.815863371E-1,3.437922478E0
2.995928865E0,7.889153004E0,-9.887686372E-1,3.473834038E0
2.998367459E0,7.970552921E0,-1.034256458E0,3.490592718E0
3.000806834E0,7.999281406E0,-1.046226978E0,3.469045639E0
3.003246209E0,8.025616646E0,-1.060591578E0,3.483410120E0
3.005684802E0,8.090257645E0,-1.051015139E0,3.478622198E0
3.008123344E0,8.095045090E0,-1.046226978E0,3.447498798E0
3.010562719E0,8.114197731E0,-1.096503019E0,3.416375399E0
3.013002146E0,8.135745049E0,-1.108473539E0,3.375675917E0
3.015440740E0,8.114197731E0,-1.134808660E0,3.346946716E0
3.017879281E0,8.095045090E0,-1.137202740E0,3.368493557E0
3.020318656E0,8.025616646E0,-1.115655899E0,3.402010918E0
3.022758031E0,7.941823006E0,-1.043832898E0,3.418769598E0
3.025196625E0,7.872394562E0,-1.017497778E0,3.490592718E0
3.027635219E0,7.834088802E0,-1.012709618E0,3.531292200E0
3.030074594E0,7.757477760E0,-9.863744974E-1,3.576780081E0
3.032513969E0,7.740719318E0,-9.552512765E-1,3.595932961E0
3.034952563E0,7.747901440E0,-9.313102365E-1,3.615085602E0
3.037391156E0,7.798177242E0,-8.690636754E-1,3.622267962E0
3.039830531E0,7.793389320E0,-8.211817145E-1,3.653391123E0
3.042269906E0,7.793389320E0,-7.900584340E-1,3.679726362E0
3.044708500E0,7.779024601E0,-7.230237126E-1,3.710849762E0
3.047147094E0,7.774236202E0,-6.559888721E-1,3.722820282E0
3.049586469E0,7.714384079E0,-6.320479512E-1,3.722820282E0
3.052025844E0,7.697625160E0,-6.488066316E-1,3.727608442E0
3.054464438E0,7.767054081E0,-5.961364508E-1,3.737184763E0
3.056903031E0,7.783812523E0,-5.674072504E-1,3.768307924E0
3.059342406E0,7.745507240E0,-5.075547695E-1,3.780278444E0
3.061781781E0,7.769448280E0,-5.027666092E-1,3.828160524E0
3.064220375E0,7.853241920E0,-5.051606894E-1,3.873648405E0
3.066658969E0,7.884365082E0,-4.979783893E-1,3.878436804E0
3.069098344E0,7.798177242E0,-4.596728086E-1,3.919136286E0
3.071537719E0,7.644955158E0,-4.668551087E-1,3.959835768E0
3.073976313E0,7.510885715E0,-5.051606894E-1,3.988565207E0
3.076414906E0,7.458215237E0,-5.937423706E-1,3.974200487E0
3.078854281E0,7.446244717E0,-6.152892113E-1,3.969412565E0
3.081293656E0,7.474974155E0,-5.602249503E-1,3.957442045E0
3.083732250E0,7.553979397E0,-5.410721302E-1,3.955047607E0
3.086170844E0,7.632984638E0,-5.362839699E-1,3.940683126E0
3.088610219E0,7.733536720E0,-5.171311498E-1,3.921530485E0
3.091049594E0,7.802965641E0,-5.027666092E-1,3.902377605E0
3.093488188E0,7.881970882E0,-4.788255990E-1,3.864071846E0
3.095926781E0,7.956187725E0,-4.237613082E-1,3.876042366E0
3.098366156E0,8.011251450E0,-3.974262178E-1,3.878436804E0
3.100805531E0,8.092651367E0,-3.423619568E-1,3.907165766E0
3.103244125E0,8.145320892E0,-3.040563762E-1,3.957442045E0
3.105682667E0,8.219538689E0,-2.465980202E-1,4.029264927E0
3.108122042E0,8.284179688E0,-1.532281637E-1,4.086723328E0
3.110561469E0,8.348819733E0,-7.901109755E-2,4.144181728E0
3.113000063E0,8.415854454E0,-3.352322429E-2,4.227975368E0
3.115438604E0,8.494859695E0,1.196465641E-2,4.304586411E0
3.117877979E0,8.549923897E0,3.351153433E-2,4.385985851E0
3.120317354E0,8.614564896E0,5.505843461E-2,4.484143734E0
3.122755948E0,8.681599617E0,3.351153433E-2,4.563148975E0
3.125194542E0,8.731875420E0,1.675284654E-2,4.658913136E0
3.127633917E0,8.806093216E0,3.590563685E-2,4.745100498E0
3.130073292E0,8.868338585E0,1.077286005E-1,4.833682060E0
3.132511886E0,8.956920624E0,1.532164812E-1,4.898322582E0
3.134950479E0,9.033532143E0,1.819456816E-1,4.958175182E0
3.137389854E0,9.114932060E0,2.130689323E-1,5.006057262E0
3.139829229E0,9.174783707E0,2.322217524E-1,5.080274105E0
3.142267823E0,9.237030983E0,2.441922128E-1,5.135338783E0
3.144706417E0,9.275335312E0,2.465863526E-1,5.209555626E0
3.147145792E0,9.287306786E0,2.489804327E-1,5.269408226E0
3.149585167E0,9.270547867E0,2.561627030E-1,5.293349266E0
3.152023761E0,9.272941589E0,2.657391131E-1,5.331654549E0
3.154462354E0,9.258576393E0,2.346158326E-1,5.324472904E0
3.156901729E0,9.246606827E0,2.561627030E-1,5.307713509E0
3.159341104E0,9.237030983E0,2.753155231E-1,5.286166668E0
3.161779698E0,9.179572105E0,2.968623936E-1,5.250255108E0
3.164218292E0,9.179572105E0,3.734735548E-1,5.214344025E0
3.166657667E0,9.110142708E0,3.998086452E-1,5.207161903E0
3.169097042E0,9.043108940E0,4.285378456E-1,5.159279823E0
3.171535636E0,8.983255386E0,4.716316462E-1,5.159279823E0
3.173974229E0,8.928192139E0,4.907843471E-1,5.130550861E0
3.176413604E0,8.861156464E0,4.859961867E-1,5.140126705E0
3.178852979E0,8.803698540E0,4.620552063E-1,5.116185665E0
3.181291573E0,8.746239662E0,4.788139462E-1,5.085062504E0
3.183730167E0,8.655264854E0,4.764198065E-1,5.070698261E0
3.186169542E0,8.614564896E0,4.836021066E-1,5.063515663E0
3.188608917E0,8.600199699E0,5.051490068E-1,5.037180901E0
3.191047511E0,8.559500694E0,5.434545875E-1,5.022816181E0
3.193486052E0,8.497253418E0,5.290899873E-1,5.025210381E0
3.195925427E0,8.463736534E0,5.147253871E-1,5.029998302E0
3.198364854E0,8.435007095E0,4.931784868E-1,5.034786701E0
3.200803448E0,8.411066055E0,4.668434262E-1,5.073091984E0
3.203241990E0,8.394308090E0,4.572669864E-1,5.118580341E0
3.205681365E0,8.384730339E0,4.429024458E-1,5.178432465E0
3.208120740E0,8.310514450E0,4.764198065E-1,5.195191383E0
3.210559334E0,8.269814491E0,4.931784868E-1,5.286166668E0
3.212997927E0,8.296150208E0,4.740256667E-1,5.374748707E0
3.215437302E0,8.351213455E0,4.764198065E-1,5.446571827E0
3.217876677E0,8.418249130E0,4.716316462E-1,5.535153389E0
3.220315271E0,8.454159737E0,4.740256667E-1,5.602187634E0
3.222753865E0,8.492465973E0,4.668434262E-1,5.695557594E0
3.225193240E0,8.504435539E0,4.883903265E-1,5.788927555E0
3.227632615E0,8.552317619E0,5.578191876E-1,5.867932796E0
3.230071209E0,8.602593422E0,6.464008093E-1,5.939755917E0
3.232509802E0,8.657658577E0,7.541352510E-1,6.057066917E0
3.234949177E0,8.719904900E0,9.097517133E-1,6.138466358E0
3.237388552E0,8.789333344E0,1.048609376E0,6.195924282E0
3.239827146E0,8.849186897E0,1.094097257E0,6.236624241E0
3.242265740E0,8.909038544E0,1.113250136E0,6.377875805E0
3.244705115E0,8.918614388E0,1.019880295E0,6.471245766E0
3.247144490E0,8.959314346E0,8.762342930E-1,6.600527287E0
3.249583084E0,9.045502663E0,7.301942706E-1,6.669956207E0
3.252021677E0,9.155631065E0,6.057011485E-1,6.681926727E0
3.254461052E0,9.308854103E0,4.476906061E-1,6.722626209E0
3.256900427E0,9.509957314E0,2.705273032E-1,6.665167809E0
3.259339021E0,9.711061478E0,1.005463153E-1,6.540674686E0
3.261777615E0,9.967230797E0,-7.661700249E-2,6.370693684E0
3.264216990E0,1.024734020E1,-2.489921153E-1,6.152830601E0
3.266656365E0,1.057054329E1,-3.686970770E-1,5.944544315E0
3.269094959E0,1.087698746E1,-4.596728086E-1,5.726681232E0
3.271533552E0,1.120737362E1,-5.195252895E-1,5.520788670E0
3.273972927E0,1.162155247E1,-5.769836307E-1,5.293349266E0
3.276412302E0,1.209319019E1,-6.488066316E-1,5.094639301E0
3.278850896E0,1.256482792E1,-6.966885924E-1,4.891140461E0
3.281289438E0,1.300055408E1,-7.589351535E-1,4.639760017E0
3.283728813E0,1.340994453E1,-8.762459755E-1,4.409926891E0
3.286168240E0,1.385045910E1,-9.744039774E-1,4.136999607E0
3.288606834E0,1.424548435E1,-1.101291299E0,3.852101326E0
3.291045375E0,1.459981155E1,-1.220996261E0,3.502563238E0
3.293484750E0,1.493977356E1,-1.321548343E0,3.136265993E0
3.295924125E0,1.527973557E1,-1.429282784E0,2.765180588E0
3.298362719E0,1.556942177E1,-1.458011985E0,2.365366220E0
3.300801313E0,1.579686069E1,-1.462800145E0,1.982310534E0
3.303240688E0,1.597163010E1,-1.390977263E0,1.680654049E0
3.305680063E0,1.610809326E1,-1.259301782E0,1.426879406E0
3.308118656E0,1.611767006E1,-1.034256458E0,1.232957602E0
3.310557250E0,1.610330582E1,-7.637233138E-1,1.110858440E0
3.312996625E0,1.597641850E1,-5.171311498E-1,1.060582399E0
3.315436000E0,1.578967857E1,-2.777212858E-1,1.120434761E0
3.317874594E0,1.555026913E1,-4.794038832E-3,1.237745762E0
3.320313188E0,1.523664188E1,4.045968354E-1,1.448426485E0
3.322752563E0,1.495892715E1,7.110415101E-1,1.630377769E0
3.325191938E0,1.465487576E1,8.427169323E-1,1.735718250E0
3.327630531E0,1.432927895E1,9.169340134E-1,1.776417971E0
3.330069125E0,1.394143486E1,1.010303855E0,1.774023771E0
3.332508500E0,1.343388557E1,1.072550416E0,1.704595089E0
3.334947875E0,1.285690784E1,1.127614617E0,1.601648808E0
3.337386469E0,1.236372375E1,1.185073018E0,1.462790966E0
3.339825063E0,1.188729763E1,1.266472340E0,1.285627842E0
3.342264438E0,1.142284298E1,1.383783221E0,1.118040800E0
3.344703813E0,1.101105785E1,1.570523024E0,9.313010573E-1
3.347142406E0,1.069982433E1,1.714168906E0,7.924433947E-1
3.349581000E0,1.046999073E1,1.860208869E0,6.799207330E-1
3.352020375E0,1.023536968E1,2.011037111E0,5.937331915E-1
3.354459750E0,1.001271915E1,2.111589193E0,5.266983509E-1
3.356898344E0,9.816401482E0,2.178623915E0,5.865508914E-1
3.359336886E0,9.639238358E0,2.181018114E0,6.057037115E-1
3.361776261E0,9.435740471E0,2.157077312E0,7.110440135E-1
3.364215688E0,9.179572105E0,2.087648153E0,8.475076556E-1
3.366654281E0,8.695963860E0,2.078071833E0,9.289069772E-1
3.369092823E0,8.039980888E0,1.975125551E0,1.103676319E0
3.371532198E0,7.477368355E0,1.759656787E0,1.302386284E0
3.373971625E0,7.111071110E0,1.472364902E0,1.479549646E0
3.376410219E0,6.967425346E0,1.146767497E0,1.565737247E0
3.378848761E0,6.996154308E0,8.283523321E-1,1.642348289E0
3.381288136E0,7.151770592E0,5.458486676E-1,1.666289330E0
3.383727511E0,7.333722115E0,3.160151839E-1,1.685442209E0
3.386166104E0,7.520462036E0,1.292755008E-1,1.742900610E0
3.388604698E0,7.688048840E0,-5.746421218E-2,1.855423212E0
3.391044073E0,7.905911922E0,-2.537803054E-1,1.958369493E0
3.393483448E0,8.039980888E0,-4.309436381E-1,2.094832897E0
3.395922042E0,8.202779770E0,-6.105009913E-1,2.221720219E0
3.398360636E0,8.415854454E0,-7.661174536E-1,2.305513620E0
3.400800011E0,8.521194458E0,-9.289161563E-1,2.358183861E0
3.403239386E0,8.566682816E0,-1.089320779E0,2.437189102E0
3.405677979E0,8.593017578E0,-1.254513621E0,2.485071182E0
3.408116573E0,8.609776497E0,-1.441253304E0,2.509012222E0
3.410555948E0,8.609776497E0,-1.666298628E0,2.537741184E0
3.412995323E0,8.600199699E0,-1.896131992E0,2.571258783E0
3.415433917E0,8.525982857E0,-2.104418516E0,2.607170105E0
3.417872511E0,8.444583893E0,-2.283976078E0,2.650264025E0
3.420311886E0,8.336849213E0,-2.468321800E0,2.690963745E0
3.422751261E0,8.296150208E0,-2.655061245E0,2.695751667E0
3.425189854E0,8.250661850E0,-2.817859888E0,2.695751667E0
3.427628448E0,8.255449295E0,-2.990235329E0,2.712510347E0
3.430067823E0,8.262632370E0,-3.117122412E0,2.681387186E0
3.432507198E0,8.262632370E0,-3.258374214E0,2.659840345E0
3.434945792E0,8.298543930E0,-3.342167854E0,2.628716946E0
3.437384386E0,8.329667091E0,-3.437931776E0,2.564076424E0
3.439823761E0,8.360790253E0,-3.507360458E0,2.477888823E0
3.442263136E0,8.387125969E0,-3.552848577E0,2.434794903E0
3.444701729E0,8.344031334E0,-3.550454140E0,2.362972260E0
3.447140271E0,8.305726051E0,-3.548060179E0,2.334243059E0
3.449579646E0,8.363183975E0,-3.603124619E0,2.346213341E0
3.452019073E0,8.485283852E0,-3.701282501E0,2.367760181E0
3.454457667E0,8.585835457E0,-3.773105621E0,2.418036461E0
3.456896209E0,8.602593422E0,-3.725223541E0,2.530558825E0
3.459335584E0,8.518800735E0,-3.574395180E0,2.621534586E0
3.461775011E0,8.418249130E0,-3.320620775E0,2.748421907E0
3.464213604E0,8.260238647E0,-3.040511370E0,2.896856308E0
3.466652146E0,8.135745049E0,-2.717308044E0,3.045290232E0
3.469091521E0,8.332060814E0,-2.489868402E0,3.200906754E0
3.471530896E0,8.573864937E0,-2.197788477E0,3.260759115E0
3.473969490E0,8.552317619E0,-1.939225912E0,3.378069878E0
3.476408084E0,8.521194458E0,-1.678269029E0,3.562415361E0
3.478847459E0,8.487677574E0,-1.431676865E0,3.756337404E0
3.481286834E0,8.509224892E0,-1.232966781E0,3.938288927E0
3.483725427E0,8.569076538E0,-1.039044619E0,4.060388565E0
3.486164021E0,8.707934380E0,-8.977928758E-1,4.144181728E0
3.488603396E0,8.944951057E0,-7.661174536E-1,4.196852207E0
3.491042771E0,9.059866905E0,-6.464124918E-1,4.177699089E0
3.493481365E0,9.093384743E0,-5.243134499E-1,4.187275887E0
3.495919959E0,9.098173141E0,-4.165790379E-1,4.206428051E0
3.498359334E0,9.153236389E0,-3.471501470E-1,4.192063808E0
3.500798709E0,9.241818428E0,-2.872976959E-1,4.163334846E0
3.503237302E0,9.280123711E0,-1.604104638E-1,4.055600166E0
3.505675896E0,9.339976311E0,-1.484399736E-1,3.931106806E0
3.508115271E0,9.371099472E0,-1.125284880E-1,3.864071846E0
3.510554646E0,9.268154144E0,-5.985831097E-2,3.785066605E0
3.512993240E0,9.050291061E0,1.675284654E-2,3.746761084E0
3.515431834E0,8.858762741E0,3.590563685E-2,3.741972923E0
3.517871209E0,8.904251099E0,5.984662473E-2,3.770702124E0
3.520310584E0,8.937767982E0,1.747633815E-1,3.722820282E0
3.522749177E0,8.954526901E0,2.681332231E-1,3.670150042E0
3.525187719E0,8.964102745E0,2.992565036E-1,3.562415361E0
3.527627094E0,8.971285820E0,2.705273032E-1,3.445104599E0
3.530066521E0,8.856369019E0,2.370099425E-1,3.294276476E0
3.532505115E0,8.703146935E0,1.891279519E-1,3.188936234E0
3.534943656E0,8.468524933E0,2.154630721E-1,3.141054153E0
3.537383031E0,8.344031334E0,2.417981327E-1,3.085989952E0
3.539822406E0,8.193202972E0,2.226453424E-1,3.016561031E0
3.542261000E0,8.011251450E0,1.580046713E-1,2.961496592E0
3.544699594E0,7.755083561E0,1.603987813E-1,2.865732908E0
3.547138969E0,7.491732597E0,1.603987813E-1,2.772362947E0
3.549578344E0,7.245140553E0,2.106748521E-1,2.683781147E0
3.552016938E0,7.067977428E0,1.364577860E-1,2.578440905E0
3.554455531E0,6.965031147E0,2.154104412E-2,2.465918541E0
3.556894906E0,6.921937466E0,-1.005579904E-1,2.367760181E0
3.559334281E0,6.833355904E0,-2.346275151E-1,2.307907581E0
3.561772875E0,6.744774342E0,-3.088445663E-1,2.331848621E0
3.564211469E0,6.730409145E0,-3.854557574E-1,2.367760181E0
3.566650844E0,6.747168064E0,-3.686970770E-1,2.382124901E0
3.569090219E0,6.763926506E0,-2.274452150E-1,2.434794903E0
3.571528813E0,6.811808586E0,-1.149225831E-1,2.441977501E0
3.573967406E0,6.924331188E0,-4.549372196E-2,2.518588543E0
3.576406781E0,7.029671669E0,-6.464651227E-2,2.588017464E0
3.578846156E0,7.087130070E0,-3.591732308E-2,2.681387186E0
3.581284750E0,7.151770592E0,-2.873502672E-2,2.767574787E0
3.583723344E0,7.125435829E0,-1.915863156E-2,2.832215548E0
3.586162719E0,7.276263714E0,-8.619339764E-2,2.911220789E0
3.588602094E0,7.486944675E0,-1.819573492E-1,2.995014191E0
3.591040688E0,7.637772560E0,-2.777212858E-1,3.105142593E0
3.593479281E0,7.716778278E0,-3.136327863E-1,3.227241755E0
3.595918656E0,7.836483002E0,-3.686970770E-1,3.325399637E0
3.598358031E0,7.970552921E0,-3.639088571E-1,3.459469080E0
3.600796625E0,7.934641361E0,-3.016622663E-1,3.562415361E0
3.603235167E0,7.913094044E0,-1.987160444E-1,3.665361643E0
3.605674542E0,7.910700321E0,-1.173166782E-1,3.756337404E0
3.608113969E0,7.929852962E0,-5.848705769E-6,3.849707365E0
3.610552563E0,7.951399803E0,9.096990526E-2,3.914348125E0
3.612991104E0,8.042375565E0,1.508223712E-1,3.955047607E0
3.615430479E0,8.135745049E0,2.226453424E-1,3.952653646E0
3.617869906E0,8.154897690E0,3.351680040E-1,3.962229967E0
3.620308500E0,8.202779770E0,4.692375064E-1,3.978988886E0
3.622747042E0,8.255449295E0,5.937306285E-1,4.019688606E0
3.625186417E0,8.262632370E0,6.583713293E-1,4.048418045E0
3.627625792E0,8.212356567E0,7.301942706E-1,4.079541206E0
3.630064386E0,8.150109291E0,8.187759519E-1,4.093905449E0
3.632502979E0,8.037587166E0,9.049634933E-1,4.060388565E0
3.634942354E0,7.949005604E0,9.791804552E-1,4.007718086E0
3.637381729E0,7.886759281E0,1.043821216E0,3.911953926E0
3.639820323E0,7.872394562E0,1.096491337E0,3.832948685E0
3.642258917E0,7.846059322E0,1.089309096E0,3.816190004E0
3.644698292E0,7.819724083E0,1.096491337E0,3.801825523E0
3.647137667E0,7.783812523E0,1.086915016E0,3.801825523E0
3.649576261E0,7.733536720E0,1.065368176E0,3.816190004E0
3.652014854E0,7.731142521E0,1.060579896E0,3.866466284E0
3.654454229E0,7.721566200E0,1.060579896E0,3.885618925E0
3.656893604E0,7.664107800E0,9.983333349E-1,3.947865486E0
3.659332198E0,7.611437798E0,9.648159742E-1,4.036447525E0
3.661770792E0,7.575526237E0,9.576337337E-1,4.132211208E0
3.664210167E0,7.508491516E0,9.241162539E-1,4.194457531E0
3.666649542E0,7.441456795E0,8.379287720E-1,4.280645370E0
3.669088136E0,7.427092075E0,8.020172715E-1,4.354862690E0
3.671526677E0,7.419909954E0,7.900467515E-1,4.433867455E0
3.673966052E0,7.465397835E0,7.421647310E-1,4.417109013E0
3.676405479E0,7.527644157E0,7.038592100E-1,4.441050053E0
3.678844073E0,7.542008877E0,7.014650702E-1,4.474567413E0
3.681282615E0,7.520462036E0,6.918886900E-1,4.517661095E0
3.683721990E0,7.589890957E0,6.966768503E-1,4.560755253E0
3.686161417E0,7.673684120E0,7.301942706E-1,4.599060535E0
3.688600011E0,7.697625160E0,6.871004701E-1,4.632578373E0
3.691038552E0,7.700019360E0,6.344302893E-1,4.697218895E0
3.693477927E0,7.654531956E0,5.937306285E-1,4.766647816E0
3.695917354E0,7.573132038E0,5.410605073E-1,4.833682060E0
3.698355948E0,7.532432556E0,4.907843471E-1,4.924658298E0
3.700794490E0,7.482156277E0,4.764198065E-1,4.991692543E0
3.703233865E0,7.455821037E0,4.309319258E-1,5.046757221E0
3.705673240E0,7.443850517E0,3.615030646E-1,5.089850903E0
3.708111834E0,7.455821037E0,2.920742035E-1,5.166461945E0
3.710550427E0,7.419909954E0,2.465863526E-1,5.185614586E0
3.712989802E0,7.422303677E0,1.891279519E-1,5.243072987E0
3.715429177E0,7.410333157E0,1.077286005E-1,5.264620304E0
3.717867771E0,7.376816273E0,7.181712985E-2,5.314896107E0
3.720306365E0,7.374421597E0,-9.582236409E-3,5.319684029E0
3.722745740E0,7.345692635E0,-5.746421218E-2,5.295742989E0
3.725185115E0,7.348086834E0,-5.507011339E-2,5.238284588E0
3.727623709E0,7.372027874E0,-6.225240976E-2,5.211949825E0
3.730062302E0,7.424698353E0,-3.352322429E-2,5.149703026E0
3.732501677E0,7.520462036E0,4.782356322E-3,5.053939342E0
3.734941052E0,7.625802040E0,5.505843461E-2,4.998875141E0
3.737379646E0,7.721566200E0,7.660530508E-2,4.953387260E0
3.739818240E0,7.843665123E0,5.745252967E-2,4.924658298E0
3.742257615E0,7.958582401E0,2.872334421E-2,4.912687778E0
3.744696990E0,8.095045090E0,-2.399936318E-3,4.915081501E0
3.747135584E0,8.178838730E0,-4.549372196E-2,4.943810463E0
3.749574177E0,8.255449295E0,-1.029520929E-1,4.979722023E0
3.752013552E0,8.356001854E0,-1.436517686E-1,4.998875141E0
3.754452927E0,8.456553459E0,-2.154747397E-1,5.080274105E0
3.756891521E0,8.576258659E0,-2.753272057E-1,5.111397743E0
3.759330063E0,8.710329056E0,-3.351796865E-1,5.159279823E0
3.761769438E0,8.868338585E0,-3.878498375E-1,5.207161903E0
3.764208813E0,8.964102745E0,-4.309436381E-1,5.247861385E0
3.766647406E0,9.009591103E0,-4.572786987E-1,5.276590824E0
3.769086000E0,9.059866905E0,-4.692491889E-1,5.310107708E0
3.771525375E0,9.090991020E0,-5.195252895E-1,5.369960308E0
3.773964750E0,9.160418510E0,-6.128951311E-1,5.417842388E0
3.776403344E0,9.208300591E0,-7.014767528E-1,5.468118191E0
3.778841938E0,9.249000549E0,-7.517528534E-1,5.554306030E0
3.781281313E0,9.328005791E0,-7.589351535E-1,5.630917072E0
3.783720688E0,9.445316315E0,-7.756938338E-1,5.712316513E0
3.786159281E0,9.550656319E0,-7.517528534E-1,5.755410194E0
3.788597875E0,9.641633034E0,-7.349941134E-1,5.839203835E0
3.791037250E0,9.737397194E0,-7.014767528E-1,5.925391197E0
3.793476625E0,9.861889839E0,-6.990826726E-1,6.016366959E0
3.795915219E0,9.960047722E0,-6.895062327E-1,6.126495838E0
3.798353813E0,1.004384136E1,-6.679593921E-1,6.253382683E0
3.800793188E0,1.005581188E1,-6.488066316E-1,6.382664204E0
3.803232563E0,1.010129929E1,-6.559888721E-1,6.504763126E0
3.805671156E0,1.011566448E1,-6.368361115E-1,6.593344688E0
3.808109750E0,1.020664120E1,-6.416243315E-1,6.715443611E0
3.810549125E0,1.029282761E1,-6.200774312E-1,6.732202530E0
3.812988500E0,1.044844437E1,-6.296538115E-1,6.760931492E0
3.815427094E0,1.065673065E1,-6.176832914E-1,6.710655689E0
3.817865688E0,1.089374638E1,-5.793777704E-1,6.631649971E0
3.820305063E0,1.120976734E1,-5.195252895E-1,6.483216286E0
3.822744438E0,1.154972935E1,-4.189731181E-1,6.334782124E0
3.825183031E0,1.195672703E1,-3.112386763E-1,6.119313240E0
3.827621573E0,1.242597008E1,-1.580163538E-1,5.899055958E0
3.830060948E0,1.289521313E1,-2.399936318E-3,5.676404953E0
3.832500323E0,1.338121510E1,1.101226956E-1,5.434601307E0
3.834938917E0,1.393904018E1,2.657391131E-1,5.197585106E0
3.837377511E0,1.445616531E1,3.638971448E-1,4.941416740E0
3.839816886E0,1.493977356E1,4.045968354E-1,4.625395775E0
3.842256261E0,1.544013977E1,4.213555157E-1,4.242339611E0
3.844694854E0,1.587825966E1,3.567148745E-1,3.820978165E0
3.847133448E0,1.630201530E1,2.633450329E-1,3.291882515E0
3.849572823E0,1.668267822E1,1.364577860E-1,2.779545307E0
3.852012198E0,1.701066971E1,6.224073470E-2,2.267208099E0
3.854450792E0,1.729796028E1,4.782356322E-3,1.802752972E0
3.856889386E0,1.751342964E1,3.829973936E-2,1.371815205E0
3.859328761E0,1.768819809E1,7.181712985E-2,1.005518198E0
3.861768136E0,1.779114532E1,1.268813908E-1,7.110440135E-1
3.864206729E0,1.779832649E1,1.843397617E-1,5.506393909E-1
3.866645323E0,1.772411156E1,1.963102520E-1,5.195161104E-1
3.869084698E0,1.744160652E1,1.173049957E-1,6.751325130E-1
3.871524073E0,1.690772247E1,-7.188133895E-3,1.039035559E0
3.873962667E0,1.624695206E1,-8.858749270E-2,1.572919607E0
3.876401261E0,1.557660389E1,-1.867455393E-1,2.097227097E0
3.878840636E0,1.487513256E1,-3.375737667E-1,2.556894302E0
3.881280011E0,1.417844963E1,-4.596728086E-1,2.944738150E0
3.883718604E0,1.344106770E1,-5.889541507E-1,3.253576994E0
3.886157146E0,1.273480892E1,-6.248656511E-1,3.471439600E0
3.888596521E0,1.208361340E1,-6.751416922E-1,3.581568480E0
3.891035948E0,1.143241882E1,-7.038708925E-1,3.641420603E0
3.893474542E0,1.089135265E1,-7.326000929E-1,3.670150042E0
3.895913084E0,1.039338017E1,-8.020289540E-1,3.581568480E0
3.898352459E0,9.895407677E0,-9.241279364E-1,3.509745359E0
3.900791886E0,9.351946831E0,-1.036650658E0,3.382858276E0
3.903230479E0,8.940161705E0,-1.120444059E0,3.275123596E0
3.905669021E0,8.583441734E0,-1.168326020E0,3.188936234E0
3.908108396E0,8.174050331E0,-1.216207981E0,3.064442873E0
3.910547771E0,7.829300880E0,-1.285636902E0,2.975861549E0
3.912986365E0,7.573132038E0,-1.309577823E0,2.896856308E0
3.915424959E0,7.345692635E0,-1.288030982E0,2.784333467E0
3.917864334E0,7.123041630E0,-1.254513621E0,2.614352465E0
3.920303709E0,6.852508068E0,-1.110867739E0,2.470706463E0
3.922742302E0,6.550852299E0,-9.121574163E-1,2.295937538E0
3.925180896E0,6.306653500E0,-7.086590528E-1,2.157079697E0
3.927620271E0,6.060061932E0,-6.105009913E-1,1.934428453E0
3.930059646E0,5.837410927E0,-5.267075300E-1,1.661501169E0
3.932498240E0,5.614759445E0,-4.836137891E-1,1.367027044E0
3.934936834E0,5.547724724E0,-4.117908180E-1,1.067764759E0
3.937376209E0,5.605183125E0,-3.303914666E-1,7.565318942E-1
3.939815584E0,5.679400444E0,-2.346275151E-1,4.381167591E-1
3.942254177E0,5.753617287E0,-1.125284880E-1,1.484307945E-1
3.944692771E0,5.827834129E0,-4.549372196E-2,-1.197082549E-1
3.947132146E0,5.949933052E0,-3.831142560E-2,-3.423594236E-1
3.949571521E0,6.110337734E0,-9.098159522E-2,-4.716407657E-1
3.952010115E0,6.294683456E0,-1.460458636E-1,-5.027641058E-1
3.954448709E0,6.493393898E0,-2.322334200E-1,-4.381234050E-1
3.956888084E0,6.716044903E0,-2.777212858E-1,-2.585659623E-1
3.959327459E0,7.017701149E0,-3.303914666E-1,-3.112660348E-2
3.961766052E0,7.383998394E0,-3.399678767E-1,2.346183360E-1
3.964204646E0,7.829300880E0,-3.064504862E-1,5.266983509E-1
3.966644021E0,8.276996613E0,-2.681449056E-1,8.666604161E-1
3.969083396E0,8.619352341E0,-1.508340687E-1,1.165922642E0
3.971521990E0,8.959314346E0,1.196465641E-2,1.467579365E0
3.973960531E0,9.277729988E0,2.346158326E-1,1.757265091E0
3.976399906E0,9.651209831E0,4.452965260E-1,1.989492655E0
3.978839281E0,9.995959282E0,6.272480488E-1,2.245661259E0
3.981277875E0,1.030479908E1,8.570814729E-1,2.544923782E0
3.983716469E0,1.056336117E1,1.051003456E0,2.841791868E0
3.986155844E0,1.086980534E1,1.276048779E0,3.136265993E0
3.988595219E0,1.110442734E1,1.498700023E0,3.411587477E0
3.991033813E0,1.125046730E1,1.675863266E0,3.660573721E0
3.993472406E0,1.129116631E1,1.788385868E0,3.868860245E0
3.995911781E0,1.130553150E1,1.874573469E0,4.062782288E0
3.998351156E0,1.136538410E1,1.884149909E0,4.196852207E0
4.000789750E0,1.145157146E1,1.922455549E0,4.271069050E0
4.003228344E0,1.162155247E1,1.999066591E0,4.295010090E0
4.005667719E0,1.176041031E1,2.003854752E0,4.256704807E0
4.008107094E0,1.178674603E1,2.018219471E0,4.172911167E0
4.010545688E0,1.183223343E1,2.015825272E0,4.048418045E0
4.012984281E0,1.183941555E1,2.070889473E0,3.923924446E0
4.015423656E0,1.180829239E1,2.164259434E0,3.856889725E0
4.017863031E0,1.174604607E1,2.255235195E0,3.720426083E0
4.020301625E0,1.165028191E1,2.315087795E0,3.641420603E0
4.022740219E0,1.146593571E1,2.173835754E0,3.521715879E0
4.025179594E0,1.118582630E1,1.929637671E0,3.473834038E0
4.027618969E0,1.087938213E1,1.668681026E0,3.409193277E0
4.030057563E0,1.058490753E1,1.398147821E0,3.356523037E0
4.032496104E0,1.031916237E1,1.173102498E0,3.282305956E0
4.034935479E0,1.008454132E1,9.911509752E-1,3.167389154E0
4.037374906E0,9.866679192E0,8.068054318E-1,3.035713911E0
4.039813500E0,9.684726715E0,6.942828298E-1,2.899250269E0
4.042252042E0,9.509957314E0,6.200657487E-1,2.767574787E0
4.044691417E0,9.380675316E0,5.913365483E-1,2.626322985E0
4.047130844E0,9.246606827E0,5.769719481E-1,2.463524103E0
4.049569438E0,9.107748985E0,5.913365483E-1,2.317484140E0
4.052007979E0,9.009591103E0,5.290899873E-1,2.169050217E0
4.054447354E0,8.889885902E0,4.333260059E-1,2.066103935E0
4.056886729E0,8.810880661E0,3.160151839E-1,1.970340014E0
4.059325323E0,8.741452217E0,1.436400712E-1,1.936822653E0
4.061763917E0,8.672022820E0,4.782356322E-3,1.881758213E0
4.064203292E0,8.552317619E0,-7.661700249E-2,1.900911093E0
4.066642667E0,8.344031334E0,-1.149225831E-1,1.936822653E0
4.069081261E0,8.157291412E0,-1.795632541E-1,1.967945814E0
4.071519854E0,7.965764046E0,-1.819573492E-1,1.944004774E0
4.073959229E0,7.805359840E0,-1.987160444E-1,1.924852133E0
4.076398604E0,7.692837238E0,-1.987160444E-1,1.876970053E0
4.078837198E0,7.601861000E0,-1.795632541E-1,1.843452692E0
4.081275792E0,7.503703117E0,-1.340753734E-1,1.778811932E0
4.083715167E0,7.355269432E0,-6.943470240E-2,1.742900610E0
4.086154542E0,7.199652672E0,-4.070552066E-2,1.675865650E0
4.088593136E0,7.075159550E0,-4.788781703E-2,1.608830929E0
4.091031729E0,6.979395866E0,-5.507011339E-2,1.604042768E0
4.093471104E0,6.881237507E0,-5.028191581E-2,1.568131447E0
4.095910479E0,6.728015423E0,-7.901109755E-2,1.532219887E0
4.098349073E0,6.577187061E0,-9.337569773E-2,1.575313568E0
4.100787667E0,6.443117619E0,-1.675927490E-1,1.539402008E0
4.103227042E0,6.280318737E0,-2.849035859E-1,1.553766727E0
4.105666417E0,6.172584057E0,-3.998203576E-1,1.587284088E0
4.108105011E0,6.100761414E0,-4.429140985E-1,1.608830929E0
4.110543552E0,6.093579292E0,-4.668551087E-1,1.644742489E0
4.112982927E0,6.127096653E0,-5.314957500E-1,1.685442209E0
4.115422302E0,6.139067173E0,-5.769836307E-1,1.711777210E0
4.117860896E0,6.167796135E0,-6.224715114E-1,1.740506411E0
4.120299490E0,6.191737175E0,-6.128951311E-1,1.771629810E0
4.122738865E0,6.335383415E0,-6.033187509E-1,1.819511652E0
4.125178240E0,6.483817101E0,-6.057128310E-1,1.874576092E0
4.127616834E0,6.598733902E0,-6.105009913E-1,1.929640293E0
4.130055427E0,6.711256504E0,-6.224715114E-1,1.975128174E0
4.132494802E0,6.821385384E0,-5.913482308E-1,2.039768696E0
4.134934177E0,6.965031147E0,-6.296538115E-1,2.102015495E0
4.137372771E0,7.180499554E0,-6.751416922E-1,2.183414698E0
4.139811365E0,7.405545235E0,-6.655653119E-1,2.248055458E0
4.142250740E0,7.546797276E0,-6.679593921E-1,2.334243059E0
4.144690115E0,7.673684120E0,-6.631711721E-1,2.499435663E0
4.147128709E0,7.822118282E0,-7.541469336E-1,2.667022705E0
4.149567302E0,7.975340843E0,-7.972407341E-1,2.865732908E0
4.152006677E0,8.154897690E0,-9.025810361E-1,3.009378672E0
4.154446052E0,8.310514450E0,-1.010315418E0,3.196118355E0
4.156884646E0,8.387125969E0,-1.125232220E0,3.334976196E0
4.159323240E0,8.401490211E0,-1.110867739E0,3.447498798E0
4.161762615E0,8.435007095E0,-9.935567975E-1,3.607903481E0
4.164201990E0,8.509224892E0,-8.882164955E-1,3.698879242E0
4.166640584E0,8.679205894E0,-9.025810361E-1,3.797037125E0
4.169079125E0,8.877915382E0,-9.408866167E-1,3.876042366E0
4.171518500E0,9.090991020E0,-9.839804173E-1,4.000535965E0
4.173957927E0,9.172389984E0,-1.007921457E0,4.127423286E0
4.176396521E0,9.232241631E0,-9.959509373E-1,4.285433769E0
4.178835063E0,9.282517433E0,-9.504630566E-1,4.429079533E0
4.181274438E0,9.328005791E0,-9.504630566E-1,4.541602135E0
4.183713813E0,9.270547867E0,-9.169456959E-1,4.630183697E0
4.186152406E0,9.160418510E0,-8.810341954E-1,4.713977337E0
4.188591000E0,9.062260628E0,-8.355463147E-1,4.797770500E0
4.191030375E0,8.983255386E0,-7.828761339E-1,4.797770500E0
4.193469750E0,8.937767982E0,-7.086590528E-1,4.771435738E0
4.195908344E0,8.894673347E0,-6.823239923E-1,4.713977337E0
4.198346938E0,8.877915382E0,-6.248656511E-1,4.623001575E0
4.200786313E0,8.882703781E0,-5.602249503E-1,4.532025814E0
4.203225688E0,8.858762741E0,-5.219193697E-1,4.491326332E0
4.205664281E0,8.825245857E0,-5.410721302E-1,4.419503212E0
4.208102875E0,8.715116501E0,-5.051606894E-1,4.338103771E0
4.210542250E0,8.588230133E0,-4.644609988E-1,4.306980610E0
4.212981625E0,8.470918655E0,-3.902439475E-1,4.261492729E0
4.215420219E0,8.403883934E0,-2.896918058E-1,4.242339611E0
4.217858813E0,8.346426010E0,-1.891396344E-1,4.175305367E0
4.220298188E0,8.356001854E0,-1.221048757E-1,4.158545971E0
4.222737563E0,8.257843971E0,-5.746421218E-2,4.141787529E0
4.225176156E0,8.037587166E0,1.914694905E-2,4.115452766E0
4.227614750E0,7.929852962E0,3.829973936E-2,4.108270645E0
4.230054125E0,7.877182961E0,8.139351010E-2,4.067570686E0
4.232493500E0,7.855635643E0,1.412459761E-1,4.000535965E0
4.234932094E0,7.786206722E0,2.441922128E-1,3.931106806E0
4.237370688E0,7.570738316E0,3.567148745E-1,3.940683126E0
4.239810063E0,7.403151035E0,4.572669864E-1,3.962229967E0
4.242249438E0,7.245140553E0,5.721837282E-1,3.969412565E0
4.244688031E0,7.151770592E0,7.493470311E-1,3.962229967E0
4.247126573E0,7.084736347E0,9.073575735E-1,3.962229967E0
4.249565948E0,6.965031147E0,1.039033055E0,3.952653646E0
4.252005375E0,6.874055386E0,1.101279616E0,3.978988886E0
4.254443969E0,6.830961704E0,1.141979218E0,3.974200487E0
4.256882511E0,6.833355904E0,1.120432377E0,3.969412565E0
4.259321886E0,6.864478588E0,1.048609376E0,3.967018366E0
4.261761261E0,6.960242748E0,9.719982147E-1,3.916742086E0
4.264199854E0,7.096706867E0,9.576337337E-1,3.847313166E0
4.266638448E0,7.235564232E0,9.480572939E-1,3.816190004E0
4.269077823E0,7.367239952E0,9.959392548E-1,3.741972923E0
4.271517198E0,7.460609913E0,1.036638856E0,3.696485281E0
4.273955792E0,7.477368355E0,1.046215296E0,3.696485281E0
4.276394386E0,7.463003635E0,1.039033055E0,3.744366884E0
4.278833761E0,7.417515755E0,1.005515575E0,3.830554724E0
4.281273136E0,7.417515755E0,9.648159742E-1,3.935894966E0
4.283711729E0,7.410333157E0,9.121457934E-1,4.050811768E0
4.286150323E0,7.436668873E0,8.163818121E-1,4.211216450E0
4.288589698E0,7.539614677E0,6.990709901E-1,4.385985851E0
4.291029073E0,7.642561436E0,6.559771895E-1,4.522449017E0
4.293467667E0,7.752689838E0,6.152775884E-1,4.687642097E0
4.295906261E0,7.855635643E0,5.961247683E-1,4.828894138E0
4.298345636E0,7.963370323E0,5.697897077E-1,4.953387260E0
4.300785011E0,8.047163010E0,4.955726266E-1,5.073091984E0
4.303223604E0,8.133350372E0,4.045968354E-1,5.192797184E0
4.305662198E0,8.164474487E0,3.112269938E-1,5.317290306E0
4.308101573E0,8.200386047E0,2.226453424E-1,5.434601307E0
4.310540948E0,8.217144012E0,1.316695958E-1,5.535153389E0
4.312979542E0,8.190809250E0,4.787612706E-2,5.628523350E0
4.315418084E0,8.202779770E0,-2.155273408E-2,5.674010754E0
4.317857459E0,8.238691330E0,-6.225240976E-2,5.705134392E0
4.320296834E0,8.286573410E0,-6.704060733E-2,5.717104912E0
4.322735427E0,8.296150208E0,2.393514663E-2,5.690769672E0
4.325174021E0,8.308119774E0,1.412459761E-1,5.659646034E0
4.327613396E0,8.332060814E0,2.848919034E-1,5.563882351E0
4.330052771E0,8.320090294E0,4.093850255E-1,5.472906590E0
4.332491365E0,8.336849213E0,5.266958475E-1,5.396295547E0
4.334929959E0,8.379942894E0,5.889424086E-1,5.355595589E0
4.337369334E0,8.403883934E0,5.721837282E-1,5.336442947E0
4.339808709E0,8.406277657E0,5.386663675E-1,5.312502384E0
4.342247302E0,8.420642853E0,5.290899873E-1,5.322078228E0
4.344685896E0,8.408671379E0,5.243018270E-1,5.386719227E0
4.347125271E0,8.365578651E0,5.195135474E-1,5.415448189E0
4.349564646E0,8.406277657E0,5.219076872E-1,5.448965549E0
4.352003240E0,8.442190170E0,5.195135474E-1,5.504029751E0
4.354441834E0,8.446977615E0,5.769719481E-1,5.508818150E0
4.356881209E0,8.391913414E0,6.511889696E-1,5.578247070E0
4.359320584E0,8.315301895E0,7.301942706E-1,5.583034992E0
4.361759177E0,8.281785011E0,7.852585316E-1,5.611763954E0
4.364197771E0,8.291360855E0,8.475051522E-1,5.642887592E0
4.366637146E0,8.334455490E0,8.618696928E-1,5.630917072E0
4.369076521E0,8.456553459E0,8.163818121E-1,5.616552830E0
4.371515115E0,8.609776497E0,8.187759519E-1,5.563882351E0
4.373953656E0,8.794121742E0,8.427169323E-1,5.539941311E0
4.376393031E0,8.992832184E0,9.169340134E-1,5.547123909E0
4.378832459E0,9.186754227E0,1.017486095E0,5.465723991E0
4.381271052E0,9.395040512E0,1.127614617E0,5.408265591E0
4.383709594E0,9.600934029E0,1.209013939E0,5.329260826E0
4.386148969E0,9.790066719E0,1.283231139E0,5.243072987E0
4.388588344E0,9.983988762E0,1.316748500E0,5.154491901E0
4.391026938E0,1.021621704E1,1.333507180E0,4.991692543E0
4.393465531E0,1.049393177E1,1.381389141E0,4.888746738E0
4.395904906E0,1.080037689E1,1.347871780E0,4.737918377E0
4.398344281E0,1.112118530E1,1.319142580E0,4.591878414E0
4.400782875E0,1.148508835E1,1.211408138E0,4.438656330E0
4.403221469E0,1.193039131E1,1.079732776E0,4.275856972E0
4.405660844E0,1.235654068E1,9.217221737E-1,4.122634888E0
4.408100219E0,1.280184364E1,6.679477096E-1,3.974200487E0
4.410538813E0,1.322559834E1,3.686853647E-1,3.825766325E0
4.412977406E0,1.362780762E1,4.787612706E-2,3.679726362E0
4.415416781E0,1.402044010E1,-2.729330957E-1,3.483410120E0
4.417856156E0,1.441786003E1,-5.865600109E-1,3.191330194E0
4.420294750E0,1.476979256E1,-9.169456959E-1,2.796303988E0
4.422733344E0,1.509538937E1,-1.213813901E0,2.281572580E0
4.425172719E0,1.535395241E1,-1.522652626E0,1.745294571E0
4.427612094E0,1.555984497E1,-1.783609390E0,1.187469721E0
4.430050688E0,1.573461437E1,-2.056536674E0,5.841567516E-1
4.432489229E0,1.583516693E1,-2.260035038E0,8.618423343E-2
4.434928604E0,1.580883217E1,-2.420439720E0,-3.375712633E-1
4.437368031E0,1.566039658E1,-2.544932842E0,-6.296513081E-1
4.439806625E0,1.536352921E1,-2.599997044E0,-7.421739101E-1
4.442245167E0,1.497807884E1,-2.604785204E0,-6.679568887E-1
4.444684542E0,1.452798843E1,-2.556903362E0,-3.160243332E-1
4.447123969E0,1.408986855E1,-2.370163441E0,2.178596854E-1
4.449562563E0,1.373554134E1,-2.049354553E0,9.025719166E-1
4.452001104E0,1.340036774E1,-1.623204708E0,1.675865650E0
4.454440479E0,1.313462257E1,-1.163537860E0,2.427612782E0
4.456879854E0,1.293351841E1,-6.990826726E-1,3.071625233E0
4.459318448E0,1.270129108E1,-2.418098152E-1,3.605509520E0
4.461757042E0,1.240681648E1,1.891279519E-1,4.043629646E0
4.464196417E0,1.212670803E1,6.176716089E-1,4.333315849E0
4.466635792E0,1.180350399E1,9.935451746E-1,4.476961613E0
4.469074386E0,1.148987675E1,1.311960220E0,4.450626373E0
4.471512979E0,1.126722622E1,1.551370144E0,4.271069050E0
4.473952354E0,1.117385578E1,1.673469067E0,3.921530485E0
4.476391729E0,1.111879158E1,1.718956947E0,3.469045639E0
4.478830323E0,1.107809162E1,1.714168906E0,3.026137352E0
4.481268917E0,1.094402313E1,1.740504026E0,2.638293505E0
4.483708292E0,1.078361797E1,1.805144668E0,2.288754940E0
4.486147667E0,1.068306541E1,1.807538748E0,2.018221855E0
4.488586261E0,1.073812962E1,1.752474546E0,1.819511652E0
4.491024854E0,1.089374638E1,1.656710505E0,1.699806690E0
4.493464229E0,1.101823997E1,1.627981305E0,1.611225128E0
4.495903604E0,1.116667366E1,1.560946465E0,1.611225128E0
4.498342198E0,1.120019150E1,1.525035024E0,1.620801449E0
4.500780740E0,1.119061470E1,1.489123583E0,1.618407488E0
4.503220115E0,1.112597370E1,1.367024541E0,1.642348289E0
4.505659542E0,1.100148106E1,1.151555657E0,1.673471689E0
4.508098136E0,1.079319477E1,9.193280339E-1,1.726141930E0
4.510536677E0,1.058012009E1,7.038592100E-1,1.802752972E0
4.512976052E0,1.040295696E1,4.740256667E-1,1.853029013E0
4.515415427E0,1.019227600E1,2.394040227E-1,1.876970053E0
4.517854021E0,9.993565559E0,9.575811028E-2,1.915275574E0
4.520292615E0,9.713456154E0,-4.788781703E-2,2.003857374E0
4.522731990E0,9.500380516E0,-1.963219345E-1,2.113985777E0
4.525171365E0,9.392646790E0,-3.375737667E-1,2.219326258E0
4.527609959E0,9.272941589E0,-4.907960892E-1,2.348607540E0
4.530048552E0,9.174783707E0,-6.176832914E-1,2.480283022E0
4.532487927E0,9.090991020E0,-8.451226950E-1,2.578440905E0
4.534927302E0,9.028743744E0,-1.017497778E0,2.635899544E0
4.537365896E0,9.031137466E0,-1.173114300E0,2.710116386E0
4.539804490E0,9.031137466E0,-1.292819142E0,2.769968987E0
4.542243865E0,9.033532143E0,-1.438859105E0,2.789121628E0
4.544683240E0,9.004802704E0,-1.587293267E0,2.798697948E0
4.547121834E0,8.983255386E0,-1.733333349E0,2.798697948E0
4.549560427E0,8.944951057E0,-1.848250151E0,2.791515589E0
4.551999802E0,8.916220665E0,-1.994290113E0,2.803486109E0
4.554439177E0,8.868338585E0,-2.123571396E0,2.841791868E0
4.556877771E0,8.830033302E0,-2.236093998E0,2.889673710E0
4.559316365E0,8.813274384E0,-2.398892641E0,2.947132111E0
4.561755740E0,8.837215424E0,-2.513809443E0,2.997408152E0
4.564195115E0,8.885097504E0,-2.628726244E0,3.090778112E0
4.566633709E0,8.976074219E0,-2.707731485E0,3.162600994E0
4.569072250E0,9.086201668E0,-2.736460686E0,3.234423876E0
4.571511625E0,9.220272064E0,-2.803495407E0,3.301458597E0
4.573951000E0,9.347158432E0,-2.796313286E0,3.373281717E0
4.576389594E0,9.454894066E0,-2.765189886E0,3.430740118E0
4.578828188E0,9.548262596E0,-2.700549364E0,3.481016159E0
4.581267563E0,9.615297318E0,-2.647878885E0,3.524109840E0
4.583706938E0,9.629662514E0,-2.561691523E0,3.538474798E0
4.586145531E0,9.632057190E0,-2.463533401E0,3.509745359E0
4.588584125E0,9.596144676E0,-2.315099239E0,3.495380640E0
4.591023500E0,9.526717186E0,-2.173847437E0,3.464257479E0
4.593462875E0,9.426163673E0,-2.058930874E0,3.409193277E0
4.595901469E0,9.378281593E0,-1.979925513E0,3.370887756E0
4.598340063E0,9.514745712E0,-1.888949752E0,3.267941475E0
4.600779438E0,9.620085716E0,-1.812338591E0,3.150630713E0
4.603218813E0,9.593750954E0,-1.800368071E0,3.071625233E0
4.605657406E0,9.533898354E0,-1.685451388E0,3.047684431E0
4.608096000E0,9.457287788E0,-1.450829625E0,3.004590511E0
4.610535375E0,9.411799431E0,-1.175508380E0,2.959102631E0
4.612974750E0,9.416587830E0,-8.570932150E-1,2.923191309E0
4.615413344E0,9.363917351E0,-6.176832914E-1,2.839397669E0
4.617851938E0,9.323217392E0,-4.524905086E-1,2.827427149E0
4.620291313E0,9.263365746E0,-2.537803054E-1,2.810668468E0
4.622730688E0,9.045502663E0,-1.149225831E-1,2.801092148E0
4.625169281E0,8.688781738E0,-7.182880491E-2,2.820245028E0
4.627607823E0,8.485283852E0,-4.788781703E-2,2.796303988E0
4.630047198E0,8.336849213E0,-1.723809540E-1,2.808274508E0
4.632486625E0,8.253055573E0,-2.920858860E-1,2.817850828E0
4.634925219E0,8.221932411E0,-3.830616176E-1,2.868126869E0
4.637363761E0,8.183627129E0,-3.256032467E-1,2.954314470E0
4.639803136E0,8.104621887E0,-2.585684955E-1,2.983043671E0
4.642242563E0,8.066316605E0,-2.657507956E-1,2.951920509E0
4.644681156E0,7.996887684E0,-2.609626055E-1,2.901644230E0
4.647119698E0,7.891547203E0,-2.442039102E-1,2.887279749E0
4.649559073E0,7.747901440E0,-2.154747397E-1,2.860944748E0
4.651998448E0,7.515673637E0,-1.699868441E-1,2.870520830E0
4.654437042E0,7.314569950E0,-5.746421218E-2,2.829821348E0
4.656875636E0,7.082341671E0,-7.188133895E-3,2.757998466E0
4.659315011E0,6.874055386E0,6.702892482E-2,2.681387186E0
4.661754386E0,6.670556545E0,1.292755008E-1,2.566470385E0
4.664192979E0,6.464664459E0,2.657391131E-1,2.468312502E0
4.666631573E0,6.251589775E0,3.375620842E-1,2.367760181E0
4.669070948E0,6.093579292E0,4.452965260E-1,2.255237579E0
4.671510323E0,5.947539330E0,5.266958475E-1,2.140321016E0
4.673948917E0,5.837410927E0,6.152775884E-1,2.030192375E0
4.676387511E0,5.751223087E0,6.966768503E-1,1.955975294E0
4.678826886E0,5.722493649E0,7.804703712E-1,1.886546612E0
4.681266261E0,5.693764687E0,7.948349118E-1,1.853029013E0
4.683704854E0,5.741646767E0,8.068054318E-1,1.807541370E0
4.686143448E0,5.825440407E0,8.139877319E-1,1.793176651E0
4.688582823E0,5.973874092E0,7.828644514E-1,1.800358772E0
4.691022198E0,6.127096653E0,7.804703712E-1,1.821905851E0
4.693460792E0,6.297077656E0,7.349824905E-1,1.888940573E0
4.695899334E0,6.411994457E0,7.110415101E-1,1.922457933E0
4.698338709E0,6.512546062E0,6.535831094E-1,1.970340014E0
4.700778136E0,6.684921741E0,5.530309677E-1,2.015827894E0
4.703216729E0,6.821385384E0,4.452965260E-1,2.085256577E0
4.705655271E0,6.972213268E0,3.854440749E-1,2.166656017E0
4.708094646E0,7.137406349E0,3.040446937E-1,2.245661259E0
4.710534021E0,7.326540470E0,3.064388037E-1,2.324666500E0
4.712972615E0,7.441456795E0,3.519266844E-1,2.386913300E0
4.715411209E0,7.537220955E0,4.141732454E-1,2.494647503E0
4.717850584E0,7.609043598E0,4.548729062E-1,2.583229303E0
4.720289959E0,7.774236202E0,5.362722278E-1,2.664628506E0
4.722728552E0,7.915488243E0,5.985188484E-1,2.789121628E0
4.725167146E0,8.073498726E0,6.176716089E-1,2.906432390E0
4.727606521E0,8.193202972E0,6.464008093E-1,3.018955231E0
4.730045896E0,8.351213455E0,6.990709901E-1,3.129083633E0
4.732484490E0,8.444583893E0,7.182238102E-1,3.241606474E0
4.734923084E0,8.480494499E0,7.182238102E-1,3.313429117E0
4.737362459E0,8.525982857E0,7.134355307E-1,3.442710638E0
4.739801834E0,8.604988098E0,6.847063899E-1,3.483410120E0
4.742240427E0,8.650475502E0,6.631594896E-1,3.552839279E0
4.744679021E0,8.753422737E0,6.487949491E-1,3.655785561E0
4.747118396E0,8.798910141E0,7.158296704E-1,3.744366884E0
4.749557771E0,8.892279625E0,7.397707105E-1,3.830554724E0
4.751996365E0,8.976074219E0,7.373765707E-1,3.928712606E0
4.754434959E0,9.040713310E0,7.373765707E-1,4.034053326E0
4.756874334E0,9.038319588E0,7.780762315E-1,4.134605408E0
4.759313709E0,9.045502663E0,7.589234114E-1,4.256704807E0
4.761752302E0,9.105354309E0,7.445588708E-1,4.333315849E0
4.764190844E0,9.126901627E0,6.607654095E-1,4.429079533E0
4.766630219E0,9.100566864E0,6.392185092E-1,4.524843693E0
4.769069646E0,9.112536430E0,6.272480488E-1,4.630183697E0
4.771508240E0,9.186754227E0,6.224598289E-1,4.702006817E0
4.773946781E0,9.260972023E0,6.607654095E-1,4.788194180E0
4.776386156E0,9.294488907E0,6.631594896E-1,4.840864658E0
4.778825531E0,9.344764709E0,6.607654095E-1,4.936628819E0
4.781264125E0,9.402222633E0,6.990709901E-1,5.022816181E0
4.783702719E0,9.416587830E0,7.637116909E-1,5.082668781E0
4.786142094E0,9.414194107E0,7.780762315E-1,5.188008785E0
4.788581469E0,9.399828911E0,7.876526117E-1,5.259831905E0
4.791020063E0,9.392646790E0,7.756821513E-1,5.341231346E0
4.793458656E0,9.337582588E0,7.780762315E-1,5.410660267E0
4.795898031E0,9.306458473E0,7.589234114E-1,5.484877110E0
4.798337406E0,9.282517433E0,7.206178904E-1,5.530364990E0
4.800776000E0,9.213089943E0,6.871004701E-1,5.568670750E0
4.803214594E0,9.134083748E0,6.487949491E-1,5.606976032E0
4.805653969E0,9.067049980E0,6.104893088E-1,5.640493870E0
4.808093344E0,8.980861664E0,5.841542482E-1,5.606976032E0
4.810531938E0,8.901856422E0,5.961247683E-1,5.556700230E0
4.812970531E0,8.839610100E0,5.506368876E-1,5.508818150E0
4.815409906E0,8.856369019E0,5.530309677E-1,5.439389229E0
4.817849281E0,8.681599617E0,5.721837282E-1,5.372354507E0
4.820287875E0,8.506830215E0,5.937306285E-1,5.341231346E0
4.822726417E0,8.363183975E0,6.176716089E-1,5.283772469E0
4.825165792E0,8.197991371E0,6.033070683E-1,5.207161903E0
4.827605219E0,8.030405045E0,6.080952287E-1,5.144915104E0
4.830043813E0,7.917882442E0,6.176716089E-1,5.034786701E0
4.832482354E0,7.733536720E0,6.344302893E-1,4.936628819E0
4.834921729E0,7.565949917E0,6.248539090E-1,4.831288338E0
4.837361156E0,7.463003635E0,6.176716089E-1,4.673277855E0
4.839799750E0,7.357663155E0,5.841542482E-1,4.505690575E0
4.842238292E0,7.264293194E0,5.913365483E-1,4.287827492E0
4.844677667E0,7.168529034E0,5.889424086E-1,4.096300125E0
4.847117042E0,7.127829552E0,5.650014281E-1,3.890407085E0
4.849555636E0,7.075159550E0,5.362722278E-1,3.739578962E0
4.851994229E0,6.941090107E0,5.219076872E-1,3.617480040E0
4.854433604E0,6.818991184E0,4.500847459E-1,3.531292200E0
4.856872979E0,6.687315941E0,3.878381550E-1,3.500169039E0
4.859311573E0,6.593945503E0,2.801037133E-1,3.507351160E0
4.861750167E0,6.490999699E0,1.891279519E-1,3.528898239E0
4.864189542E0,6.392841339E0,8.378760517E-2,3.583962440E0
4.866628917E0,6.299471855E0,-2.155273408E-2,3.662967682E0
4.869067511E0,6.189343452E0,-1.364694685E-1,3.756337404E0
4.871506104E0,6.095973015E0,-2.370216101E-1,3.818584204E0
4.873945479E0,5.985844612E0,-3.327855766E-1,3.914348125E0
4.876384854E0,5.878110409E0,-3.950321376E-1,3.945471525E0
4.878823448E0,5.830228329E0,-4.596728086E-1,3.952653646E0
4.881262042E0,5.796710968E0,-5.314957500E-1,3.940683126E0
4.883701417E0,5.844592571E0,-6.248656511E-1,3.926318407E0
4.886140792E0,5.868533611E0,-7.421764135E-1,3.866466284E0
4.888579386E0,5.952327251E0,-9.073692560E-1,3.849707365E0
4.891017927E0,6.004997730E0,-1.051015139E0,3.809007645E0
4.893457302E0,6.028938293E0,-1.182690620E0,3.761125803E0
4.895896729E0,6.024150372E0,-1.340701103E0,3.739578962E0
4.898335323E0,6.064849854E0,-1.520258546E0,3.744366884E0
4.900773865E0,6.172584057E0,-1.618416667E0,3.739578962E0
4.903213240E0,6.306653500E0,-1.659116268E0,3.758731604E0
4.905652615E0,6.490999699E0,-1.685451388E0,3.801825523E0
4.908091209E0,6.725621223E0,-1.661510348E0,3.868860245E0
4.910529802E0,7.003336906E0,-1.618416667E0,3.962229967E0
4.912969177E0,7.225987911E0,-1.592081547E0,4.074752808E0
4.915408552E0,7.355269432E0,-1.503499866E0,4.165728569E0
4.917847146E0,7.443850517E0,-1.402947783E0,4.311768532E0
4.920285740E0,7.532432556E0,-1.340701103E0,4.426685810E0
4.922725115E0,7.652137280E0,-1.261695862E0,4.481749535E0
4.925164490E0,7.812542439E0,-1.240149021E0,4.543996334E0
4.927603084E0,8.016039848E0,-1.220996261E0,4.575119495E0
4.930041677E0,8.212356567E0,-1.101291299E0,4.599060535E0
4.932481052E0,8.406277657E0,-9.408866167E-1,4.596666813E0
4.934920427E0,8.609776497E0,-8.427286148E-1,4.572725773E0
4.937359021E0,8.837215424E0,-7.062649727E-1,4.560755253E0
4.939797615E0,9.035925865E0,-5.913482308E-1,4.532025814E0
4.942236990E0,9.229847908E0,-4.572786987E-1,4.498507977E0
4.944676365E0,9.445316315E0,-3.232091665E-1,4.491326332E0
4.947114959E0,9.636844635E0,-1.412576735E-1,4.515267372E0
4.949553552E0,9.775702477E0,4.548203945E-2,4.543996334E0
4.951992927E0,9.914560318E0,2.322217524E-1,4.575119495E0
4.954432302E0,1.008693600E1,4.405083656E-1,4.567937374E0
4.956870896E0,1.021621704E1,6.535831094E-1,4.577513695E0
4.959309438E0,1.031916237E1,8.355346322E-1,4.599060535E0
4.961748813E0,1.040535069E1,9.959392548E-1,4.570331097E0
4.964188240E0,1.051787281E1,1.108461857E0,4.543996334E0
4.966626834E0,1.058251381E1,1.213802218E0,4.532025814E0
4.969065375E0,1.067827797E1,1.297595620E0,4.512873173E0
4.971504750E0,1.071179485E1,1.362236381E0,4.541602135E0
4.973944125E0,1.075967693E1,1.441241622E0,4.551178455E0
4.976382719E0,1.083868313E1,1.517852783E0,4.532025814E0
4.978821313E0,1.083628845E1,1.568128824E0,4.481749535E0
4.981260688E0,1.084107685E1,1.577705264E0,4.479355812E0
4.983700063E0,1.079080105E1,1.594463825E0,4.460202694E0
4.986138656E0,1.078840637E1,1.623193145E0,4.450626373E0
4.988577250E0,1.076925373E1,1.630375385E0,4.424291134E0
4.991016625E0,1.073573589E1,1.630375385E0,4.378803730E0
4.993456000E0,1.069503689E1,1.594463825E0,4.364438534E0
4.995894594E0,1.065912437E1,1.584887505E0,4.354862690E0
4.998333188E0,1.061124229E1,1.572916985E0,4.364438534E0
5.000772563E0,1.055857277E1,1.544187903E0,4.393167973E0
5.003211938E0,1.048674965E1,1.498700023E0,4.457808495E0
5.005650531E0,1.036943913E1,1.443635702E0,4.486537457E0
5.008089125E0,1.021382236E1,1.386177421E0,4.620607853E0
5.010528500E0,1.002229500E1,1.328719020E0,4.759465218E0
5.012967875E0,9.845131874E0,1.230560899E0,4.893534660E0
5.015406469E0,9.660785675E0,1.132402897E0,5.046757221E0
5.017845011E0,9.526717186E0,1.022274375E0,5.178432465E0
5.020284386E0,9.371099472E0,9.145398736E-1,5.338837147E0
5.022723813E0,9.222665787E0,8.283523321E-1,5.477694511E0
5.025162406E0,9.105354309E0,6.679477096E-1,5.580641270E0
5.027600948E0,9.016773224E0,5.314840674E-1,5.707528114E0
5.030040323E0,8.906644821E0,4.022027552E-1,5.769774914E0
5.032479698E0,8.825245857E0,1.867338717E-1,5.724287033E0
5.034918292E0,8.877915382E0,-5.507011339E-2,5.657252312E0
5.037356886E0,8.911433220E0,-2.681449056E-1,5.616552830E0
5.039796261E0,8.904251099E0,-4.453082085E-1,5.599793911E0
5.042235636E0,8.978467941E0,-5.961364508E-1,5.578247070E0
5.044674229E0,9.007196426E0,-7.421764135E-1,5.458542347E0
5.047112823E0,9.160418510E0,-9.145515561E-1,5.290955067E0
5.049552198E0,9.514745712E0,-1.096503019E0,5.032392025E0
5.051991573E0,9.828372955E0,-1.295213223E0,4.766647816E0
5.054430167E0,1.014200020E1,-1.458011985E0,4.438656330E0
5.056868761E0,1.046999073E1,-1.568140507E0,4.168122768E0
5.059308136E0,1.083389378E1,-1.651934028E0,3.904771805E0
5.061747511E0,1.128877258E1,-1.680663109E0,3.548050880E0
5.064186104E0,1.182983971E1,-1.742909789E0,3.126689672E0
5.066624698E0,1.239963436E1,-1.805156231E0,2.741239786E0
5.069064073E0,1.304843616E1,-1.951196432E0,2.365366220E0
5.071503448E0,1.367808342E1,-2.147512436E0,2.042162895E0
5.073942042E0,1.430773163E1,-2.456351280E0,1.723747730E0
5.076380636E0,1.483682823E1,-2.762795687E0,1.405332565E0
5.078820011E0,1.534437561E1,-3.045299530E0,1.022276878E0
5.081259386E0,1.584713650E1,-3.174580812E0,5.458511710E-1
5.083697979E0,1.633313942E1,-3.270344734E0,1.436126977E-2
