"Time (s)","Gyroscope x (rad/s)","Gyroscope y (rad/s)","Gyroscope z (rad/s)"
2.613995900E-2,3.243763149E-1,4.472299814E-1,-7.664970309E-2
2.870089600E-2,3.243763149E-1,4.472299814E-1,-7.664970309E-2
3.113990600E-2,3.243763149E-1,4.472299814E-1,-7.664970309E-2
3.370084400E-2,3.243763149E-1,4.472299814E-1,-7.664970309E-2
3.622001100E-2,3.243763149E-1,4.472299814E-1,-7.664970309E-2
3.865902100E-2,3.243763149E-1,4.472299814E-1,-7.664970309E-2
4.109719800E-2,3.243763149E-1,4.472299814E-1,-7.664970309E-2
4.353620900E-2,3.243763149E-1,4.472299814E-1,-7.664970309E-2
4.597600000E-2,3.243763149E-1,4.472299814E-1,-7.664970309E-2
4.841495900E-2,3.243763149E-1,4.472299814E-1,-7.664970309E-2
5.085318800E-2,3.243763149E-1,4.472299814E-1,-7.664970309E-2
5.329214600E-2,3.243763149E-1,4.472299814E-1,-7.664970309E-2
5.573193800E-2,3.243763149E-1,4.472299814E-1,-7.664970309E-2
5.817094800E-2,3.243763149E-1,4.472299814E-1,-7.664970309E-2
6.060912500E-2,3.243763149E-1,4.472299814E-1,-7.664970309E-2
6.304813600E-2,3.243763149E-1,4.472299814E-1,-7.664970309E-2
6.548787500E-2,3.243763149E-1,4.472299814E-1,-7.664970309E-2
6.792688600E-2,3.243763149E-1,4.472299814E-1,-7.664970309E-2
7.036511500E-2,3.243763149E-1,4.472299814E-1,-7.664970309E-2
7.280407300E-2,3.243763149E-1,4.472299814E-1,-7.664970309E-2
7.524386500E-2,3.243763149E-1,4.472299814E-1,-7.664970309E-2
7.768287500E-2,3.243763149E-1,4.472299814E-1,-7.664970309E-2
8.012105200E-2,3.243763149E-1,4.472299814E-1,-7.664970309E-2
8.256006300E-2,3.243763149E-1,4.472299814E-1,-7.664970309E-2
8.499980200E-2,2.138741687E-2,-4.809902981E-3,1.498000231E-2
8.743881300E-2,2.138741687E-2,1.107257977E-2,1.620173268E-2
8.987699000E-2,1.894395798E-2,9.850850329E-3,1.253654342E-2
9.231600000E-2,1.772222854E-2,1.473776624E-2,1.131481398E-2
9.475579200E-2,1.650049910E-2,1.473776624E-2,1.131481398E-2
9.719475000E-2,1.283531077E-2,9.850850329E-3,1.131481398E-2
9.963297900E-2,1.161358133E-2,3.742203116E-3,8.871355094E-3
1.020719380E-1,6.726663560E-3,-4.809902981E-3,7.649626117E-3
1.045117290E-1,6.726663560E-3,-1.091855019E-2,7.649626117E-3
1.069507400E-1,7.948393002E-3,-2.191411518E-2,5.206167232E-3
1.093889170E-1,5.504934117E-3,-2.680103295E-2,2.762708347E-3
1.118279270E-1,5.504934117E-3,-3.901832551E-2,-9.024800966E-4
1.142677190E-1,5.504934117E-3,-4.268351570E-2,-9.024800966E-4
1.167066770E-1,5.504934117E-3,-4.879216105E-2,-4.567668308E-3
1.191449060E-1,7.948393002E-3,-5.123562366E-2,-4.567668308E-3
1.215838650E-1,6.726663560E-3,-5.490081012E-2,-5.789397750E-3
1.240236560E-1,9.170122445E-3,-5.245735124E-2,-7.011127193E-3
1.264626670E-1,1.527876966E-2,-4.146178812E-2,-5.789397750E-3
1.289008440E-1,1.039185189E-2,-4.512697458E-2,-8.232857101E-3
1.313398540E-1,1.839745790E-3,-4.634870589E-2,-1.067631599E-2
1.337795940E-1,9.170122445E-3,-3.290968016E-2,-9.454586543E-3
1.362186040E-1,1.161358133E-2,-1.947065629E-2,-9.454586543E-3
1.386567810E-1,1.161358133E-2,-1.580546796E-2,-1.189804543E-2
1.410957920E-1,1.161358133E-2,-4.809902981E-3,-1.067631599E-2
1.435355840E-1,1.161358133E-2,4.963932559E-3,-9.454586543E-3
1.459745420E-1,1.283531077E-2,1.473776624E-2,-7.011127193E-3
1.484127710E-1,1.283531077E-2,2.328987420E-2,-8.232857101E-3
1.508517290E-1,1.039185189E-2,2.573333308E-2,-5.789397750E-3
1.532915210E-1,1.039185189E-2,3.306370974E-2,-3.345938865E-3
1.557305310E-1,7.948393002E-3,3.672889620E-2,-3.345938865E-3
1.581687090E-1,6.726663560E-3,3.672889620E-2,-2.124209423E-3
1.606077190E-1,5.504934117E-3,3.550716862E-2,-3.345938865E-3
1.630475110E-1,6.180163473E-4,3.062025085E-2,-3.345938865E-3
1.654864690E-1,-3.047171980E-3,2.573333308E-2,-9.024800966E-4
1.679246460E-1,1.839745790E-3,2.817679197E-2,1.540978788E-3
1.703636560E-1,-1.825442538E-3,2.084641531E-2,-2.124209423E-3
1.728034480E-1,-4.268901423E-3,2.451160178E-2,-9.024800966E-4
1.752424590E-1,-3.047171980E-3,2.451160178E-2,-3.345938865E-3
1.776806360E-1,-5.490630865E-3,2.573333308E-2,-5.789397750E-3
1.801195940E-1,-5.490630865E-3,2.328987420E-2,-8.232857101E-3
1.825593860E-1,-6.712360308E-3,1.840295643E-2,-9.454586543E-3
1.849983960E-1,-6.712360308E-3,1.962468401E-2,-8.232857101E-3
1.874365730E-1,-6.712360308E-3,1.962468401E-2,-8.232857101E-3
1.898755840E-1,-7.934089750E-3,1.718122885E-2,-9.454586543E-3
1.923153750E-1,-7.934089750E-3,1.473776624E-2,-9.454586543E-3
1.947543340E-1,-7.934089750E-3,1.473776624E-2,-9.454586543E-3
1.971925630E-1,-1.037754864E-2,1.107257977E-2,-1.311977487E-2
1.996315210E-1,-1.159927808E-2,7.407391444E-3,-1.311977487E-2
2.020713130E-1,-1.282100752E-2,2.520473674E-3,-1.311977487E-2
2.045103230E-1,-1.282100752E-2,-1.144714653E-3,-1.556323376E-2
2.069485000E-1,-1.159927808E-2,-3.588173538E-3,-1.678496227E-2
2.093875110E-1,-1.037754864E-2,-1.091855019E-2,-1.922842115E-2
2.118272500E-1,-1.159927808E-2,-9.696820751E-3,-2.045015059E-2
2.142662610E-1,-7.934089750E-3,-1.580546796E-2,-2.167188004E-2
2.167044380E-1,-1.282100752E-2,-2.069238573E-2,-2.533706836E-2
2.191434480E-1,-1.037754864E-2,-1.947065629E-2,-2.411533892E-2
2.215832400E-1,-1.159927808E-2,-2.313584462E-2,-2.655879781E-2
2.240221980E-1,-1.159927808E-2,-2.191411518E-2,-2.655879781E-2
2.264604270E-1,-1.282100752E-2,-2.191411518E-2,-2.533706836E-2
2.288993860E-1,-1.526446640E-2,-1.947065629E-2,-2.533706836E-2
2.313391770E-1,-1.648619585E-2,-1.580546796E-2,-2.289360948E-2
2.337781880E-1,-1.770792529E-2,-1.580546796E-2,-2.289360948E-2
2.362163650E-1,-1.770792529E-2,-1.580546796E-2,-2.533706836E-2
2.386553750E-1,-1.892965473E-2,-1.091855019E-2,-2.289360948E-2
2.410951150E-1,-1.892965473E-2,-6.031632423E-3,-2.167188004E-2
2.435341250E-1,-2.015138417E-2,7.701478899E-5,-2.167188004E-2
2.459723020E-1,-2.137311362E-2,7.701478899E-5,-2.411533892E-2
2.484113130E-1,-2.259484306E-2,1.298744231E-3,-2.289360948E-2
2.508511040E-1,-2.381657250E-2,4.963932559E-3,-2.045015059E-2
2.532900630E-1,-2.503830194E-2,2.520473674E-3,-2.167188004E-2
2.557282920E-1,-2.992521971E-2,7.407391444E-3,-2.045015059E-2
2.581672500E-1,-2.992521971E-2,3.742203116E-3,-1.922842115E-2
2.606070420E-1,-3.114694729E-2,7.407391444E-3,-1.678496227E-2
2.630460520E-1,-3.359040990E-2,6.185662001E-3,-1.556323376E-2
2.654842290E-1,-3.481213748E-2,4.963932559E-3,-1.311977487E-2
2.679232400E-1,-3.847732767E-2,3.742203116E-3,-1.311977487E-2
2.703629790E-1,-3.847732767E-2,-2.366444096E-3,-1.067631599E-2
2.728019900E-1,-3.725559637E-2,-4.809902981E-3,-7.011127193E-3
2.752401670E-1,-3.847732767E-2,-1.336200908E-2,-7.011127193E-3
2.776791770E-1,-3.481213748E-2,-1.458373852E-2,-7.011127193E-3
2.801189690E-1,-3.603386506E-2,-2.191411518E-2,-7.011127193E-3
2.825579270E-1,-3.481213748E-2,-2.435757406E-2,-5.789397750E-3
2.849961560E-1,-3.359040990E-2,-2.557930350E-2,-7.011127193E-3
2.874351150E-1,-3.114694729E-2,-3.046622127E-2,-8.232857101E-3
2.898749060E-1,-2.870349213E-2,-2.924449183E-2,-9.454586543E-3
2.923139170E-1,-2.626002952E-2,-3.168795258E-2,-1.067631599E-2
2.947520940E-1,-2.503830194E-2,-2.924449183E-2,-1.067631599E-2
2.971911040E-1,-2.381657250E-2,-2.680103295E-2,-1.434150431E-2
2.996308960E-1,-2.259484306E-2,-2.435757406E-2,-1.434150431E-2
3.020698540E-1,-1.770792529E-2,-2.435757406E-2,-1.678496227E-2
3.045080310E-1,-2.015138417E-2,-2.069238573E-2,-1.678496227E-2
3.069470420E-1,-1.526446640E-2,-1.824892685E-2,-1.800669171E-2
3.093868340E-1,-1.282100752E-2,-1.580546796E-2,-1.800669171E-2
3.118257920E-1,-1.282100752E-2,-8.475091308E-3,-1.678496227E-2
3.142640210E-1,-1.404273696E-2,-4.809902981E-3,-1.678496227E-2
3.167029790E-1,-1.282100752E-2,-1.144714653E-3,-1.800669171E-2
3.191427710E-1,-1.159927808E-2,-1.144714653E-3,-1.922842115E-2
3.215817810E-1,-1.282100752E-2,-2.366444096E-3,-1.800669171E-2
3.240199590E-1,-1.037754864E-2,7.701478899E-5,-1.922842115E-2
3.264589690E-1,-1.037754864E-2,7.701478899E-5,-1.922842115E-2
3.288987610E-1,-1.037754864E-2,-1.144714653E-3,-2.045015059E-2
3.313377190E-1,-5.490630865E-3,1.298744231E-3,-1.922842115E-2
3.337758960E-1,-3.047171980E-3,-1.144714653E-3,-1.800669171E-2
3.362149060E-1,-6.037130952E-4,-3.588173538E-3,-1.800669171E-2
3.386546980E-1,1.839745790E-3,-9.696820751E-3,-1.800669171E-2
3.410937090E-1,5.504934117E-3,-8.475091308E-3,-1.434150431E-2
3.435318860E-1,4.283204675E-3,-1.336200908E-2,-1.311977487E-2
3.459708440E-1,6.726663560E-3,-1.702719741E-2,-1.189804543E-2
3.484106360E-1,6.726663560E-3,-2.069238573E-2,-1.067631599E-2
3.508496460E-1,5.504934117E-3,-2.313584462E-2,-8.232857101E-3
3.532878230E-1,3.061475232E-3,-2.069238573E-2,-7.011127193E-3
3.557268340E-1,5.504934117E-3,-2.313584462E-2,-5.789397750E-3
3.581665730E-1,1.839745790E-3,-2.802276239E-2,-7.011127193E-3
3.606055840E-1,4.283204675E-3,-2.191411518E-2,-2.124209423E-3
3.630438130E-1,5.504934117E-3,-2.191411518E-2,-2.124209423E-3
3.654827710E-1,7.948393002E-3,-1.824892685E-2,3.192493459E-4
3.679225630E-1,9.170122445E-3,-1.824892685E-2,2.762708347E-3
3.703615210E-1,1.283531077E-2,-1.458373852E-2,2.762708347E-3
3.727997500E-1,1.283531077E-2,-1.580546796E-2,3.192493459E-4
3.752387090E-1,1.283531077E-2,-1.214027964E-2,3.192493459E-4
3.776785000E-1,1.527876966E-2,-9.696820751E-3,1.540978788E-3
3.801175110E-1,1.650049910E-2,-9.696820751E-3,1.540978788E-3
3.825556880E-1,1.527876966E-2,-7.253361866E-3,2.762708347E-3
3.849946980E-1,1.527876966E-2,-7.253361866E-3,3.984437790E-3
3.874344900E-1,1.405704021E-2,-6.031632423E-3,3.984437790E-3
3.898734480E-1,1.527876966E-2,-4.809902981E-3,6.427896675E-3
3.923116250E-1,1.405704021E-2,-3.588173538E-3,6.427896675E-3
3.947506360E-1,1.527876966E-2,-6.031632423E-3,7.649626117E-3
3.971904270E-1,1.650049910E-2,-7.253361866E-3,8.871355094E-3
3.996293860E-1,1.894395798E-2,-7.253361866E-3,7.649626117E-3
4.020676150E-1,2.505260333E-2,-9.696820751E-3,7.649626117E-3
4.045065730E-1,2.383087575E-2,-1.580546796E-2,7.649626117E-3
4.069463650E-1,2.383087575E-2,-2.435757406E-2,7.649626117E-3
4.093853750E-1,2.627433464E-2,-2.435757406E-2,8.871355094E-3
4.118235520E-1,2.627433464E-2,-3.290968016E-2,7.649626117E-3
4.142625630E-1,2.505260333E-2,-3.901832551E-2,5.206167232E-3
4.167023020E-1,2.383087575E-2,-4.634870589E-2,3.984437790E-3
4.191413130E-1,2.138741687E-2,-5.123562366E-2,2.762708347E-3
4.215794900E-1,2.505260333E-2,-5.612254143E-2,3.192493459E-4
4.240185000E-1,2.260914817E-2,-6.345291436E-2,-2.124209423E-3
4.264582920E-1,2.138741687E-2,-6.711810082E-2,-4.567668308E-3
4.288972500E-1,2.138741687E-2,-6.711810082E-2,-8.232857101E-3
4.313354790E-1,2.016568556E-2,-6.956156343E-2,-9.454586543E-3
4.337744380E-1,1.894395798E-2,-7.444848120E-2,-1.434150431E-2
4.362142290E-1,1.772222854E-2,-7.200502604E-2,-1.556323376E-2
4.386532400E-1,1.772222854E-2,-6.589637697E-2,-1.678496227E-2
4.410914170E-1,1.405704021E-2,-6.589637697E-2,-1.800669171E-2
4.435304270E-1,1.283531077E-2,-6.223118678E-2,-2.045015059E-2
4.459701670E-1,1.283531077E-2,-5.856599659E-2,-2.167188004E-2
4.484091770E-1,1.039185189E-2,-5.856599659E-2,-2.411533892E-2
4.508473540E-1,7.948393002E-3,-5.245735124E-2,-2.655879781E-2
4.532863650E-1,9.170122445E-3,-4.512697458E-2,-2.900225669E-2
4.557261560E-1,1.161358133E-2,-4.268351570E-2,-2.778052725E-2
4.581651150E-1,1.161358133E-2,-3.413140774E-2,-3.022398800E-2
4.606033440E-1,1.527876966E-2,-3.168795258E-2,-3.266744316E-2
4.630423020E-1,1.650049910E-2,-2.680103295E-2,-3.266744316E-2
4.654820940E-1,1.650049910E-2,-2.557930350E-2,-3.511090577E-2
4.679211040E-1,1.405704021E-2,-2.435757406E-2,-3.388917446E-2
4.703592810E-1,1.527876966E-2,-2.313584462E-2,-3.511090577E-2
4.727982400E-1,1.650049910E-2,-2.435757406E-2,-3.755436093E-2
4.752380310E-1,1.650049910E-2,-2.557930350E-2,-3.511090577E-2
4.776770420E-1,1.405704021E-2,-3.168795258E-2,-3.755436093E-2
4.801152190E-1,1.283531077E-2,-3.535313904E-2,-3.633263335E-2
4.825542290E-1,1.039185189E-2,-4.146178812E-2,-3.633263335E-2
4.849940210E-1,7.948393002E-3,-4.757043347E-2,-3.633263335E-2
4.874329790E-1,9.170122445E-3,-5.490081012E-2,-3.877609223E-2
4.898711560E-1,9.170122445E-3,-5.978772789E-2,-3.877609223E-2
4.923101670E-1,7.948393002E-3,-6.956156343E-2,-4.244127870E-2
4.947499590E-1,7.948393002E-3,-7.933539897E-2,-4.366301000E-2
4.971889170E-1,7.948393002E-3,-9.033095837E-2,-4.488474131E-2
4.996271460E-1,6.726663560E-3,-9.277442098E-2,-4.610646516E-2
5.020661040E-1,4.283204675E-3,-9.888306260E-2,-4.488474131E-2
5.045058960E-1,3.061475232E-3,-1.037699878E-1,-4.610646516E-2
5.069449060E-1,1.839745790E-3,-1.062134355E-1,-4.610646516E-2
5.093830840E-1,-6.037130952E-4,-1.049917191E-1,-4.610646516E-2
5.118220940E-1,-6.712360308E-3,-1.135438234E-1,-4.732819647E-2
5.142618860E-1,-7.934089750E-3,-1.111003608E-1,-4.610646516E-2
5.167008440E-1,-1.159927808E-2,-1.147655547E-1,-4.610646516E-2
5.191390210E-1,-1.892965473E-2,-1.208741963E-1,-4.610646516E-2
5.215780310E-1,-2.137311362E-2,-1.233176589E-1,-4.732819647E-2
5.240178230E-1,-2.626002952E-2,-1.306480318E-1,-4.488474131E-2
5.264567810E-1,-3.114694729E-2,-1.306480318E-1,-4.488474131E-2
5.288950110E-1,-3.481213748E-2,-1.294263005E-1,-4.488474131E-2
5.313339690E-1,-4.336424544E-2,-1.294263005E-1,-4.366301000E-2
5.337737610E-1,-4.458597302E-2,-1.282045692E-1,-4.366301000E-2
5.362127710E-1,-5.191634968E-2,-1.269828379E-1,-4.121954739E-2
5.386509480E-1,-5.802499875E-2,-1.269828379E-1,-4.488474131E-2
5.410899590E-1,-6.169018522E-2,-1.245393902E-1,-4.488474131E-2
5.435296980E-1,-6.779883802E-2,-1.184307337E-1,-4.488474131E-2
5.459687090E-1,-7.390747964E-2,-1.184307337E-1,-4.610646516E-2
5.484068860E-1,-7.512921095E-2,-1.135438234E-1,-4.488474131E-2
5.508458960E-1,-8.001612127E-2,-1.123220921E-1,-4.610646516E-2
5.532856880E-1,-8.612477779E-2,-1.159872711E-1,-4.854992777E-2
5.557246460E-1,-8.856822550E-2,-1.135438234E-1,-5.099338293E-2
5.581628750E-1,-8.978995681E-2,-1.111003608E-1,-5.221511424E-2
5.606018340E-1,-8.856822550E-2,-1.086568981E-1,-5.343684554E-2
5.630416250E-1,-9.345515072E-2,-1.086568981E-1,-5.465857685E-2
5.654805840E-1,-9.223341942E-2,-1.135438234E-1,-5.954549462E-2
5.679188130E-1,-9.101168811E-2,-1.001047939E-1,-5.832376331E-2
5.703577710E-1,-9.223341942E-2,-1.049917191E-1,-5.710203201E-2
5.727975630E-1,-8.978995681E-2,-1.049917191E-1,-5.588030070E-2
5.752365730E-1,-8.856822550E-2,-1.025482565E-1,-5.832376331E-2
5.776747500E-1,-8.612477779E-2,-1.025482565E-1,-5.954549462E-2
5.801137610E-1,-8.245958388E-2,-1.013265252E-1,-5.954549462E-2
5.825535000E-1,-8.001612127E-2,-9.643959999E-2,-6.076721847E-2
5.849925110E-1,-8.001612127E-2,-9.643959999E-2,-6.198894978E-2
5.874306880E-1,-7.757267356E-2,-9.277442098E-2,-6.198894978E-2
5.898696980E-1,-7.879438996E-2,-9.155268967E-2,-6.076721847E-2
5.923094900E-1,-7.879438996E-2,-9.033095837E-2,-6.076721847E-2
5.947484480E-1,-7.757267356E-2,-9.033095837E-2,-6.076721847E-2
5.971866770E-1,-7.635094225E-2,-9.277442098E-2,-6.076721847E-2
5.996256360E-1,-7.757267356E-2,-9.521788359E-2,-5.832376331E-2
6.020654270E-1,-7.879438996E-2,-1.001047939E-1,-5.954549462E-2
6.045044380E-1,-7.757267356E-2,-1.025482565E-1,-6.198894978E-2
6.069426150E-1,-7.879438996E-2,-1.086568981E-1,-6.321068108E-2
6.093815730E-1,-8.123785257E-2,-1.159872711E-1,-6.565413624E-2
6.118213650E-1,-8.001612127E-2,-1.208741963E-1,-6.565413624E-2
6.142603750E-1,-7.635094225E-2,-1.269828379E-1,-6.565413624E-2
6.166985520E-1,-7.635094225E-2,-1.379784048E-1,-6.687586755E-2
6.191375630E-1,-7.512921095E-2,-1.440870464E-1,-6.565413624E-2
6.215773020E-1,-7.512921095E-2,-1.538608819E-1,-6.687586755E-2
6.240163130E-1,-7.146401703E-2,-1.550826132E-1,-6.565413624E-2
6.264544900E-1,-7.024228573E-2,-1.599695385E-1,-6.687586755E-2
6.288935000E-1,-6.902055442E-2,-1.599695385E-1,-6.931933016E-2
6.313332920E-1,-6.902055442E-2,-1.599695385E-1,-7.054105401E-2
6.337722500E-1,-6.779883802E-2,-1.648564488E-1,-7.298451662E-2
6.362104790E-1,-6.657710671E-2,-1.624130011E-1,-7.420624048E-2
6.386494380E-1,-6.779883802E-2,-1.611912698E-1,-7.664970309E-2
6.410892290E-1,-6.657710671E-2,-1.587478071E-1,-7.909316570E-2
6.435282400E-1,-6.535537541E-2,-1.514174342E-1,-7.664970309E-2
6.459664170E-1,-6.169018522E-2,-1.416435987E-1,-7.664970309E-2
6.484053750E-1,-6.046845391E-2,-1.306480318E-1,-7.420624048E-2
6.508451670E-1,-5.680326745E-2,-1.257611066E-1,-7.420624048E-2
6.532841770E-1,-5.680326745E-2,-1.184307337E-1,-7.054105401E-2
6.557223540E-1,-5.313808098E-2,-1.098786294E-1,-6.687586755E-2
6.581613650E-1,-5.313808098E-2,-1.001047939E-1,-6.565413624E-2
6.606011040E-1,-5.313808098E-2,-9.033095837E-2,-6.443241239E-2
6.630401150E-1,-5.313808098E-2,-8.177885413E-2,-6.443241239E-2
6.654782920E-1,-4.947289079E-2,-7.078329474E-2,-6.198894978E-2
6.679173020E-1,-5.191634968E-2,-6.589637697E-2,-6.198894978E-2
6.703570940E-1,-4.825116321E-2,-6.100945920E-2,-6.076721847E-2
6.727960520E-1,-4.702943191E-2,-5.978772789E-2,-5.954549462E-2
6.752342810E-1,-4.458597302E-2,-5.490081012E-2,-5.832376331E-2
6.776732400E-1,-4.336424544E-2,-5.367907882E-2,-5.832376331E-2
6.801130310E-1,-3.847732767E-2,-5.245735124E-2,-5.710203201E-2
6.825520420E-1,-3.847732767E-2,-5.612254143E-2,-5.588030070E-2
6.849902190E-1,-3.359040990E-2,-6.345291436E-2,-5.954549462E-2
6.874292290E-1,-2.992521971E-2,-6.956156343E-2,-6.076721847E-2
6.898689690E-1,-2.870349213E-2,-7.933539897E-2,-6.198894978E-2
6.923079790E-1,-2.870349213E-2,-8.422231674E-2,-5.954549462E-2
6.947461560E-1,-2.381657250E-2,-8.666576445E-2,-5.832376331E-2
6.971851670E-1,-2.137311362E-2,-8.910922706E-2,-5.954549462E-2
6.996249590E-1,-1.892965473E-2,-9.277442098E-2,-5.954549462E-2
7.020639170E-1,-1.770792529E-2,-9.766133130E-2,-5.954549462E-2
7.045020940E-1,-1.648619585E-2,-1.001047939E-1,-5.588030070E-2
7.069411040E-1,-1.648619585E-2,-1.025482565E-1,-5.343684554E-2
7.093808960E-1,-1.770792529E-2,-1.086568981E-1,-5.465857685E-2
7.118198540E-1,-1.648619585E-2,-1.123220921E-1,-5.588030070E-2
7.142580840E-1,-1.770792529E-2,-1.147655547E-1,-5.465857685E-2
7.166970420E-1,-1.892965473E-2,-1.184307337E-1,-5.221511424E-2
7.191368340E-1,-2.137311362E-2,-1.208741963E-1,-5.465857685E-2
7.215758440E-1,-2.381657250E-2,-1.233176589E-1,-5.221511424E-2
7.240140210E-1,-2.503830194E-2,-1.294263005E-1,-5.221511424E-2
7.264529790E-1,-2.503830194E-2,-1.453087777E-1,-5.221511424E-2
7.288927710E-1,-2.259484306E-2,-1.636347175E-1,-5.221511424E-2
7.313317810E-1,-1.892965473E-2,-1.782954782E-1,-5.099338293E-2
7.337699590E-1,-1.282100752E-2,-1.856258512E-1,-5.221511424E-2
7.362089690E-1,-1.037754864E-2,-1.929562241E-1,-5.832376331E-2
7.386487090E-1,-1.037754864E-2,-1.856258512E-1,-5.832376331E-2
7.410877190E-1,-6.712360308E-3,-1.831823885E-1,-5.954549462E-2
7.435258960E-1,-6.712360308E-3,-1.807389408E-1,-5.954549462E-2
7.459649060E-1,-4.268901423E-3,-1.709651053E-1,-5.465857685E-2
7.484046980E-1,-1.825442538E-3,-1.648564488E-1,-5.221511424E-2
7.508436560E-1,-3.047171980E-3,-1.550826132E-1,-4.732819647E-2
7.532818340E-1,-3.047171980E-3,-1.501957029E-1,-4.366301000E-2
7.557208440E-1,-6.037130952E-4,-1.404218674E-1,-4.366301000E-2
7.581606360E-1,-1.825442538E-3,-1.379784048E-1,-4.121954739E-2
7.605995940E-1,1.839745790E-3,-1.318697631E-1,-3.633263335E-2
7.630378230E-1,4.283204675E-3,-1.233176589E-1,-3.511090577E-2
7.654767810E-1,1.405704021E-2,-1.208741963E-1,-2.900225669E-2
7.679165730E-1,1.405704021E-2,-1.282045692E-1,-2.900225669E-2
7.703555840E-1,2.627433464E-2,-1.245393902E-1,-2.167188004E-2
7.727937610E-1,2.749606594E-2,-1.379784048E-1,-2.289360948E-2
7.752327710E-1,3.116125241E-2,-1.404218674E-1,-2.167188004E-2
7.776725110E-1,2.871779352E-2,-1.477522403E-1,-2.289360948E-2
7.801115210E-1,2.505260333E-2,-1.477522403E-1,-2.655879781E-2
7.825496980E-1,2.138741687E-2,-1.440870464E-1,-3.266744316E-2
7.849887090E-1,1.650049910E-2,-1.465305090E-1,-3.755436093E-2
7.874285000E-1,1.405704021E-2,-1.343132108E-1,-3.755436093E-2
7.898674590E-1,1.283531077E-2,-1.282045692E-1,-3.755436093E-2
7.923056360E-1,1.283531077E-2,-1.208741963E-1,-3.511090577E-2
7.947446460E-1,1.405704021E-2,-1.159872711E-1,-3.388917446E-2
7.971844380E-1,1.527876966E-2,-1.037699878E-1,-3.144571558E-2
7.996233960E-1,1.894395798E-2,-9.399615228E-2,-3.022398800E-2
8.020616250E-1,2.138741687E-2,-8.422231674E-2,-3.266744316E-2
8.045005840E-1,2.016568556E-2,-7.811366767E-2,-3.388917446E-2
8.069403750E-1,1.894395798E-2,-7.078329474E-2,-3.388917446E-2
8.093793860E-1,1.527876966E-2,-6.467464566E-2,-3.633263335E-2
8.118175630E-1,1.039185189E-2,-6.711810082E-2,-3.755436093E-2
8.142565210E-1,4.283204675E-3,-6.467464566E-2,-3.999782354E-2
8.166963130E-1,3.061475232E-3,-6.223118678E-2,-3.999782354E-2
8.191353230E-1,-3.047171980E-3,-5.978772789E-2,-4.488474131E-2
8.215735000E-1,-4.268901423E-3,-6.100945920E-2,-4.488474131E-2
8.240125110E-1,-9.155819193E-3,-6.345291436E-2,-4.488474131E-2
8.264522500E-1,-1.037754864E-2,-7.322674990E-2,-4.488474131E-2
8.288912610E-1,-1.159927808E-2,-8.300058544E-2,-4.366301000E-2
8.313294380E-1,-1.159927808E-2,-1.025482565E-1,-4.488474131E-2
8.337684480E-1,-1.037754864E-2,-1.233176589E-1,-4.488474131E-2
8.362082400E-1,-1.037754864E-2,-1.428653300E-1,-4.366301000E-2
8.386471980E-1,-1.037754864E-2,-1.746302843E-1,-4.610646516E-2
8.410854270E-1,-1.282100752E-2,-1.990648806E-1,-4.610646516E-2
8.435243860E-1,-1.526446640E-2,-2.234994620E-1,-4.732819647E-2
8.459641770E-1,-1.892965473E-2,-2.479340583E-1,-4.610646516E-2
8.484031360E-1,-2.015138417E-2,-2.638165355E-1,-4.488474131E-2
8.508413650E-1,-2.259484306E-2,-2.735904157E-1,-4.121954739E-2
8.532803230E-1,-2.259484306E-2,-2.858076990E-1,-3.633263335E-2
8.557201150E-1,-2.137311362E-2,-2.906946242E-1,-3.266744316E-2
8.581591250E-1,-1.892965473E-2,-2.882511616E-1,-3.022398800E-2
8.605973020E-1,-1.526446640E-2,-2.809207737E-1,-2.655879781E-2
8.630363130E-1,-1.282100752E-2,-2.760338485E-1,-2.655879781E-2
8.654760520E-1,-7.934089750E-3,-2.577078938E-1,-2.778052725E-2
8.679150630E-1,-3.047171980E-3,-2.454905957E-1,-3.022398800E-2
8.703532400E-1,1.839745790E-3,-2.259429246E-1,-3.266744316E-2
8.727922500E-1,7.948393002E-3,-2.027300596E-1,-3.511090577E-2
8.752319900E-1,1.283531077E-2,-1.868475825E-1,-3.877609223E-2
8.776710000E-1,2.016568556E-2,-1.672999114E-1,-4.244127870E-2
8.801091770E-1,2.871779352E-2,-1.428653300E-1,-4.121954739E-2
8.825481880E-1,3.604817018E-2,-1.269828379E-1,-4.244127870E-2
8.849879790E-1,3.849162906E-2,-1.098786294E-1,-4.366301000E-2
8.874269380E-1,4.460027441E-2,-9.766133130E-2,-4.488474131E-2
8.898651670E-1,4.948719218E-2,-8.300058544E-2,-4.610646516E-2
8.923041250E-1,5.559584126E-2,-7.322674990E-2,-4.488474131E-2
8.947439170E-1,5.681757256E-2,-6.589637697E-2,-4.366301000E-2
8.971828750E-1,5.926102772E-2,-6.223118678E-2,-4.366301000E-2
8.996211040E-1,5.926102772E-2,-5.978772789E-2,-4.121954739E-2
9.020600630E-1,5.926102772E-2,-5.734426901E-2,-3.999782354E-2
9.044998540E-1,5.803929642E-2,-5.612254143E-2,-3.633263335E-2
9.069388650E-1,5.437410995E-2,-5.612254143E-2,-3.388917446E-2
9.093770420E-1,5.437410995E-2,-4.757043347E-2,-3.022398800E-2
9.118160000E-1,5.315238610E-2,-4.512697458E-2,-2.655879781E-2
9.142557920E-1,4.948719218E-2,-3.779659793E-2,-2.289360948E-2
9.166948020E-1,4.582200572E-2,-3.413140774E-2,-2.045015059E-2
9.191329790E-1,4.460027441E-2,-2.435757406E-2,-1.800669171E-2
9.215719900E-1,4.460027441E-2,-2.435757406E-2,-1.678496227E-2
9.240117290E-1,4.093508795E-2,-2.069238573E-2,-1.678496227E-2
9.264507400E-1,3.971335664E-2,-1.214027964E-2,-1.556323376E-2
9.288889170E-1,3.971335664E-2,-9.696820751E-3,-1.556323376E-2
9.313279270E-1,4.337854683E-2,-1.144714653E-3,-1.556323376E-2
9.337677190E-1,4.093508795E-2,-7.253361866E-3,-1.800669171E-2
9.362066770E-1,4.215681925E-2,-6.031632423E-3,-1.800669171E-2
9.386448540E-1,3.971335664E-2,-6.031632423E-3,-1.678496227E-2
9.410838650E-1,4.093508795E-2,-1.214027964E-2,-1.556323376E-2
9.435236560E-1,4.582200572E-2,-1.458373852E-2,-1.311977487E-2
9.459626150E-1,4.215681925E-2,-2.191411518E-2,-1.067631599E-2
9.484008440E-1,4.337854683E-2,-2.191411518E-2,-7.011127193E-3
9.508398020E-1,4.337854683E-2,-3.168795258E-2,-4.567668308E-3
9.532795940E-1,4.337854683E-2,-3.413140774E-2,-2.124209423E-3
9.557185520E-1,4.460027441E-2,-3.657487035E-2,3.192493459E-4
9.581567810E-1,4.460027441E-2,-4.146178812E-2,2.762708347E-3
9.605957400E-1,4.704373702E-2,-4.268351570E-2,5.206167232E-3
9.630355310E-1,4.704373702E-2,-5.123562366E-2,8.871355094E-3
9.654745420E-1,4.582200572E-2,-6.467464566E-2,1.131481398E-2
9.679127190E-1,4.582200572E-2,-7.200502604E-2,1.498000231E-2
9.703517290E-1,4.948719218E-2,-7.567021251E-2,1.986692101E-2
9.727914690E-1,5.193065479E-2,-9.277442098E-2,1.986692101E-2
9.752304790E-1,5.559584126E-2,-1.013265252E-1,2.475383691E-2
9.776686560E-1,5.437410995E-2,-1.123220921E-1,2.719729953E-2
9.801076670E-1,5.559584126E-2,-1.208741963E-1,2.719729953E-2
9.825474060E-1,5.926102772E-2,-1.245393902E-1,2.964075468E-2
9.849864170E-1,6.170449033E-2,-1.318697631E-1,3.086248599E-2
9.874245940E-1,6.536968052E-2,-1.367566735E-1,3.086248599E-2
9.898636040E-1,6.781312823E-2,-1.453087777E-1,3.330594301E-2
9.923033960E-1,7.025659084E-2,-1.501957029E-1,3.330594301E-2
9.947423540E-1,7.270005345E-2,-1.550826132E-1,3.452767432E-2
9.971805840E-1,7.514351606E-2,-1.538608819E-1,3.452767432E-2
9.996195420E-1,8.125215769E-2,-1.538608819E-1,3.941459209E-2
1.002059334E0,8.247388899E-2,-1.563043445E-1,3.941459209E-2
1.004498292E0,8.613908291E-2,-1.575260758E-1,4.063632339E-2
1.006936521E0,9.102599323E-2,-1.587478071E-1,4.185805470E-2
1.009375479E0,9.346945584E-2,-1.538608819E-1,4.307977855E-2
1.011815271E0,9.835636616E-2,-1.599695385E-1,4.552324116E-2
1.014254281E0,1.032432914E-1,-1.611912698E-1,4.674497247E-2
1.016692459E0,1.081302017E-1,-1.599695385E-1,4.796669632E-2
1.019131417E0,1.093519330E-1,-1.648564488E-1,4.674497247E-2
1.021571209E0,1.142388582E-1,-1.648564488E-1,4.674497247E-2
1.024010219E0,1.179040372E-1,-1.599695385E-1,4.796669632E-2
1.026448396E0,1.240126789E-1,-1.599695385E-1,4.674497247E-2
1.028887406E0,1.227909625E-1,-1.587478071E-1,4.674497247E-2
1.031327146E0,1.276778728E-1,-1.599695385E-1,4.430150986E-2
1.033766156E0,1.313430667E-1,-1.587478071E-1,4.307977855E-2
1.036204334E0,1.325647831E-1,-1.550826132E-1,4.430150986E-2
1.038643344E0,1.350082457E-1,-1.489739716E-1,4.430150986E-2
1.041083136E0,1.350082457E-1,-1.428653300E-1,4.307977855E-2
1.043522094E0,1.374517083E-1,-1.330914795E-1,4.674497247E-2
1.045960271E0,1.374517083E-1,-1.208741963E-1,4.796669632E-2
1.048399281E0,1.398951709E-1,-1.062134355E-1,4.796669632E-2
1.050839073E0,1.411168873E-1,-8.910922706E-2,5.163189024E-2
1.053278031E0,1.386734247E-1,-7.689193636E-2,5.041015893E-2
1.055716261E0,1.398951709E-1,-6.345291436E-2,5.163189024E-2
1.058155219E0,1.398951709E-1,-5.001389235E-2,5.285361409E-2
1.060595011E0,1.386734247E-1,-3.901832551E-2,5.651880801E-2
1.063033969E0,1.362299919E-1,-2.191411518E-2,5.896226317E-2
1.065472198E0,1.362299919E-1,-1.091855019E-2,6.140572578E-2
1.067911156E0,1.350082457E-1,7.701478899E-5,6.507091224E-2
1.070350948E0,1.313430667E-1,8.629120886E-3,6.873609871E-2
1.072789959E0,1.252344251E-1,1.473776624E-2,6.995783001E-2
1.075228136E0,1.240126789E-1,2.328987420E-2,7.117956132E-2
1.077667094E0,1.179040372E-1,3.184197843E-2,7.117956132E-2
1.080106886E0,1.117953956E-1,3.917235881E-2,7.240129262E-2
1.082545896E0,1.044650227E-1,3.672889620E-2,7.240129262E-2
1.084984073E0,9.957809746E-2,3.550716862E-2,7.240129262E-2
1.087423084E0,9.591291845E-2,3.550716862E-2,7.362301648E-2
1.089862823E0,9.102599323E-2,3.306370974E-2,7.728820294E-2
1.092301834E0,8.491735160E-2,2.328987420E-2,7.973166555E-2
1.094740011E0,8.491735160E-2,1.473776624E-2,8.095339686E-2
1.097179021E0,8.613908291E-2,7.407391444E-3,8.584031463E-2
1.099618761E0,8.491735160E-2,-2.366444096E-3,8.950550109E-2
1.102057771E0,8.613908291E-2,-7.253361866E-3,9.194896370E-2
1.104495948E0,8.858253062E-2,-1.947065629E-2,9.317068756E-2
1.106934959E0,9.102599323E-2,-2.802276239E-2,9.439241886E-2
1.109374750E0,9.102599323E-2,-3.779659793E-2,9.683587402E-2
1.111813709E0,9.224772453E-2,-5.367907882E-2,9.683587402E-2
1.114251886E0,9.224772453E-2,-6.100945920E-2,9.683587402E-2
1.116690896E0,9.713464975E-2,-7.078329474E-2,9.683587402E-2
1.119130688E0,9.835636616E-2,-8.422231674E-2,9.927933663E-2
1.121569646E0,9.957809746E-2,-9.277442098E-2,1.005010679E-1
1.124007875E0,1.020215601E-1,-1.025482565E-1,1.005010679E-1
1.126446834E0,1.044650227E-1,-1.123220921E-1,1.005010679E-1
1.128886625E0,1.056867540E-1,-1.184307337E-1,9.927933663E-2
1.131325584E0,1.093519330E-1,-1.196524650E-1,9.927933663E-2
1.133763813E0,1.105736643E-1,-1.196524650E-1,1.005010679E-1
1.136202771E0,1.142388582E-1,-1.220959276E-1,1.005010679E-1
1.138642563E0,1.166823208E-1,-1.233176589E-1,9.927933663E-2
1.141081573E0,1.191257685E-1,-1.220959276E-1,1.005010679E-1
1.143519750E0,1.215692163E-1,-1.208741963E-1,1.029445231E-1
1.145958709E0,1.252344251E-1,-1.111003608E-1,1.066097096E-1
1.148398500E0,1.264561415E-1,-1.074351668E-1,1.078314409E-1
1.150837511E0,1.301213354E-1,-1.001047939E-1,1.114966348E-1
1.153275688E0,1.337865293E-1,-1.001047939E-1,1.127183586E-1
1.155714698E0,1.337865293E-1,-9.033095837E-2,1.176052764E-1
1.158154438E0,1.313430667E-1,-8.055712283E-2,1.200487390E-1
1.160593448E0,1.313430667E-1,-6.711810082E-2,1.212704703E-1
1.163031625E0,1.301213354E-1,-5.123562366E-2,1.237139180E-1
1.165470636E0,1.252344251E-1,-4.146178812E-2,1.200487390E-1
1.167910427E0,1.240126789E-1,-2.802276239E-2,1.200487390E-1
1.170349386E0,1.252344251E-1,-1.214027964E-2,1.200487390E-1
1.172787563E0,1.240126789E-1,-1.144714653E-3,1.188270077E-1
1.175226573E0,1.240126789E-1,1.351603866E-2,1.176052764E-1
1.177666365E0,1.227909625E-1,2.451160178E-2,1.188270077E-1
1.180105323E0,1.240126789E-1,2.939851955E-2,1.163835451E-1
1.182543552E0,1.215692163E-1,3.550716862E-2,1.127183586E-1
1.184982511E0,1.203474998E-1,3.306370974E-2,1.090531722E-1
1.187422302E0,1.166823208E-1,3.550716862E-2,1.066097096E-1
1.189861261E0,1.117953956E-1,3.062025085E-2,1.029445231E-1
1.192299490E0,1.069084853E-1,2.695506439E-2,1.005010679E-1
1.194738448E0,1.007998288E-1,1.595949754E-2,9.683587402E-2
1.197178240E0,9.591291845E-2,1.107257977E-2,9.561415017E-2
1.199617198E0,8.369562030E-2,7.701478899E-5,9.194896370E-2
1.202055427E0,7.636524737E-2,-3.588173538E-3,9.072723240E-2
1.204494386E0,6.903485954E-2,-9.696820751E-3,8.828376979E-2
1.206934177E0,5.926102772E-2,-1.580546796E-2,8.584031463E-2
1.209373188E0,4.948719218E-2,-1.824892685E-2,8.339685202E-2
1.211811365E0,4.093508795E-2,-2.191411518E-2,8.095339686E-2
1.214250375E0,3.604817018E-2,-2.313584462E-2,7.973166555E-2
1.216690115E0,2.871779352E-2,-2.557930350E-2,7.606647909E-2
1.219129125E0,1.894395798E-2,-3.046622127E-2,6.995783001E-2
1.221567302E0,1.283531077E-2,-2.924449183E-2,6.629264355E-2
1.224006313E0,9.170122445E-3,-2.802276239E-2,6.262745708E-2
1.226446052E0,6.180163473E-4,-2.557930350E-2,5.774053186E-2
1.228885063E0,-4.268901423E-3,-2.313584462E-2,5.285361409E-2
1.231323240E0,-6.712360308E-3,-1.214027964E-2,5.285361409E-2
1.233762250E0,-9.155819193E-3,-1.091855019E-2,5.041015893E-2
1.236202042E0,-1.282100752E-2,-1.144714653E-3,4.796669632E-2
1.238641000E0,-1.770792529E-2,7.701478899E-5,4.307977855E-2
1.241079177E0,-2.137311362E-2,3.742203116E-3,4.063632339E-2
1.243518188E0,-2.748176083E-2,1.595949754E-2,3.697113693E-2
1.245957979E0,-3.603386506E-2,1.595949754E-2,2.964075468E-2
1.248396938E0,-3.847732767E-2,1.962468401E-2,2.841902710E-2
1.250835115E0,-4.092078283E-2,2.084641531E-2,2.597556822E-2
1.253274125E0,-4.580770060E-2,2.328987420E-2,2.597556822E-2
1.255713917E0,-4.458597302E-2,2.206814662E-2,2.841902710E-2
1.258152875E0,-4.336424544E-2,1.840295643E-2,2.964075468E-2
1.260591104E0,-3.969905525E-2,1.595949754E-2,3.086248599E-2
1.263030063E0,-3.236867860E-2,1.351603866E-2,3.574940562E-2
1.265469854E0,-2.992521971E-2,1.351603866E-2,3.697113693E-2
1.267908813E0,-2.259484306E-2,1.473776624E-2,3.941459209E-2
1.270347042E0,-1.770792529E-2,1.718122885E-2,4.185805470E-2
1.272786000E0,-1.526446640E-2,1.473776624E-2,4.185805470E-2
1.275225792E0,-1.037754864E-2,1.718122885E-2,4.430150986E-2
1.277664802E0,-3.047171980E-3,2.451160178E-2,4.430150986E-2
1.280102979E0,-1.825442538E-3,3.184197843E-2,4.674497247E-2
1.282541938E0,4.283204675E-3,4.528100416E-2,4.918842763E-2
1.284981729E0,1.039185189E-2,5.505483970E-2,5.163189024E-2
1.287420740E0,1.650049910E-2,6.971560419E-2,5.285361409E-2
1.289858917E0,2.260914817E-2,8.681981266E-2,5.529707670E-2
1.292297875E0,3.116125241E-2,9.781537950E-2,5.774053186E-2
1.294737667E0,3.849162906E-2,1.112543941E-1,6.140572578E-2
1.297176677E0,4.215681925E-2,1.185847819E-1,6.384918094E-2
1.299614854E0,5.070892349E-2,1.283586174E-1,6.629264355E-2
1.302053865E0,5.315238610E-2,1.320237964E-1,6.629264355E-2
1.304493604E0,6.170449033E-2,1.344672590E-1,6.873609871E-2
1.306932615E0,6.536968052E-2,1.405759156E-1,7.240129262E-2
1.309370792E0,6.903485954E-2,1.369107217E-1,7.362301648E-2
1.311809802E0,6.903485954E-2,1.332455277E-1,7.362301648E-2
1.314249542E0,7.025659084E-2,1.295803487E-1,7.728820294E-2
1.316688552E0,7.270005345E-2,1.234716922E-1,7.850993425E-2
1.319126729E0,7.147832215E-2,1.222499609E-1,7.973166555E-2
1.321565740E0,7.025659084E-2,1.112543941E-1,7.850993425E-2
1.324005531E0,7.270005345E-2,1.088109463E-1,7.973166555E-2
1.326444490E0,7.392178476E-2,9.903711081E-2,7.728820294E-2
1.328882667E0,7.147832215E-2,8.926327527E-2,7.728820294E-2
1.331321677E0,7.270005345E-2,7.826770842E-2,7.728820294E-2
1.333761469E0,7.514351606E-2,7.948943973E-2,7.973166555E-2
1.336200427E0,7.514351606E-2,7.704597712E-2,7.973166555E-2
1.338638656E0,7.636524737E-2,7.093732059E-2,7.850993425E-2
1.341077615E0,7.880869508E-2,6.971560419E-2,7.728820294E-2
1.343517406E0,7.880869508E-2,6.482867897E-2,7.850993425E-2
1.345956365E0,8.491735160E-2,6.849387288E-2,7.850993425E-2
1.348394594E0,8.736081421E-2,6.849387288E-2,7.850993425E-2
1.350833552E0,8.736081421E-2,6.849387288E-2,7.850993425E-2
1.353273344E0,8.736081421E-2,6.360694766E-2,7.850993425E-2
1.355712354E0,8.858253062E-2,6.116348132E-2,7.728820294E-2
1.358150531E0,9.102599323E-2,5.627657101E-2,7.362301648E-2
1.360589490E0,9.346945584E-2,4.894619808E-2,7.240129262E-2
1.363029281E0,9.102599323E-2,3.428544104E-2,7.240129262E-2
1.365468292E0,9.469118714E-2,3.672889620E-2,7.606647909E-2
1.367906469E0,9.224772453E-2,1.962468401E-2,7.362301648E-2
1.370345427E0,9.102599323E-2,1.473776624E-2,7.362301648E-2
1.372785219E0,8.736081421E-2,1.107257977E-2,7.606647909E-2
1.375224229E0,8.125215769E-2,7.407391444E-3,7.484474778E-2
1.377662406E0,7.758697867E-2,-3.588173538E-3,7.484474778E-2
1.380101365E0,7.392178476E-2,-1.091855019E-2,7.484474778E-2
1.382541156E0,7.270005345E-2,-2.435757406E-2,7.484474778E-2
1.384980167E0,7.270005345E-2,-3.657487035E-2,7.484474778E-2
1.387418344E0,7.025659084E-2,-5.001389235E-2,7.362301648E-2
1.389857354E0,7.025659084E-2,-6.956156343E-2,7.117956132E-2
1.392297094E0,7.025659084E-2,-8.300058544E-2,7.240129262E-2
1.394736104E0,7.025659084E-2,-1.049917191E-1,6.873609871E-2
1.397174281E0,7.147832215E-2,-1.159872711E-1,6.995783001E-2
1.399613292E0,7.147832215E-2,-1.282045692E-1,6.507091224E-2
1.402053031E0,7.025659084E-2,-1.330914795E-1,6.384918094E-2
1.404492042E0,7.147832215E-2,-1.330914795E-1,6.140572578E-2
1.406930219E0,7.270005345E-2,-1.294263005E-1,5.651880801E-2
1.409369229E0,7.514351606E-2,-1.184307337E-1,5.529707670E-2
1.411809021E0,7.270005345E-2,-1.111003608E-1,4.796669632E-2
1.414247979E0,7.270005345E-2,-1.013265252E-1,4.430150986E-2
1.416686156E0,7.392178476E-2,-9.155268967E-2,4.063632339E-2
1.419125167E0,7.392178476E-2,-8.177885413E-2,3.452767432E-2
1.421564959E0,7.270005345E-2,-7.689193636E-2,2.964075468E-2
1.424003917E0,6.903485954E-2,-6.589637697E-2,2.353210934E-2
1.426442094E0,7.025659084E-2,-6.223118678E-2,1.742346212E-2
1.428881104E0,6.536968052E-2,-5.490081012E-2,1.009308454E-2
1.431320896E0,6.414794922E-2,-4.390524328E-2,1.009308454E-2
1.433759854E0,6.170449033E-2,-4.512697458E-2,3.984437790E-3
1.436198031E0,5.803929642E-2,-4.268351570E-2,3.192493459E-4
1.438637042E0,5.559584126E-2,-4.390524328E-2,-2.124209423E-3
1.441076834E0,5.315238610E-2,-3.901832551E-2,-5.789397750E-3
1.443515792E0,4.460027441E-2,-4.390524328E-2,-7.011127193E-3
1.445954021E0,3.726990148E-2,-4.879216105E-2,-8.232857101E-3
1.448392979E0,3.238298371E-2,-5.123562366E-2,-1.311977487E-2
1.450832771E0,2.627433464E-2,-5.245735124E-2,-1.311977487E-2
1.453271729E0,1.772222854E-2,-5.245735124E-2,-1.067631599E-2
1.455709959E0,1.039185189E-2,-5.856599659E-2,-1.434150431E-2
1.458148917E0,3.061475232E-3,-5.978772789E-2,-1.434150431E-2
1.460588709E0,-5.490630865E-3,-5.978772789E-2,-1.678496227E-2
1.463027667E0,-1.404273696E-2,-5.978772789E-2,-1.922842115E-2
1.465465896E0,-2.137311362E-2,-5.612254143E-2,-1.922842115E-2
1.467904854E0,-2.748176083E-2,-5.490081012E-2,-1.800669171E-2
1.470344646E0,-3.603386506E-2,-4.634870589E-2,-1.800669171E-2
1.472783604E0,-4.214251414E-2,-4.390524328E-2,-1.800669171E-2
1.475221834E0,-4.580770060E-2,-3.657487035E-2,-1.800669171E-2
1.477660792E0,-4.825116321E-2,-2.802276239E-2,-1.800669171E-2
1.480100584E0,-5.191634968E-2,-1.824892685E-2,-1.556323376E-2
1.482539594E0,-5.313808098E-2,-1.336200908E-2,-1.678496227E-2
1.484977771E0,-5.435980856E-2,1.298744231E-3,-1.556323376E-2
1.487416729E0,-5.191634968E-2,1.840295643E-2,-1.067631599E-2
1.489856521E0,-4.702943191E-2,2.817679197E-2,-9.454586543E-3
1.492295531E0,-4.458597302E-2,4.650273547E-2,-7.011127193E-3
1.494733709E0,-4.336424544E-2,5.749830231E-2,-5.789397750E-3
1.497172719E0,-4.336424544E-2,6.849387288E-2,-5.789397750E-3
1.499612459E0,-3.969905525E-2,7.948943973E-2,-4.567668308E-3
1.502051469E0,-3.603386506E-2,9.048499167E-2,-4.567668308E-3
1.504489646E0,-3.359040990E-2,9.659364820E-2,-5.789397750E-3
1.506928656E0,-3.359040990E-2,9.903711081E-2,-4.567668308E-3
1.509368396E0,-3.236867860E-2,1.112543941E-1,3.192493459E-4
1.511807406E0,-2.870349213E-2,1.063674837E-1,3.192493459E-4
1.514245584E0,-2.870349213E-2,1.100326627E-1,3.984437790E-3
1.516684594E0,-2.503830194E-2,1.075892150E-1,7.649626117E-3
1.519124334E0,-2.137311362E-2,1.014805585E-1,8.871355094E-3
1.521563344E0,-2.259484306E-2,1.075892150E-1,1.375827286E-2
1.524001521E0,-2.015138417E-2,9.659364820E-2,1.498000231E-2
1.526440531E0,-1.770792529E-2,9.537191689E-2,1.375827286E-2
1.528880323E0,-1.648619585E-2,8.926327527E-2,1.375827286E-2
1.531319281E0,-1.526446640E-2,8.071115613E-2,1.131481398E-2
1.533757459E0,-1.404273696E-2,8.071115613E-2,1.131481398E-2
1.536196469E0,-1.282100752E-2,7.582424581E-2,1.131481398E-2
1.538636261E0,-9.155819193E-3,6.971560419E-2,6.427896675E-3
1.541075219E0,-5.490630865E-3,6.727214158E-2,3.984437790E-3
1.543513396E0,-6.037130952E-4,6.605041027E-2,3.192493459E-4
1.545952406E0,1.839745790E-3,6.727214158E-2,-9.024800966E-4
1.548392198E0,6.180163473E-4,6.605041027E-2,-3.345938865E-3
1.550831156E0,1.839745790E-3,6.849387288E-2,-8.232857101E-3
1.553269386E0,-6.037130952E-4,7.093732059E-2,-1.067631599E-2
1.555708344E0,3.061475232E-3,7.215905190E-2,-1.311977487E-2
1.558148136E0,1.839745790E-3,7.582424581E-2,-1.311977487E-2
1.560587094E0,-1.825442538E-3,7.460251451E-2,-1.678496227E-2
1.563025271E0,-6.037130952E-4,7.948943973E-2,-1.922842115E-2
1.565464281E0,1.839745790E-3,7.948943973E-2,-2.167188004E-2
1.567904073E0,-6.037130952E-4,7.704597712E-2,-2.167188004E-2
1.570343031E0,-1.825442538E-3,7.215905190E-2,-1.922842115E-2
1.572781261E0,-1.825442538E-3,7.093732059E-2,-1.678496227E-2
1.575220219E0,-4.268901423E-3,6.116348132E-2,-1.678496227E-2
1.577660011E0,-5.490630865E-3,5.749830231E-2,-1.311977487E-2
1.580098969E0,-7.934089750E-3,4.650273547E-2,-1.189804543E-2
1.582537198E0,-6.712360308E-3,4.161581397E-2,-9.454586543E-3
1.584976156E0,-1.282100752E-2,3.672889620E-2,-9.454586543E-3
1.587415948E0,-1.648619585E-2,2.451160178E-2,-1.067631599E-2
1.589854906E0,-1.892965473E-2,2.451160178E-2,-8.232857101E-3
1.592293136E0,-2.137311362E-2,1.351603866E-2,-8.232857101E-3
1.594732094E0,-2.503830194E-2,9.850850329E-3,-9.454586543E-3
1.597171886E0,-2.626002952E-2,8.629120886E-3,-9.454586543E-3
1.599610844E0,-2.748176083E-2,8.629120886E-3,-1.067631599E-2
1.602049073E0,-2.503830194E-2,1.229430921E-2,-9.454586543E-3
1.604488031E0,-2.503830194E-2,1.107257977E-2,-1.189804543E-2
1.606927823E0,-2.626002952E-2,1.595949754E-2,-1.189804543E-2
1.609366834E0,-2.259484306E-2,1.840295643E-2,-1.556323376E-2
1.611805011E0,-2.503830194E-2,2.206814662E-2,-1.922842115E-2
1.614243969E0,-2.626002952E-2,2.573333308E-2,-2.289360948E-2
1.616683761E0,-2.626002952E-2,2.573333308E-2,-2.533706836E-2
1.619122771E0,-2.870349213E-2,2.939851955E-2,-2.778052725E-2
1.621560948E0,-2.870349213E-2,3.184197843E-2,-2.778052725E-2
1.623999906E0,-3.236867860E-2,3.306370974E-2,-3.022398800E-2
1.626439698E0,-3.847732767E-2,3.062025085E-2,-3.144571558E-2
1.628878709E0,-3.847732767E-2,3.428544104E-2,-3.144571558E-2
1.631316886E0,-3.969905525E-2,2.939851955E-2,-3.388917446E-2
1.633755896E0,-4.092078283E-2,2.573333308E-2,-3.877609223E-2
1.636195636E0,-4.214251414E-2,2.817679197E-2,-3.877609223E-2
1.638634646E0,-4.458597302E-2,2.206814662E-2,-4.121954739E-2
1.641072823E0,-4.702943191E-2,2.084641531E-2,-4.121954739E-2
1.643511781E0,-5.069461837E-2,1.351603866E-2,-4.244127870E-2
1.645951573E0,-5.191634968E-2,4.963932559E-3,-4.366301000E-2
1.648390584E0,-5.313808098E-2,-4.809902981E-3,-4.610646516E-2
1.650828761E0,-5.435980856E-2,-1.458373852E-2,-4.854992777E-2
1.653267771E0,-5.802499875E-2,-2.191411518E-2,-4.732819647E-2
1.655707511E0,-5.802499875E-2,-2.802276239E-2,-4.977165908E-2
1.658146521E0,-5.802499875E-2,-3.779659793E-2,-5.099338293E-2
1.660584698E0,-5.802499875E-2,-4.268351570E-2,-4.854992777E-2
1.663023709E0,-5.680326745E-2,-5.245735124E-2,-5.099338293E-2
1.665463448E0,-5.680326745E-2,-5.612254143E-2,-5.221511424E-2
1.667902459E0,-5.802499875E-2,-5.978772789E-2,-5.343684554E-2
1.670340636E0,-5.558153614E-2,-5.856599659E-2,-5.465857685E-2
1.672779646E0,-5.924672261E-2,-6.223118678E-2,-5.465857685E-2
1.675219386E0,-5.802499875E-2,-6.223118678E-2,-5.343684554E-2
1.677658396E0,-5.924672261E-2,-5.856599659E-2,-4.977165908E-2
1.680096573E0,-6.413364410E-2,-5.490081012E-2,-4.732819647E-2
1.682535584E0,-6.535537541E-2,-5.245735124E-2,-4.488474131E-2
1.684975323E0,-7.146401703E-2,-5.734426901E-2,-4.121954739E-2
1.687414334E0,-7.268574834E-2,-5.490081012E-2,-3.877609223E-2
1.689852511E0,-7.757267356E-2,-4.879216105E-2,-3.511090577E-2
1.692291521E0,-8.123785257E-2,-4.512697458E-2,-3.266744316E-2
1.694731261E0,-8.123785257E-2,-4.146178812E-2,-3.022398800E-2
1.697170271E0,-8.123785257E-2,-3.657487035E-2,-2.900225669E-2
1.699608448E0,-8.001612127E-2,-2.924449183E-2,-2.778052725E-2
1.702047459E0,-8.001612127E-2,-2.313584462E-2,-2.533706836E-2
1.704487250E0,-7.879438996E-2,-1.947065629E-2,-2.289360948E-2
1.706926209E0,-7.390747964E-2,-1.091855019E-2,-2.411533892E-2
1.709364386E0,-7.146401703E-2,-6.031632423E-3,-2.411533892E-2
1.711803396E0,-6.657710671E-2,4.963932559E-3,-2.411533892E-2
1.714243188E0,-6.291191280E-2,1.962468401E-2,-2.411533892E-2
1.716682146E0,-5.558153614E-2,2.817679197E-2,-2.533706836E-2
1.719120323E0,-5.191634968E-2,3.795062751E-2,-2.778052725E-2
1.721559334E0,-4.702943191E-2,4.772446677E-2,-2.778052725E-2
1.723999125E0,-4.092078283E-2,5.261137709E-2,-3.022398800E-2
1.726438084E0,-3.725559637E-2,5.872003362E-2,-2.778052725E-2
1.728876261E0,-3.359040990E-2,6.238521263E-2,-2.411533892E-2
1.731315271E0,-3.114694729E-2,6.482867897E-2,-2.533706836E-2
1.733755063E0,-2.626002952E-2,6.238521263E-2,-2.533706836E-2
1.736194021E0,-2.381657250E-2,6.360694766E-2,-2.411533892E-2
1.738632198E0,-2.015138417E-2,6.238521263E-2,-2.045015059E-2
1.741071209E0,-1.526446640E-2,6.360694766E-2,-2.167188004E-2
1.743511000E0,-9.155819193E-3,6.482867897E-2,-2.045015059E-2
1.745949959E0,-3.047171980E-3,5.872003362E-2,-2.167188004E-2
1.748388188E0,3.061475232E-3,5.505483970E-2,-2.411533892E-2
1.750827146E0,1.039185189E-2,5.138964579E-2,-2.411533892E-2
1.753266938E0,1.650049910E-2,4.650273547E-2,-2.411533892E-2
1.755705896E0,2.138741687E-2,3.428544104E-2,-2.778052725E-2
1.758144125E0,2.505260333E-2,2.451160178E-2,-2.778052725E-2
1.760583084E0,3.116125241E-2,1.840295643E-2,-2.655879781E-2
1.763022875E0,3.604817018E-2,4.963932559E-3,-2.411533892E-2
1.765461834E0,3.726990148E-2,-8.475091308E-3,-2.411533892E-2
1.767900063E0,4.215681925E-2,-2.313584462E-2,-2.289360948E-2
1.770339021E0,4.704373702E-2,-3.290968016E-2,-2.167188004E-2
1.772778813E0,5.070892349E-2,-4.146178812E-2,-2.167188004E-2
1.775217771E0,5.681757256E-2,-5.001389235E-2,-2.167188004E-2
1.777656000E0,6.170449033E-2,-5.490081012E-2,-2.289360948E-2
1.780094959E0,6.292621791E-2,-6.100945920E-2,-2.655879781E-2
1.782534750E0,6.903485954E-2,-6.345291436E-2,-2.900225669E-2
1.784973761E0,7.392178476E-2,-6.467464566E-2,-3.022398800E-2
1.787411938E0,7.880869508E-2,-6.223118678E-2,-3.022398800E-2
1.789850896E0,8.613908291E-2,-5.612254143E-2,-2.655879781E-2
1.792290688E0,9.346945584E-2,-5.612254143E-2,-2.900225669E-2
1.794729698E0,9.713464975E-2,-5.245735124E-2,-2.655879781E-2
1.797167875E0,1.044650227E-1,-4.024005681E-2,-2.533706836E-2
1.799606834E0,1.093519330E-1,-3.168795258E-2,-2.411533892E-2
1.802046625E0,1.154605746E-1,-2.924449183E-2,-2.533706836E-2
1.804485584E0,1.215692163E-1,-2.191411518E-2,-2.411533892E-2
1.806923813E0,1.264561415E-1,-1.824892685E-2,-2.167188004E-2
1.809362771E0,1.313430667E-1,-1.336200908E-2,-1.800669171E-2
1.811802563E0,1.337865293E-1,-9.696820751E-3,-1.678496227E-2
1.814241573E0,1.386734247E-1,-6.031632423E-3,-1.311977487E-2
1.816679750E0,1.374517083E-1,-4.809902981E-3,-9.454586543E-3
1.819118709E0,1.386734247E-1,-6.031632423E-3,-5.789397750E-3
1.821558500E0,1.398951709E-1,-4.809902981E-3,-2.124209423E-3
1.823997511E0,1.411168873E-1,-1.144714653E-3,3.192493459E-4
1.826435688E0,1.411168873E-1,-3.588173538E-3,2.762708347E-3
1.828874646E0,1.435603499E-1,7.701478899E-5,2.762708347E-3
1.831314438E0,1.521124542E-1,4.963932559E-3,3.984437790E-3
1.833753448E0,1.508907378E-1,6.185662001E-3,5.206167232E-3
1.836191625E0,1.582210958E-1,1.107257977E-2,6.427896675E-3
1.838630584E0,1.643297672E-1,1.229430921E-2,7.649626117E-3
1.841070375E0,1.692166626E-1,1.107257977E-2,8.871355094E-3
1.843509386E0,1.753253341E-1,1.840295643E-2,1.131481398E-2
1.845947563E0,1.765470505E-1,2.084641531E-2,1.131481398E-2
1.848386521E0,1.802122295E-1,2.084641531E-2,1.009308454E-2
1.850826313E0,1.814339757E-1,3.184197843E-2,8.871355094E-3
1.853265323E0,1.838774383E-1,3.550716862E-2,5.206167232E-3
1.855703500E0,1.875426173E-1,4.772446677E-2,2.762708347E-3
1.858142459E0,1.899860799E-1,5.627657101E-2,1.540978788E-3
1.860582250E0,1.875426173E-1,5.627657101E-2,-9.024800966E-4
1.863021261E0,1.850991547E-1,6.360694766E-2,-2.124209423E-3
1.865459438E0,1.826556921E-1,6.849387288E-2,-2.124209423E-3
1.867898396E0,1.814339757E-1,7.460251451E-2,-5.789397750E-3
1.870338188E0,1.777687669E-1,7.704597712E-2,-1.189804543E-2
1.872777198E0,1.741035879E-1,8.071115613E-2,-1.556323376E-2
1.875215375E0,1.789905131E-1,8.071115613E-2,-1.800669171E-2
1.877654386E0,1.765470505E-1,7.460251451E-2,-2.167188004E-2
1.880094125E0,1.777687669E-1,7.215905190E-2,-2.411533892E-2
1.882533136E0,1.765470505E-1,6.238521263E-2,-2.411533892E-2
1.884971313E0,1.741035879E-1,5.261137709E-2,-2.778052725E-2
1.887410271E0,1.716601253E-1,4.039408639E-2,-2.778052725E-2
1.889850063E0,1.692166626E-1,2.206814662E-2,-3.022398800E-2
1.892289073E0,1.631080210E-1,3.742203116E-3,-3.266744316E-2
1.894727250E0,1.594428420E-1,-1.702719741E-2,-3.266744316E-2
1.897166261E0,1.521124542E-1,-4.146178812E-2,-3.511090577E-2
1.899606000E0,1.460038126E-1,-6.711810082E-2,-3.755436093E-2
1.902045011E0,1.386734247E-1,-9.033095837E-2,-3.999782354E-2
1.904483188E0,1.337865293E-1,-1.086568981E-1,-4.488474131E-2
1.906922198E0,1.313430667E-1,-1.245393902E-1,-4.610646516E-2
1.909361938E0,1.301213354E-1,-1.379784048E-1,-4.854992777E-2
1.911800948E0,1.301213354E-1,-1.453087777E-1,-5.343684554E-2
1.914239125E0,1.276778728E-1,-1.477522403E-1,-5.832376331E-2
1.916678136E0,1.276778728E-1,-1.453087777E-1,-6.076721847E-2
1.919117875E0,1.301213354E-1,-1.440870464E-1,-6.321068108E-2
1.921556886E0,1.325647831E-1,-1.318697631E-1,-6.565413624E-2
1.923995063E0,1.288996041E-1,-1.208741963E-1,-6.687586755E-2
1.926434073E0,1.264561415E-1,-1.062134355E-1,-6.931933016E-2
1.928873813E0,1.227909625E-1,-9.277442098E-2,-6.931933016E-2
1.931312823E0,1.166823208E-1,-7.322674990E-2,-6.931933016E-2
1.933751000E0,1.105736643E-1,-5.367907882E-2,-6.809759885E-2
1.936189959E0,1.032432914E-1,-3.901832551E-2,-6.687586755E-2
1.938629750E0,9.469118714E-2,-1.580546796E-2,-6.687586755E-2
1.941068761E0,8.613908291E-2,4.963932559E-3,-6.809759885E-2
1.943506938E0,7.514351606E-2,2.451160178E-2,-6.565413624E-2
1.945945948E0,6.903485954E-2,4.528100416E-2,-6.443241239E-2
1.948385688E0,5.926102772E-2,5.872003362E-2,-6.198894978E-2
1.950824698E0,5.437410995E-2,7.826770842E-2,-5.832376331E-2
1.953262875E0,4.826546460E-2,8.681981266E-2,-5.343684554E-2
1.955701886E0,4.093508795E-2,8.804154396E-2,-5.221511424E-2
1.958141625E0,3.971335664E-2,9.903711081E-2,-4.610646516E-2
1.960580636E0,3.604817018E-2,9.415018559E-2,-4.244127870E-2
1.963018813E0,3.360471129E-2,9.292845428E-2,-3.755436093E-2
1.965457823E0,2.993952110E-2,8.926327527E-2,-3.388917446E-2
1.967897563E0,2.627433464E-2,8.315461874E-2,-3.022398800E-2
1.970336573E0,1.772222854E-2,7.826770842E-2,-2.900225669E-2
1.972774750E0,1.039185189E-2,7.582424581E-2,-2.533706836E-2
1.975213761E0,1.839745790E-3,7.582424581E-2,-2.289360948E-2
1.977653500E0,-1.526446640E-2,7.460251451E-2,-2.411533892E-2
1.980092511E0,-2.992521971E-2,7.338078320E-2,-2.289360948E-2
1.982530688E0,-4.580770060E-2,7.826770842E-2,-2.411533892E-2
1.984969698E0,-6.291191280E-2,8.193288743E-2,-2.778052725E-2
1.987409438E0,-8.001612127E-2,8.559808135E-2,-3.144571558E-2
1.989848448E0,-9.712034464E-2,8.804154396E-2,-3.511090577E-2
1.992286625E0,-1.130028218E-1,9.170672297E-2,-3.877609223E-2
1.994725636E0,-1.264418364E-1,9.903711081E-2,-3.999782354E-2
1.997165375E0,-1.423243284E-1,9.537191689E-2,-4.244127870E-2
1.999604386E0,-1.569850743E-1,9.292845428E-2,-4.488474131E-2
2.002042563E0,-1.716458499E-1,8.559808135E-2,-4.977165908E-2
2.004481573E0,-1.887500584E-1,7.093732059E-2,-5.465857685E-2
2.006921313E0,-2.046325207E-1,5.261137709E-2,-5.832376331E-2
2.009360323E0,-2.205150127E-1,3.672889620E-2,-6.321068108E-2
2.011798500E0,-2.400626838E-1,9.850850329E-3,-7.054105401E-2
2.014237511E0,-2.596103549E-1,-1.091855019E-2,-7.664970309E-2
2.016677250E0,-2.779363096E-1,-3.535313904E-2,-8.275835216E-2
2.019116261E0,-2.962622344E-1,-5.123562366E-2,-8.764526993E-2
2.021554438E0,-3.121447265E-1,-6.956156343E-2,-9.131045640E-2
2.023993448E0,-3.292489350E-1,-7.689193636E-2,-9.131045640E-2
2.026433188E0,-3.414662480E-1,-7.200502604E-2,-8.764526993E-2
2.028872198E0,-3.561269939E-1,-6.100945920E-2,-8.275835216E-2
2.031310375E0,-3.707877398E-1,-4.634870589E-2,-7.664970309E-2
2.033749386E0,-3.878919482E-1,-4.268351570E-2,-7.420624048E-2
2.036189125E0,-4.025527239E-1,-3.779659793E-2,-6.931933016E-2
2.038628136E0,-4.184351861E-1,-3.046622127E-2,-6.443241239E-2
2.041066313E0,-4.306524992E-1,-2.924449183E-2,-5.710203201E-2
2.043505323E0,-4.404263198E-1,-3.168795258E-2,-5.099338293E-2
2.045945063E0,-4.538653493E-1,-4.634870589E-2,-5.343684554E-2
2.048384073E0,-4.624174535E-1,-6.589637697E-2,-6.321068108E-2
2.050822250E0,-4.685260952E-1,-8.788749576E-2,-7.420624048E-2
2.053261261E0,-4.685260952E-1,-1.135438234E-1,-9.131045640E-2
2.055701052E0,-4.685260952E-1,-1.404218674E-1,-1.096363962E-1
2.058140011E0,-4.660826325E-1,-1.672999114E-1,-1.279623508E-1
2.060578188E0,-4.648609161E-1,-1.905127764E-1,-1.462882906E-1
2.063017198E0,-4.624174535E-1,-2.063952535E-1,-1.609490365E-1
2.065456938E0,-4.550870657E-1,-2.088387161E-1,-1.707228720E-1
2.067895948E0,-4.502001703E-1,-2.015083432E-1,-1.756097972E-1
2.070334125E0,-4.514218867E-1,-1.856258512E-1,-1.780532598E-1
2.072773136E0,-4.514218867E-1,-1.648564488E-1,-1.768315285E-1
2.075212875E0,-4.514218867E-1,-1.379784048E-1,-1.719446033E-1
2.077651886E0,-4.502001703E-1,-1.086568981E-1,-1.646142304E-1
2.080090063E0,-4.538653493E-1,-8.666576445E-2,-1.597273052E-1
2.082529073E0,-4.526436031E-1,-6.223118678E-2,-1.548403949E-1
2.084968813E0,-4.538653493E-1,-4.512697458E-2,-1.536186635E-1
2.087407823E0,-4.502001703E-1,-3.779659793E-2,-1.536186635E-1
2.089846000E0,-4.440914989E-1,-3.168795258E-2,-1.548403949E-1
2.092285011E0,-4.355393946E-1,-3.413140774E-2,-1.585055888E-1
2.094724750E0,-4.245438278E-1,-2.680103295E-2,-1.548403949E-1
2.097163761E0,-4.074396193E-1,-3.168795258E-2,-1.536186635E-1
2.099601938E0,-3.891136944E-1,-3.535313904E-2,-1.499534845E-1
2.102040948E0,-3.683442771E-1,-5.001389235E-2,-1.487317532E-1
2.104480688E0,-3.426879644E-1,-7.078329474E-2,-1.487317532E-1
2.106919698E0,-3.170316517E-1,-1.013265252E-1,-1.560621262E-1
2.109357875E0,-2.913753390E-1,-1.269828379E-1,-1.658359617E-1
2.111796886E0,-2.596103549E-1,-1.538608819E-1,-1.719446033E-1
2.114236625E0,-2.290671170E-1,-1.746302843E-1,-1.768315285E-1
2.116675636E0,-1.960804164E-1,-1.929562241E-1,-1.780532598E-1
2.119113813E0,-1.704241037E-1,-2.076169848E-1,-1.743880659E-1
2.121552823E0,-1.386591494E-1,-2.027300596E-1,-1.646142304E-1
2.123992563E0,-1.154462844E-1,-2.100604475E-1,-1.572838575E-1
2.126431573E0,-9.467688203E-2,-2.063952535E-1,-1.487317532E-1
2.128869750E0,-7.268574834E-2,-1.892910451E-1,-1.426230967E-1
2.131308761E0,-5.558153614E-2,-1.721868217E-1,-1.414013654E-1
2.133748500E0,-3.236867860E-2,-1.428653300E-1,-1.414013654E-1
2.136187511E0,-1.404273696E-2,-1.123220921E-1,-1.438448280E-1
2.138625688E0,7.948393002E-3,-7.689193636E-2,-1.462882906E-1
2.141064698E0,2.871779352E-2,-4.879216105E-2,-1.450665593E-1
2.143504438E0,4.948719218E-2,-2.069238573E-2,-1.475100219E-1
2.145943448E0,7.147832215E-2,9.850850329E-3,-1.536186635E-1
2.148381625E0,8.980426192E-2,4.650273547E-2,-1.548403949E-1
2.150820636E0,1.032432914E-1,8.071115613E-2,-1.523969322E-1
2.153260375E0,1.130171120E-1,1.173630506E-1,-1.548403949E-1
2.155699386E0,1.227909625E-1,1.479062885E-1,-1.585055888E-1
2.158137563E0,1.264561415E-1,1.796712577E-1,-1.633924991E-1
2.160576573E0,1.325647831E-1,2.187665999E-1,-1.633924991E-1
2.163016313E0,1.398951709E-1,2.541967034E-1,-1.609490365E-1
2.165455323E0,1.472255588E-1,2.932920456E-1,-1.572838575E-1
2.167893500E0,1.484472752E-1,3.250570297E-1,-1.560621262E-1
2.170332511E0,1.545559168E-1,3.433829546E-1,-1.560621262E-1
2.172772250E0,1.569993794E-1,3.641523719E-1,-1.548403949E-1
2.175211261E0,1.631080210E-1,3.800348341E-1,-1.548403949E-1
2.177649438E0,1.655514836E-1,3.898086846E-1,-1.585055888E-1
2.180088448E0,1.692166626E-1,3.971390724E-1,-1.633924991E-1
2.182528188E0,1.716601253E-1,4.032477140E-1,-1.670576930E-1
2.184967198E0,1.753253341E-1,4.044694304E-1,-1.731663346E-1
2.187405375E0,1.765470505E-1,4.056911767E-1,-1.780532598E-1
2.189844386E0,1.753253341E-1,4.008042514E-1,-1.829401702E-1
2.192284125E0,1.753253341E-1,3.885869682E-1,-1.890488267E-1
2.194723136E0,1.716601253E-1,3.739261925E-1,-1.927140057E-1
2.197161313E0,1.704384089E-1,3.617089093E-1,-1.927140057E-1
2.199600323E0,1.643297672E-1,3.397177756E-1,-1.939357370E-1
2.202040063E0,1.557776630E-1,3.189483881E-1,-1.939357370E-1
2.204479073E0,1.521124542E-1,2.969572544E-1,-1.927140057E-1
2.206917250E0,1.447820961E-1,2.676357329E-1,-1.914922744E-1
2.209356209E0,1.386734247E-1,2.346490771E-1,-1.939357370E-1
2.211796000E0,1.350082457E-1,2.016623765E-1,-1.951574683E-1
2.214235011E0,1.325647831E-1,1.686756909E-1,-1.951574683E-1
2.216673188E0,1.301213354E-1,1.393541843E-1,-1.976009309E-1
2.219112146E0,1.301213354E-1,1.039240211E-1,-2.000443786E-1
2.221551938E0,1.325647831E-1,7.582424581E-2,-2.000443786E-1
2.223990948E0,1.325647831E-1,4.650273547E-2,-2.012661099E-1
2.226429125E0,1.337865293E-1,1.840295643E-2,-2.000443786E-1
2.228868084E0,1.325647831E-1,-1.091855019E-2,-2.024878412E-1
2.231307875E0,1.301213354E-1,-3.168795258E-2,-2.012661099E-1
2.233746886E0,1.240126789E-1,-4.757043347E-2,-1.963791996E-1
2.236185063E0,1.154605746E-1,-6.467464566E-2,-1.914922744E-1
2.238624021E0,1.032432914E-1,-8.177885413E-2,-1.866053641E-1
2.241063813E0,9.102599323E-2,-9.277442098E-2,-1.792749763E-1
2.243502823E0,7.758697867E-2,-1.086568981E-1,-1.768315285E-1
2.245941000E0,6.414794922E-2,-1.269828379E-1,-1.719446033E-1
2.248379959E0,5.559584126E-2,-1.392001361E-1,-1.670576930E-1
2.250819750E0,4.704373702E-2,-1.538608819E-1,-1.646142304E-1
2.253258761E0,3.726990148E-2,-1.758520156E-1,-1.682794243E-1
2.255696938E0,3.482643887E-2,-1.892910451E-1,-1.658359617E-1
2.258135896E0,2.993952110E-2,-2.002866119E-1,-1.621707678E-1
2.260575688E0,2.871779352E-2,-1.917344928E-1,-1.585055888E-1
2.263014698E0,2.505260333E-2,-1.905127764E-1,-1.548403949E-1
2.265452875E0,2.016568556E-2,-1.892910451E-1,-1.536186635E-1
2.267891834E0,1.405704021E-2,-1.880693138E-1,-1.523969322E-1
2.270331625E0,6.726663560E-3,-1.868475825E-1,-1.499534845E-1
2.272770636E0,5.504934117E-3,-1.795172095E-1,-1.450665593E-1
2.275208813E0,1.839745790E-3,-1.758520156E-1,-1.438448280E-1
2.277647771E0,-6.712360308E-3,-1.685216427E-1,-1.389579177E-1
2.280087563E0,-1.282100752E-2,-1.587478071E-1,-1.340709925E-1
2.282526521E0,-1.770792529E-2,-1.489739716E-1,-1.279623508E-1
2.284964750E0,-2.137311362E-2,-1.306480318E-1,-1.230754182E-1
2.287403709E0,-2.748176083E-2,-1.172090024E-1,-1.206319630E-1
2.289843500E0,-3.481213748E-2,-9.521788359E-2,-1.157450452E-1
2.292282511E0,-3.847732767E-2,-6.833983213E-2,-1.120798588E-1
2.294720688E0,-3.725559637E-2,-4.024005681E-2,-1.108581275E-1
2.297159646E0,-4.580770060E-2,-1.214027964E-2,-1.108581275E-1
2.299599438E0,-4.947289079E-2,1.351603866E-2,-1.096363962E-1
2.302038396E0,-5.313808098E-2,3.550716862E-2,-1.084146723E-1
2.304476625E0,-5.680326745E-2,5.749830231E-2,-1.071929410E-1
2.306915584E0,-6.046845391E-2,8.193288743E-2,-1.071929410E-1
2.309355375E0,-6.413364410E-2,1.002588272E-1,-1.059712097E-1
2.311794334E0,-6.535537541E-2,1.149195880E-1,-1.035277471E-1
2.314232563E0,-6.779883802E-2,1.283586174E-1,-1.047494784E-1
2.316671521E0,-7.146401703E-2,1.430193633E-1,-1.059712097E-1
2.319111313E0,-7.024228573E-2,1.515714675E-1,-1.071929410E-1
2.321550271E0,-7.268574834E-2,1.589018553E-1,-1.096363962E-1
2.323988500E0,-7.390747964E-2,1.613453031E-1,-1.133015826E-1
2.326427459E0,-7.390747964E-2,1.637887657E-1,-1.120798588E-1
2.328867250E0,-7.512921095E-2,1.613453031E-1,-1.120798588E-1
2.331306209E0,-7.635094225E-2,1.613453031E-1,-1.108581275E-1
2.333744438E0,-7.390747964E-2,1.564583927E-1,-1.071929410E-1
2.336183396E0,-7.390747964E-2,1.540149301E-1,-1.047494784E-1
2.338623188E0,-6.902055442E-2,1.491280198E-1,-9.864083678E-2
2.341062146E0,-6.657710671E-2,1.417976320E-1,-9.253218770E-2
2.343500375E0,-6.291191280E-2,1.344672590E-1,-8.886700124E-2
2.345939334E0,-6.169018522E-2,1.222499609E-1,-8.398007601E-2
2.348379125E0,-6.413364410E-2,1.063674837E-1,-8.153662086E-2
2.350818084E0,-6.413364410E-2,9.659364820E-2,-7.787143439E-2
2.353256261E0,-6.657710671E-2,8.315461874E-2,-7.542797178E-2
2.355695271E0,-6.902055442E-2,7.215905190E-2,-7.054105401E-2
2.358135063E0,-7.512921095E-2,5.261137709E-2,-7.054105401E-2
2.360574021E0,-7.512921095E-2,3.917235881E-2,-6.565413624E-2
2.363012198E0,-7.390747964E-2,2.206814662E-2,-6.198894978E-2
2.365451209E0,-7.757267356E-2,4.963932559E-3,-6.076721847E-2
2.367891000E0,-7.879438996E-2,-8.475091308E-3,-5.588030070E-2
2.370329959E0,-7.635094225E-2,-2.313584462E-2,-5.343684554E-2
2.372768188E0,-7.757267356E-2,-3.168795258E-2,-5.099338293E-2
2.375207146E0,-7.635094225E-2,-4.024005681E-2,-4.732819647E-2
2.377646938E0,-7.390747964E-2,-5.367907882E-2,-4.610646516E-2
2.380085896E0,-7.268574834E-2,-5.245735124E-2,-4.121954739E-2
2.382524073E0,-6.779883802E-2,-5.245735124E-2,-3.511090577E-2
2.384963084E0,-6.291191280E-2,-5.123562366E-2,-3.144571558E-2
2.387402875E0,-6.046845391E-2,-5.123562366E-2,-2.655879781E-2
2.389841834E0,-5.802499875E-2,-4.390524328E-2,-2.289360948E-2
2.392280011E0,-5.313808098E-2,-3.290968016E-2,-2.045015059E-2
2.394719021E0,-5.069461837E-2,-2.069238573E-2,-1.800669171E-2
2.397158813E0,-4.458597302E-2,-3.588173538E-3,-1.678496227E-2
2.399597771E0,-4.092078283E-2,9.850850329E-3,-1.556323376E-2
2.402035948E0,-3.847732767E-2,3.062025085E-2,-1.556323376E-2
2.404474959E0,-3.236867860E-2,4.528100416E-2,-1.556323376E-2
2.406914750E0,-2.992521971E-2,5.749830231E-2,-1.189804543E-2
2.409353709E0,-2.381657250E-2,7.093732059E-2,-7.011127193E-3
2.411791886E0,-2.381657250E-2,7.826770842E-2,-2.124209423E-3
2.414230896E0,-1.526446640E-2,9.292845428E-2,5.206167232E-3
2.416670688E0,-1.282100752E-2,1.002588272E-1,1.131481398E-2
2.419109646E0,-7.934089750E-3,1.051457524E-1,1.375827286E-2
2.421547823E0,6.180163473E-4,1.149195880E-1,1.986692101E-2
2.423986834E0,5.504934117E-3,1.234716922E-1,2.231037989E-2
2.426426573E0,1.405704021E-2,1.283586174E-1,2.597556822E-2
2.428865584E0,2.016568556E-2,1.381324530E-1,2.719729953E-2
2.431303761E0,2.871779352E-2,1.381324530E-1,3.086248599E-2
2.433742771E0,3.482643887E-2,1.479062885E-1,3.452767432E-2
2.436182511E0,3.849162906E-2,1.454628259E-1,3.574940562E-2
2.438621521E0,4.093508795E-2,1.466845572E-1,3.941459209E-2
2.441059698E0,4.093508795E-2,1.466845572E-1,4.185805470E-2
2.443498709E0,3.971335664E-2,1.405759156E-1,4.430150986E-2
2.445938448E0,4.093508795E-2,1.369107217E-1,4.552324116E-2
2.448377459E0,3.726990148E-2,1.259151548E-1,4.430150986E-2
2.450815636E0,3.238298371E-2,1.161413193E-1,4.430150986E-2
2.453254646E0,3.238298371E-2,1.075892150E-1,4.674497247E-2
2.455694386E0,2.993952110E-2,9.415018559E-2,4.307977855E-2
2.458133396E0,2.871779352E-2,7.948943973E-2,3.941459209E-2
2.460571573E0,2.749606594E-2,6.360694766E-2,3.574940562E-2
2.463010584E0,2.749606594E-2,4.772446677E-2,3.086248599E-2
2.465450323E0,3.238298371E-2,3.428544104E-2,3.086248599E-2
2.467889334E0,3.971335664E-2,1.840295643E-2,2.841902710E-2
2.470327511E0,4.460027441E-2,4.963932559E-3,2.475383691E-2
2.472766521E0,5.193065479E-2,-8.475091308E-3,2.597556822E-2
2.475206261E0,6.048275903E-2,-2.313584462E-2,2.597556822E-2
2.477645271E0,6.903485954E-2,-3.046622127E-2,2.964075468E-2
2.480083448E0,7.758697867E-2,-4.024005681E-2,3.452767432E-2
2.482522459E0,8.980426192E-2,-5.001389235E-2,3.819286078E-2
2.484962198E0,9.591291845E-2,-5.367907882E-2,4.552324116E-2
2.487401209E0,9.835636616E-2,-5.734426901E-2,4.918842763E-2
2.489839386E0,9.713464975E-2,-6.589637697E-2,4.796669632E-2
2.492278344E0,1.007998288E-1,-7.078329474E-2,5.285361409E-2
2.494718136E0,1.007998288E-1,-7.200502604E-2,5.774053186E-2
2.497157146E0,1.020215601E-1,-7.689193636E-2,6.262745708E-2
2.499595323E0,1.069084853E-1,-7.933539897E-2,6.995783001E-2
2.502034281E0,1.105736643E-1,-8.788749576E-2,7.606647909E-2
2.504474073E0,1.166823208E-1,-9.521788359E-2,8.461858332E-2
2.506913084E0,1.227909625E-1,-1.135438234E-1,9.194896370E-2
2.509351261E0,1.276778728E-1,-1.306480318E-1,9.805760533E-2
2.511790219E0,1.386734247E-1,-1.489739716E-1,1.041662544E-1
2.514230011E0,1.435603499E-1,-1.685216427E-1,1.102749035E-1
2.516668969E0,1.484472752E-1,-1.844041198E-1,1.127183586E-1
2.519107198E0,1.545559168E-1,-1.917344928E-1,1.139400899E-1
2.521546156E0,1.582210958E-1,-1.978431493E-1,1.066097096E-1
2.523985948E0,1.679949462E-1,-1.880693138E-1,1.005010679E-1
2.526424906E0,1.618863046E-1,-1.966214180E-1,9.194896370E-2
2.528863136E0,1.716601253E-1,-1.856258512E-1,9.072723240E-2
2.531302094E0,1.753253341E-1,-1.892910451E-1,8.584031463E-2
2.533741886E0,1.838774383E-1,-1.807389408E-1,8.828376979E-2
2.536180844E0,1.912077963E-1,-1.831823885E-1,8.828376979E-2
2.538619073E0,1.997599006E-1,-1.795172095E-1,9.439241886E-2
2.541058031E0,2.083120048E-1,-1.770737469E-1,9.805760533E-2
2.543497823E0,2.144206762E-1,-1.746302843E-1,1.005010679E-1
2.545936781E0,2.205293179E-1,-1.636347175E-1,1.053879857E-1
2.548375011E0,2.266379595E-1,-1.575260758E-1,1.066097096E-1
2.550813969E0,2.303031385E-1,-1.477522403E-1,1.066097096E-1
2.553253761E0,2.339683473E-1,-1.269828379E-1,1.102749035E-1
2.555692719E0,2.339683473E-1,-1.111003608E-1,1.090531722E-1
2.558130948E0,2.339683473E-1,-8.910922706E-2,1.090531722E-1
2.560569906E0,2.339683473E-1,-8.300058544E-2,1.066097096E-1
2.563009698E0,2.315248847E-1,-7.078329474E-2,1.041662544E-1
2.565448656E0,2.315248847E-1,-5.856599659E-2,1.053879857E-1
2.567886834E0,2.303031385E-1,-5.001389235E-2,1.029445231E-1
2.570325844E0,2.351900637E-1,-3.535313904E-2,1.017227992E-1
2.572765636E0,2.400769889E-1,-3.535313904E-2,1.017227992E-1
2.575204594E0,2.437421679E-1,-2.924449183E-2,1.005010679E-1
2.577642771E0,2.461856306E-1,-3.046622127E-2,9.683587402E-2
2.580081781E0,2.498508096E-1,-3.168795258E-2,9.439241886E-2
2.582521573E0,2.522942722E-1,-2.924449183E-2,9.194896370E-2
2.584960531E0,2.535160184E-1,-2.680103295E-2,8.828376979E-2
2.587398709E0,2.522942722E-1,-1.580546796E-2,8.339685202E-2
2.589837719E0,2.498508096E-1,-4.809902981E-3,7.484474778E-2
2.592277511E0,2.449639142E-1,1.298744231E-3,6.262745708E-2
2.594716469E0,2.388552427E-1,1.298744231E-3,5.163189024E-2
2.597154646E0,2.315248847E-1,-8.475091308E-3,4.307977855E-2
2.599593656E0,2.180858552E-1,-1.091855019E-2,3.941459209E-2
2.602033396E0,2.119772136E-1,-2.191411518E-2,3.819286078E-2
2.604472406E0,1.985381842E-1,-2.557930350E-2,3.819286078E-2
2.606910584E0,1.887643337E-1,-3.779659793E-2,2.964075468E-2
2.609349594E0,1.765470505E-1,-5.001389235E-2,2.231037989E-2
2.611789334E0,1.606645584E-1,-6.345291436E-2,1.009308454E-2
2.614228344E0,1.472255588E-1,-7.444848120E-2,-4.567668308E-3
2.616666521E0,1.362299919E-1,-9.399615228E-2,-2.167188004E-2
2.619105531E0,1.215692163E-1,-1.123220921E-1,-3.755436093E-2
2.621545271E0,1.069084853E-1,-1.294263005E-1,-5.710203201E-2
2.623984281E0,9.591291845E-2,-1.538608819E-1,-8.031488955E-2
2.626422459E0,8.613908291E-2,-1.697433740E-1,-1.023060232E-1
2.628861469E0,7.636524737E-2,-1.856258512E-1,-1.279623508E-1
2.631301209E0,7.147832215E-2,-1.966214180E-1,-1.548403949E-1
2.633740219E0,6.536968052E-2,-2.051735222E-1,-1.804967076E-1
2.636178396E0,6.170449033E-2,-2.149473578E-1,-2.024878412E-1
2.638617406E0,5.559584126E-2,-2.149473578E-1,-2.281441689E-1
2.641057146E0,5.070892349E-2,-2.149473578E-1,-2.538004816E-1
2.643496156E0,4.704373702E-2,-2.015083432E-1,-2.806785405E-1
2.645934334E0,4.704373702E-2,-1.795172095E-1,-3.063348532E-1
2.648373292E0,4.460027441E-2,-1.550826132E-1,-3.283259869E-1
2.650813084E0,4.337854683E-2,-1.294263005E-1,-3.490953743E-1
2.653252094E0,4.460027441E-2,-9.155268967E-2,-3.625344038E-1
2.655690271E0,5.315238610E-2,-5.734426901E-2,-3.710865080E-1
2.658129229E0,6.170449033E-2,-2.069238573E-2,-3.759734333E-1
2.660569021E0,7.270005345E-2,1.473776624E-2,-3.747516870E-1
2.663008031E0,8.980426192E-2,5.505483970E-2,-3.674213290E-1
2.665446209E0,1.093519330E-1,9.781537950E-2,-3.539822996E-1
2.667885167E0,1.276778728E-1,1.466845572E-1,-3.368780911E-1
2.670324959E0,1.521124542E-1,2.138796747E-1,-3.161086738E-1
2.672763969E0,1.802122295E-1,2.871834040E-1,-2.892306447E-1
2.675202146E0,2.070902884E-1,3.702610135E-1,-2.623525858E-1
2.677641104E0,2.290814221E-1,4.533386230E-1,-2.354745418E-1
2.680080896E0,2.486290932E-1,5.241989493E-1,-2.110399455E-1
2.682519854E0,2.681767642E-1,5.913940668E-1,-1.841619015E-1
2.684958084E0,2.877244353E-1,6.488153338E-1,-1.585055888E-1
2.687397042E0,2.999417186E-1,6.927976012E-1,-1.389579177E-1
2.689836834E0,3.158242106E-1,7.270060182E-1,-1.194102317E-1
2.692275792E0,3.207111061E-1,7.465537190E-1,-1.047494784E-1
2.694714021E0,3.304849565E-1,7.734317780E-1,-8.275835216E-2
2.697152979E0,3.378153443E-1,7.893142700E-1,-6.565413624E-2
2.699592771E0,3.402587771E-1,8.003098369E-1,-4.854992777E-2
2.702031729E0,3.463674486E-1,8.161922693E-1,-2.655879781E-2
2.704469959E0,3.524760902E-1,8.308530450E-1,-4.567668308E-3
2.706908917E0,3.573630154E-1,8.479572535E-1,1.620173268E-2
2.709348709E0,3.622499108E-1,8.711701035E-1,3.697113693E-2
2.711787667E0,3.646933734E-1,9.017133713E-1,5.896226317E-2
2.714225844E0,3.634716570E-1,9.285913706E-1,7.606647909E-2
2.716664854E0,3.585847318E-1,9.530259967E-1,9.194896370E-2
2.719104646E0,3.549195528E-1,9.786822796E-1,1.066097096E-1
2.721543604E0,3.500326276E-1,9.957864285E-1,1.176052764E-1
2.723981781E0,3.451457024E-1,1.009225488E0,1.261573732E-1
2.726420792E0,3.427022398E-1,1.022664547E0,1.359312087E-1
2.728860584E0,3.390370607E-1,1.032438397E0,1.420398653E-1
2.731299542E0,3.414805233E-1,1.033660054E0,1.481485069E-1
2.733737719E0,3.439239860E-1,1.028773189E0,1.542571485E-1
2.736176729E0,3.414805233E-1,1.012890697E0,1.567006111E-1
2.738616521E0,3.475891650E-1,9.970082045E-1,1.567006111E-1
2.741055479E0,3.500326276E-1,9.762388468E-1,1.542571485E-1
2.743493656E0,3.524760902E-1,9.530259967E-1,1.493702382E-1
2.745932667E0,3.512543440E-1,9.310348630E-1,1.383746713E-1
2.748372459E0,3.512543440E-1,9.029350877E-1,1.249356493E-1
2.750811417E0,3.488108814E-1,8.650614619E-1,1.090531722E-1
2.753249594E0,3.439239860E-1,8.149705529E-1,9.561415017E-2
2.755688604E0,3.414805233E-1,7.538840771E-1,8.461858332E-2
2.758128344E0,3.378153443E-1,6.793586016E-1,7.850993425E-2
2.760567354E0,3.292632401E-1,5.852854252E-1,7.484474778E-2
2.763005531E0,3.243763149E-1,4.899905324E-1,7.850993425E-2
2.765444542E0,3.158242106E-1,3.763696551E-1,8.584031463E-2
2.767884281E0,3.121590018E-1,2.603053749E-1,9.561415017E-2
2.770323292E0,3.011634350E-1,1.466845572E-1,1.053879857E-1
2.772761469E0,2.901678979E-1,2.084641531E-2,1.139400899E-1
2.775200479E0,2.779505849E-1,-9.521788359E-2,1.224922016E-1
2.777640219E0,2.645115554E-1,-2.125038952E-1,1.249356493E-1
2.780079229E0,2.486290932E-1,-3.139074743E-1,1.322660297E-1
2.782517406E0,2.315248847E-1,-4.140892923E-1,1.371529400E-1
2.784956417E0,2.168641090E-1,-5.093841553E-1,1.420398653E-1
2.787396156E0,2.022033632E-1,-5.936834812E-1,1.469267756E-1
2.789835167E0,1.887643337E-1,-6.621003151E-1,1.530354321E-1
2.792273344E0,1.777687669E-1,-7.305172086E-1,1.554788798E-1
2.794712302E0,1.631080210E-1,-7.818298340E-1,1.591440737E-1
2.797152094E0,1.533342004E-1,-8.306990266E-1,1.603658050E-1
2.799591104E0,1.435603499E-1,-8.734595180E-1,1.615875363E-1
2.802029281E0,1.350082457E-1,-9.015592933E-1,1.689179093E-1
2.804468240E0,1.264561415E-1,-9.455415606E-1,1.725831032E-1
2.806908031E0,1.203474998E-1,-9.724196196E-1,1.799134761E-1
2.809347042E0,1.117953956E-1,-9.944107533E-1,1.909090430E-1
2.811785219E0,1.044650227E-1,-1.000519395E0,2.043480575E-1
2.814224177E0,9.835636616E-2,-9.919672608E-1,2.202305496E-1
2.816663969E0,9.102599323E-2,-9.687544107E-1,2.336695641E-1
2.819102927E0,8.003042638E-2,-9.333242774E-1,2.446651459E-1
2.821541156E0,7.758697867E-2,-8.661291599E-1,2.568824291E-1
2.823980115E0,7.880869508E-2,-7.818298340E-1,2.654345334E-1
2.826419906E0,8.003042638E-2,-6.926435828E-1,2.642128170E-1
2.828858865E0,7.880869508E-2,-6.010138392E-1,2.581041455E-1
2.831297094E0,8.736081421E-2,-4.947234392E-1,2.483303249E-1
2.833736052E0,9.957809746E-2,-3.982068002E-1,2.361130267E-1
2.836175844E0,1.117953956E-1,-3.114640117E-1,2.275609225E-1
2.838614802E0,1.252344251E-1,-2.247211933E-1,2.251174599E-1
2.841053031E0,1.411168873E-1,-1.514174342E-1,2.287826538E-1
2.843491990E0,1.508907378E-1,-8.055712283E-2,2.373347580E-1
2.845931781E0,1.557776630E-1,-2.191411518E-2,2.471085787E-1
2.848370740E0,1.582210958E-1,3.917235881E-2,2.654345334E-1
2.850808969E0,1.533342004E-1,8.804154396E-2,2.886473835E-1
2.853247927E0,1.496689916E-1,1.271368861E-1,3.143037260E-1
2.855687719E0,1.411168873E-1,1.589018553E-1,3.375165761E-1
2.858126677E0,1.288996041E-1,1.808929741E-1,3.607294261E-1
2.860564854E0,1.117953956E-1,1.870016307E-1,3.827205598E-1
2.863003865E0,1.056867540E-1,2.041058391E-1,4.083768725E-1
2.865443656E0,9.346945584E-2,1.992189288E-1,4.218159020E-1
2.867882615E0,8.369562030E-2,1.992189288E-1,4.340331852E-1
2.870320792E0,7.758697867E-2,2.065493017E-1,4.413635731E-1
2.872759802E0,7.758697867E-2,2.199883163E-1,4.450287521E-1
2.875199542E0,7.392178476E-2,2.248752415E-1,4.413635731E-1
2.877638552E0,7.880869508E-2,2.456446439E-1,4.413635731E-1
2.880076729E0,8.247388899E-2,2.554184496E-1,4.376983941E-1
2.882515740E0,8.491735160E-2,2.688574791E-1,4.401418567E-1
2.884955479E0,8.613908291E-2,2.798530459E-1,4.425852895E-1
2.887394490E0,8.736081421E-2,2.896268666E-1,4.450287521E-1
2.889832667E0,8.613908291E-2,2.920703292E-1,4.486939609E-1
2.892271677E0,7.880869508E-2,2.957355082E-1,4.535808563E-1
2.894711417E0,7.147832215E-2,3.067310750E-1,4.633547068E-1
2.897150427E0,5.926102772E-2,3.091745377E-1,4.719068110E-1
2.899588604E0,4.704373702E-2,3.177266419E-1,4.829023778E-1
2.902027563E0,3.360471129E-2,3.140614629E-1,4.926762283E-1
2.904467354E0,2.138741687E-2,2.981789708E-1,4.987848699E-1
2.906906365E0,7.948393002E-3,2.847399414E-1,5.036718249E-1
2.909344542E0,-4.268901423E-3,2.651922703E-1,5.036718249E-1
2.911783500E0,-1.648619585E-2,2.480880767E-1,5.000065565E-1
2.914223292E0,-2.748176083E-2,2.322056144E-1,4.926762283E-1
2.916662302E0,-3.725559637E-2,2.236535102E-1,4.841240942E-1
2.919100479E0,-4.092078283E-2,2.212100476E-1,4.743502736E-1
2.921539438E0,-4.580770060E-2,2.114362121E-1,4.633547068E-1
2.923979229E0,-5.069461837E-2,2.053275704E-1,4.511373937E-1
2.926418188E0,-5.435980856E-2,1.870016307E-1,4.389201105E-1
2.928856417E0,-5.802499875E-2,1.625670344E-1,4.267028272E-1
2.931295375E0,-6.413364410E-2,1.369107217E-1,4.181507230E-1
2.933735167E0,-6.535537541E-2,1.161413193E-1,4.132637978E-1
2.936174125E0,-6.291191280E-2,9.415018559E-2,4.095986187E-1
2.938612354E0,-6.413364410E-2,7.826770842E-2,4.034899473E-1
2.941051313E0,-6.779883802E-2,6.482867897E-2,3.961595893E-1
2.943491104E0,-6.657710671E-2,6.116348132E-2,3.949378431E-1
2.945930063E0,-6.657710671E-2,4.405927658E-2,3.912726641E-1
2.948368292E0,-6.535537541E-2,1.962468401E-2,3.876074851E-1
2.950807250E0,-6.413364410E-2,-3.588173538E-3,3.827205598E-1
2.953247042E0,-6.413364410E-2,-3.046622127E-2,3.778336346E-1
2.955686000E0,-6.413364410E-2,-7.078329474E-2,3.668380678E-1
2.958124177E0,-6.046845391E-2,-1.111003608E-1,3.619511724E-1
2.960563188E0,-5.924672261E-2,-1.563043445E-1,3.509556055E-1
2.963002979E0,-5.435980856E-2,-1.929562241E-1,3.460686803E-1
2.965441938E0,-5.191634968E-2,-2.344950289E-1,3.362948298E-1
2.967880115E0,-4.580770060E-2,-2.601513565E-1,3.252992630E-1
2.970319125E0,-4.092078283E-2,-2.809207737E-1,3.179689050E-1
2.972758865E0,-4.092078283E-2,-2.992467284E-1,3.081950545E-1
2.975197875E0,-3.847732767E-2,-3.151291907E-1,2.971994877E-1
2.977636052E0,-3.847732767E-2,-3.163509369E-1,2.910908461E-1
2.980075063E0,-4.092078283E-2,-3.102422953E-1,2.862039208E-1
2.982514802E0,-4.580770060E-2,-3.114640117E-1,2.764301002E-1
2.984953813E0,-4.458597302E-2,-2.931380868E-1,2.690997124E-1
2.987391990E0,-4.336424544E-2,-2.821425200E-1,2.568824291E-1
2.989831000E0,-4.214251414E-2,-2.699252069E-1,2.471085787E-1
2.992270740E0,-3.603386506E-2,-2.540427148E-1,2.385564893E-1
2.994709750E0,-3.114694729E-2,-2.467123270E-1,2.300043851E-1
2.997147927E0,-2.626002952E-2,-2.296081185E-1,2.226739973E-1
2.999586938E0,-1.526446640E-2,-2.222777307E-1,2.141218930E-1
3.002026677E0,-9.155819193E-3,-2.234994620E-1,2.043480575E-1
3.004465688E0,-6.037130952E-4,-2.234994620E-1,1.970176846E-1
3.006903865E0,3.061475232E-3,-2.283863872E-1,1.872438490E-1
3.009342823E0,1.283531077E-2,-2.430471331E-1,1.738048196E-1
3.011782615E0,1.650049910E-2,-2.564861476E-1,1.603658050E-1
3.014221625E0,2.016568556E-2,-2.577078938E-1,1.530354321E-1
3.016659802E0,2.138741687E-2,-2.674817443E-1,1.432615817E-1
3.019098761E0,1.894395798E-2,-2.674817443E-1,1.359312087E-1
3.021538552E0,1.527876966E-2,-2.687034905E-1,1.310442984E-1
3.023977511E0,1.039185189E-2,-2.613730729E-1,1.286008358E-1
3.026415740E0,4.283204675E-3,-2.564861476E-1,1.286008358E-1
3.028854698E0,4.283204675E-3,-2.454905957E-1,1.310442984E-1
3.031294490E0,-1.825442538E-3,-2.357167602E-1,1.347094774E-1
3.033733448E0,-5.490630865E-3,-2.234994620E-1,1.395964026E-1
3.036171677E0,-9.155819193E-3,-2.063952535E-1,1.457050443E-1
3.038610636E0,-1.404273696E-2,-2.002866119E-1,1.481485069E-1
3.041050427E0,-1.892965473E-2,-1.880693138E-1,1.542571485E-1
3.043489386E0,-2.137311362E-2,-1.844041198E-1,1.579223424E-1
3.045927615E0,-1.892965473E-2,-1.770737469E-1,1.615875363E-1
3.048366573E0,-2.137311362E-2,-1.746302843E-1,1.664744467E-1
3.050806365E0,-1.770792529E-2,-1.721868217E-1,1.725831032E-1
3.053245323E0,-1.648619585E-2,-1.648564488E-1,1.738048196E-1
3.055683500E0,-1.770792529E-2,-1.660781801E-1,1.701396406E-1
3.058122511E0,-2.137311362E-2,-1.636347175E-1,1.640309840E-1
3.060562302E0,-2.015138417E-2,-1.636347175E-1,1.567006111E-1
3.063001261E0,-2.015138417E-2,-1.697433740E-1,1.469267756E-1
3.065439438E0,-2.015138417E-2,-1.782954782E-1,1.334877610E-1
3.067878448E0,-1.892965473E-2,-1.917344928E-1,1.176052764E-1
3.070318240E0,-1.892965473E-2,-1.990648806E-1,1.041662544E-1
3.072757198E0,-1.282100752E-2,-1.990648806E-1,9.561415017E-2
3.075195375E0,-9.155819193E-3,-1.990648806E-1,9.194896370E-2
3.077634386E0,-7.934089750E-3,-1.966214180E-1,9.072723240E-2
3.080074125E0,-4.268901423E-3,-1.941779554E-1,8.706203848E-2
3.082513136E0,-4.268901423E-3,-1.929562241E-1,8.339685202E-2
3.084951313E0,-4.268901423E-3,-1.929562241E-1,7.973166555E-2
3.087390323E0,-5.490630865E-3,-2.039517909E-1,7.117956132E-2
3.089830063E0,-3.047171980E-3,-2.161690891E-1,6.140572578E-2
3.092269073E0,-4.268901423E-3,-2.344950289E-1,5.163189024E-2
3.094707250E0,-3.047171980E-3,-2.503775060E-1,4.063632339E-2
3.097146261E0,-7.934089750E-3,-2.662599981E-1,3.086248599E-2
3.099586000E0,-9.155819193E-3,-2.809207737E-1,1.986692101E-2
3.102025011E0,-9.155819193E-3,-2.968032658E-1,8.871355094E-3
3.104463188E0,-1.404273696E-2,-3.126857579E-1,-3.345938865E-3
3.106902146E0,-1.770792529E-2,-3.261247575E-1,-1.678496227E-2
3.109341938E0,-2.015138417E-2,-3.371203244E-1,-2.900225669E-2
3.111780948E0,-1.770792529E-2,-3.444507122E-1,-4.366301000E-2
3.114219125E0,-1.892965473E-2,-3.505593538E-1,-5.343684554E-2
3.116658084E0,-1.770792529E-2,-3.542245328E-1,-6.809759885E-2
3.119097875E0,-1.526446640E-2,-3.578897417E-1,-8.031488955E-2
3.121536834E0,-1.770792529E-2,-3.566679955E-1,-9.253218770E-2
3.123975063E0,-1.648619585E-2,-3.578897417E-1,-1.035277471E-1
3.126414021E0,-1.282100752E-2,-3.493376374E-1,-1.120798588E-1
3.128853813E0,-1.159927808E-2,-3.432289660E-1,-1.218536943E-1
3.131292771E0,-9.155819193E-3,-3.273465037E-1,-1.304057986E-1
3.133731000E0,-6.712360308E-3,-3.041336238E-1,-1.377361864E-1
3.136169959E0,-7.934089750E-3,-2.796990573E-1,-1.475100219E-1
3.138609750E0,-5.490630865E-3,-2.479340583E-1,-1.560621262E-1
3.141048709E0,-3.047171980E-3,-2.027300596E-1,-1.609490365E-1
3.143486886E0,-6.037130952E-4,-1.587478071E-1,-1.731663346E-1
3.145925896E0,-6.037130952E-4,-1.086568981E-1,-1.817184389E-1
3.148365688E0,1.839745790E-3,-5.490081012E-2,-1.878270954E-1
3.150804646E0,5.504934117E-3,3.742203116E-3,-1.951574683E-1
3.153242823E0,1.039185189E-2,5.627657101E-2,-2.000443786E-1
3.155681834E0,1.650049910E-2,1.149195880E-1,-2.000443786E-1
3.158121625E0,2.016568556E-2,1.686756909E-1,-2.000443786E-1
3.160560584E0,2.138741687E-2,2.163231373E-1,-2.000443786E-1
3.162998761E0,2.260914817E-2,2.627488077E-1,-1.963791996E-1
3.165437771E0,2.383087575E-2,3.018441498E-1,-1.939357370E-1
3.167877511E0,2.505260333E-2,3.421612382E-1,-1.878270954E-1
3.170316521E0,2.505260333E-2,3.751479387E-1,-1.841619015E-1
3.172754698E0,2.505260333E-2,4.056911767E-1,-1.768315285E-1
3.175193709E0,2.871779352E-2,4.301257432E-1,-1.695011556E-1
3.177633448E0,2.871779352E-2,4.460082352E-1,-1.621707678E-1
3.180072459E0,2.993952110E-2,4.618907273E-1,-1.536186635E-1
3.182510636E0,3.238298371E-2,4.741080105E-1,-1.438448280E-1
3.184949646E0,3.360471129E-2,4.765514731E-1,-1.352927238E-1
3.187389386E0,3.482643887E-2,4.741080105E-1,-1.267406195E-1
3.189828396E0,3.604817018E-2,4.692210853E-1,-1.194102317E-1
3.192266573E0,3.482643887E-2,4.582255185E-1,-1.084146723E-1
3.194705531E0,3.360471129E-2,4.337909520E-1,-9.986256063E-2
3.197145323E0,3.116125241E-2,4.044694304E-1,-9.131045640E-2
3.199584334E0,3.238298371E-2,3.775914013E-1,-7.664970309E-2
3.202022511E0,2.871779352E-2,3.421612382E-1,-6.443241239E-2
3.204461469E0,2.383087575E-2,3.079528213E-1,-5.221511424E-2
3.206901261E0,1.894395798E-2,2.761878371E-1,-3.633263335E-2
3.209340219E0,1.527876966E-2,2.493098229E-1,-1.922842115E-2
3.211778448E0,9.170122445E-3,2.236535102E-1,-2.124209423E-3
3.214217406E0,7.948393002E-3,1.992189288E-1,1.498000231E-2
3.216657198E0,3.061475232E-3,1.784495264E-1,3.086248599E-2
3.219096156E0,-6.037130952E-4,1.552366614E-1,4.430150986E-2
3.221534386E0,-4.268901423E-3,1.344672590E-1,5.774053186E-2
3.223973344E0,-9.155819193E-3,1.173630506E-1,6.995783001E-2
3.226413136E0,-1.404273696E-2,1.002588272E-1,8.339685202E-2
3.228852094E0,-1.648619585E-2,9.048499167E-2,9.439241886E-2
3.231290323E0,-2.259484306E-2,7.826770842E-2,1.005010679E-1
3.233729281E0,-2.870349213E-2,7.215905190E-2,1.053879857E-1
3.236169073E0,-4.092078283E-2,6.849387288E-2,1.029445231E-1
3.238608031E0,-5.069461837E-2,6.849387288E-2,9.805760533E-2
3.241046209E0,-5.435980856E-2,7.582424581E-2,9.561415017E-2
3.243485219E0,-5.802499875E-2,7.704597712E-2,8.461858332E-2
3.245925011E0,-6.046845391E-2,8.559808135E-2,7.973166555E-2
3.248363969E0,-5.680326745E-2,9.292845428E-2,7.484474778E-2
3.250802146E0,-5.069461837E-2,1.002588272E-1,7.240129262E-2
3.253241156E0,-3.725559637E-2,1.075892150E-1,7.240129262E-2
3.255680896E0,-2.137311362E-2,1.136978567E-1,7.362301648E-2
3.258119906E0,-5.490630865E-3,1.246934235E-1,6.995783001E-2
3.260558084E0,1.039185189E-2,1.381324530E-1,6.629264355E-2
3.262997094E0,2.260914817E-2,1.564583927E-1,6.018399447E-2
3.265436834E0,3.604817018E-2,1.747843325E-1,5.285361409E-2
3.267875844E0,4.337854683E-2,1.931102723E-1,4.552324116E-2
3.270314021E0,5.315238610E-2,2.126579434E-1,3.941459209E-2
3.272753031E0,6.414794922E-2,2.260969728E-1,3.330594301E-2
3.275192771E0,7.147832215E-2,2.370925397E-1,2.475383691E-2
3.277631781E0,7.880869508E-2,2.432011813E-1,1.986692101E-2
3.280069959E0,8.491735160E-2,2.493098229E-1,1.253654342E-2
3.282508917E0,9.346945584E-2,2.615270913E-1,5.206167232E-3
3.284948709E0,9.346945584E-2,2.725226581E-1,-2.124209423E-3
3.287387719E0,9.346945584E-2,2.981789708E-1,-8.232857101E-3
3.289825896E0,8.858253062E-2,3.311656713E-1,-1.067631599E-2
3.292264854E0,8.247388899E-2,3.690392971E-1,-1.434150431E-2
3.294704646E0,7.025659084E-2,4.154649973E-1,-1.434150431E-2
3.297143604E0,5.926102772E-2,4.679993689E-1,-1.067631599E-2
3.299581834E0,4.215681925E-2,5.193120241E-1,-7.011127193E-3
3.302020792E0,1.772222854E-2,5.657377839E-1,-2.124209423E-3
3.304460584E0,-6.712360308E-3,6.060548425E-1,1.131481398E-2
3.306899542E0,-2.992521971E-2,6.451501846E-1,2.597556822E-2
3.309337771E0,-5.558153614E-2,6.720282435E-1,4.552324116E-2
3.311776729E0,-7.757267356E-2,6.989062428E-1,6.507091224E-2
3.314216521E0,-1.007855237E-1,7.282277942E-1,8.584031463E-2
3.316655479E0,-1.227766573E-1,7.612144351E-1,1.029445231E-1
3.319093709E0,-1.484329700E-1,7.880924940E-1,1.224922016E-1
3.321532667E0,-1.655371785E-1,8.051967025E-1,1.481485069E-1
3.323972459E0,-1.753110290E-1,8.235226870E-1,1.701396406E-1
3.326411417E0,-1.850848496E-1,8.479572535E-1,1.884655803E-1
3.328849594E0,-1.985238791E-1,8.821656704E-1,2.043480575E-1
3.331288604E0,-2.144063711E-1,9.212610126E-1,2.165653557E-1
3.333728344E0,-2.400626838E-1,9.713519216E-1,2.251174599E-1
3.336167354E0,-2.706059217E-1,1.027551413E0,2.434433997E-1
3.338605531E0,-3.072578013E-1,1.083750963E0,2.605476081E-1
3.341044542E0,-3.524618149E-1,1.136285305E0,2.752083838E-1
3.343484281E0,-4.013309777E-1,1.187597990E0,2.886473835E-1
3.345923292E0,-4.550870657E-1,1.225471616E0,2.984212339E-1
3.348361469E0,-5.100648999E-1,1.249906182E0,3.045298755E-1
3.350800479E0,-5.674861670E-1,1.258458257E0,3.020864129E-1
3.353240219E0,-6.261291504E-1,1.249906182E0,2.935343087E-1
3.355679229E0,-6.786635518E-1,1.227915049E0,2.788735628E-1
3.358117406E0,-7.299761772E-1,1.193706632E0,2.556606829E-1
3.360556365E0,-7.764018774E-1,1.137507081E0,2.312261164E-1
3.362996156E0,-8.142755032E-1,1.072755456E0,2.092349827E-1
3.365435167E0,-8.484839201E-1,9.945647717E-1,1.884655803E-1
3.367873344E0,-8.716967702E-1,9.285913706E-1,1.774700135E-1
3.370312302E0,-8.924661875E-1,8.797222376E-1,1.848003864E-1
3.372752094E0,-9.046834707E-1,8.406268954E-1,2.006828785E-1
3.375191104E0,-9.144573212E-1,8.039749861E-1,2.214522660E-1
3.377629281E0,-9.266746044E-1,7.587710023E-1,2.397782207E-1
3.380068240E0,-9.450005293E-1,7.037931681E-1,2.532172501E-1
3.382508031E0,-9.645482302E-1,6.329329014E-1,2.581041455E-1
3.384946990E0,-9.779872298E-1,5.571856499E-1,2.544389665E-1
3.387385219E0,-9.926480055E-1,4.777732193E-1,2.446651459E-1
3.389824177E0,-1.001200199E0,3.959173262E-1,2.251174599E-1
3.392263969E0,-1.003643632E0,3.177266419E-1,1.982394159E-1
3.394702927E0,-9.987567067E-1,2.493098229E-1,1.664744467E-1
3.397141156E0,-9.889827967E-1,1.894450784E-1,1.286008358E-1
3.399580115E0,-9.669916630E-1,1.369107217E-1,8.950550109E-2
3.402019906E0,-9.401136637E-1,9.659364820E-2,4.552324116E-2
3.404458865E0,-9.095703959E-1,6.360694766E-2,3.984437790E-3
3.406897042E0,-8.778054118E-1,3.550716862E-2,-3.999782354E-2
3.409336052E0,-8.435969949E-1,1.473776624E-2,-8.031488955E-2
3.411775844E0,-8.032799363E-1,-4.809902981E-3,-1.181885079E-1
3.414214802E0,-7.641845942E-1,-2.802276239E-2,-1.536186635E-1
3.416652979E0,-7.250892520E-1,-5.001389235E-2,-1.853836328E-1
3.419091990E0,-6.835504770E-1,-7.322674990E-2,-2.183703184E-1
3.421531781E0,-6.395682096E-1,-9.888306260E-2,-2.452483773E-1
3.423970740E0,-6.004728675E-1,-1.269828379E-1,-2.709046900E-1
3.426408917E0,-5.577123165E-1,-1.575260758E-1,-2.953392863E-1
3.428847927E0,-5.125083327E-1,-1.929562241E-1,-3.173304200E-1
3.431287667E0,-4.721913040E-1,-2.406036854E-1,-3.380998075E-1
3.433726677E0,-4.318742156E-1,-2.906946242E-1,-3.503170907E-1
3.436164854E0,-3.915571570E-1,-3.554462790E-1,-3.600909412E-1
3.438603865E0,-3.524618149E-1,-4.201979339E-1,-3.661995828E-1
3.441043604E0,-3.206968307E-1,-4.971669018E-1,-3.710865080E-1
3.443482615E0,-2.864884138E-1,-5.631402731E-1,-3.698647916E-1
3.445920792E0,-2.547234595E-1,-6.217832565E-1,-3.661995828E-1
3.448359750E0,-2.266236544E-1,-6.730958819E-1,-3.600909412E-1
3.450799542E0,-1.985238791E-1,-7.231867909E-1,-3.527605534E-1
3.453238552E0,-1.740893126E-1,-7.732776999E-1,-3.478736579E-1
3.455676729E0,-1.472112536E-1,-8.148165345E-1,-3.417649865E-1
3.458115688E0,-1.239983886E-1,-8.453597426E-1,-3.295477033E-1
3.460555479E0,-1.032289863E-1,-8.649074435E-1,-3.148869574E-1
3.462994490E0,-7.879438996E-2,-8.673508763E-1,-2.990044653E-1
3.465432667E0,-5.924672261E-2,-8.563553095E-1,-2.757916152E-1
3.467871625E0,-4.092078283E-2,-8.380293846E-1,-2.562439442E-1
3.470311417E0,-2.503830194E-2,-8.258121014E-1,-2.403614521E-1
3.472750375E0,-9.155819193E-3,-8.172599673E-1,-2.305876166E-1
3.475188604E0,7.948393002E-3,-7.940471172E-1,-2.220355123E-1
3.477627563E0,2.383087575E-2,-7.659473419E-1,-2.159268707E-1
3.480067354E0,4.582200572E-2,-7.354040742E-1,-2.085964978E-1
3.482506313E0,6.781312823E-2,-7.097477913E-1,-1.988226473E-1
3.484944490E0,8.613908291E-2,-6.889783740E-1,-1.902705431E-1
3.487383500E0,1.081302017E-1,-6.743176579E-1,-1.853836328E-1
3.489823292E0,1.288996041E-1,-6.718741655E-1,-1.841619015E-1
3.492262250E0,1.460038126E-1,-6.621003151E-1,-1.866053641E-1
3.494700427E0,1.618863046E-1,-6.486613154E-1,-1.890488267E-1
3.497139438E0,1.789905131E-1,-6.278918982E-1,-1.914922744E-1
3.499579229E0,1.924295425E-1,-6.046790481E-1,-1.963791996E-1
3.502018188E0,2.034251094E-1,-5.814661980E-1,-2.024878412E-1
3.504456365E0,2.070902884E-1,-5.460360646E-1,-2.085964978E-1
3.506895375E0,2.046468258E-1,-5.142710805E-1,-2.171486020E-1
3.509335115E0,2.009816468E-1,-4.751757681E-1,-2.244789749E-1
3.511774125E0,1.912077963E-1,-4.324152172E-1,-2.330310792E-1
3.514212302E0,1.814339757E-1,-3.725504875E-1,-2.379179895E-1
3.516651313E0,1.679949462E-1,-3.077988327E-1,-2.428049147E-1
3.519091052E0,1.594428420E-1,-2.442688644E-1,-2.489135563E-1
3.521530063E0,1.533342004E-1,-1.844041198E-1,-2.586874068E-1
3.523968240E0,1.484472752E-1,-1.245393902E-1,-2.672395110E-1
3.526407198E0,1.386734247E-1,-8.788749576E-2,-2.806785405E-1
3.528846990E0,1.337865293E-1,-5.123562366E-2,-2.928958237E-1
3.531286000E0,1.325647831E-1,-4.809902981E-3,-3.026696444E-1
3.533724177E0,1.301213354E-1,3.795062751E-2,-3.161086738E-1
3.536163136E0,1.264561415E-1,9.170672297E-2,-3.332128823E-1
3.538602927E0,1.276778728E-1,1.246934235E-1,-3.503170907E-1
3.541041886E0,1.288996041E-1,1.540149301E-1,-3.625344038E-1
3.543480115E0,1.337865293E-1,1.723408699E-1,-3.723082244E-1
3.545919073E0,1.374517083E-1,1.857798994E-1,-3.784168959E-1
3.548358865E0,1.435603499E-1,1.918885410E-1,-3.784168959E-1
3.550797823E0,1.447820961E-1,1.845581681E-1,-3.710865080E-1
3.553236052E0,1.484472752E-1,1.637887657E-1,-3.588692248E-1
3.555675011E0,1.484472752E-1,1.308020651E-1,-3.429867327E-1
3.558114802E0,1.435603499E-1,8.437635005E-2,-3.222173154E-1
3.560553761E0,1.435603499E-1,3.672889620E-2,-3.026696444E-1
3.562991990E0,1.447820961E-1,-1.214027964E-2,-2.806785405E-1
3.565430948E0,1.447820961E-1,-6.100945920E-2,-2.660177648E-1
3.567870740E0,1.484472752E-1,-1.086568981E-1,-2.550221980E-1
3.570309698E0,1.533342004E-1,-1.624130011E-1,-2.464701086E-1
3.572747875E0,1.545559168E-1,-2.137256265E-1,-2.403614521E-1
3.575186886E0,1.594428420E-1,-2.735904157E-1,-2.366962731E-1
3.577626677E0,1.582210958E-1,-3.310116827E-1,-2.354745418E-1
3.580065636E0,1.606645584E-1,-3.823243082E-1,-2.305876166E-1
3.582503813E0,1.618863046E-1,-4.275283217E-1,-2.257007062E-1
3.584942823E0,1.643297672E-1,-4.654019177E-1,-2.171486020E-1
3.587382563E0,1.667732298E-1,-5.057189465E-1,-2.073747665E-1
3.589821573E0,1.667732298E-1,-5.387056470E-1,-1.951574683E-1
3.592259750E0,1.716601253E-1,-5.606967807E-1,-1.817184389E-1
3.594698761E0,1.741035879E-1,-5.655837059E-1,-1.695011556E-1
3.597138500E0,1.826556921E-1,-5.545881391E-1,-1.609490365E-1
3.599577511E0,1.850991547E-1,-5.264883637E-1,-1.572838575E-1
3.602015688E0,1.887643337E-1,-4.812844098E-1,-1.548403949E-1
3.604454646E0,1.899860799E-1,-4.336369634E-1,-1.536186635E-1
3.606894438E0,1.924295425E-1,-3.762156665E-1,-1.499534845E-1
3.609333448E0,1.875426173E-1,-3.297899663E-1,-1.426230967E-1
3.611771625E0,1.887643337E-1,-2.919163406E-1,-1.340709925E-1
3.614210584E0,1.863209009E-1,-2.564861476E-1,-1.194102317E-1
3.616650375E0,1.863209009E-1,-2.296081185E-1,-1.108581275E-1
3.619089386E0,1.850991547E-1,-1.941779554E-1,-1.047494784E-1
3.621527563E0,1.863209009E-1,-1.721868217E-1,-1.035277471E-1
3.623966521E0,1.912077963E-1,-1.404218674E-1,-1.023060232E-1
3.626406313E0,1.948730052E-1,-1.086568981E-1,-1.059712097E-1
3.628845271E0,1.997599006E-1,-7.444848120E-2,-1.096363962E-1
3.631283500E0,2.070902884E-1,-5.123562366E-2,-1.108581275E-1
3.633722459E0,2.083120048E-1,-3.413140774E-2,-1.071929410E-1
3.636162250E0,2.095337510E-1,-2.069238573E-2,-1.023060232E-1
3.638601209E0,2.046468258E-1,-1.214027964E-2,-9.497564286E-2
3.641039386E0,1.985381842E-1,-8.475091308E-3,-8.642353863E-2
3.643478396E0,1.899860799E-1,-1.458373852E-2,-8.031488955E-2
3.645918188E0,1.802122295E-1,-2.069238573E-2,-7.420624048E-2
3.648357146E0,1.692166626E-1,-3.290968016E-2,-6.809759885E-2
3.650795323E0,1.569993794E-1,-4.390524328E-2,-5.954549462E-2
3.653234334E0,1.472255588E-1,-5.978772789E-2,-5.465857685E-2
3.655674073E0,1.411168873E-1,-7.689193636E-2,-4.610646516E-2
3.658113084E0,1.276778728E-1,-1.001047939E-1,-3.755436093E-2
3.660551261E0,1.179040372E-1,-1.220959276E-1,-2.778052725E-2
3.662990271E0,1.081302017E-1,-1.477522403E-1,-1.678496227E-2
3.665430011E0,1.007998288E-1,-1.685216427E-1,-5.789397750E-3
3.667869021E0,9.102599323E-2,-1.880693138E-1,8.871355094E-3
3.670307198E0,8.125215769E-2,-2.039517909E-1,2.108865045E-2
3.672746156E0,7.270005345E-2,-2.125038952E-1,3.697113693E-2
3.675185948E0,6.170449033E-2,-2.112821639E-1,4.674497247E-2
3.677624959E0,4.460027441E-2,-2.027300596E-1,5.285361409E-2
3.680063136E0,3.116125241E-2,-1.892910451E-1,5.651880801E-2
3.682502094E0,1.405704021E-2,-1.685216427E-1,5.529707670E-2
3.684941886E0,-6.037130952E-4,-1.453087777E-1,5.529707670E-2
3.687380896E0,-1.282100752E-2,-1.269828379E-1,5.041015893E-2
3.689819073E0,-2.748176083E-2,-1.086568981E-1,4.307977855E-2
3.692258031E0,-3.603386506E-2,-9.277442098E-2,3.941459209E-2
3.694697823E0,-4.947289079E-2,-7.811366767E-2,3.574940562E-2
3.697136834E0,-5.680326745E-2,-6.589637697E-2,3.574940562E-2
3.699575011E0,-6.291191280E-2,-5.978772789E-2,3.452767432E-2
3.702013969E0,-6.657710671E-2,-5.612254143E-2,3.330594301E-2
3.704453761E0,-7.024228573E-2,-5.367907882E-2,3.086248599E-2
3.706892719E0,-7.512921095E-2,-5.734426901E-2,2.964075468E-2
3.709330948E0,-7.635094225E-2,-5.245735124E-2,2.841902710E-2
3.711769906E0,-7.635094225E-2,-5.245735124E-2,2.231037989E-2
3.714209698E0,-8.123785257E-2,-5.001389235E-2,1.620173268E-2
3.716648656E0,-8.368131518E-2,-4.390524328E-2,8.871355094E-3
3.719086834E0,-8.490304649E-2,-3.413140774E-2,1.540978788E-3
3.721525844E0,-9.101168811E-2,-2.435757406E-2,-4.567668308E-3
3.723965636E0,-9.467688203E-2,-1.824892685E-2,-8.232857101E-3
3.726404594E0,-9.956379235E-2,-9.696820751E-3,-1.189804543E-2
3.728842771E0,-1.093376279E-1,-2.366444096E-3,-1.311977487E-2
3.731281781E0,-1.191114634E-1,-2.366444096E-3,-1.556323376E-2
3.733721521E0,-1.264418364E-1,9.850850329E-3,-1.556323376E-2
3.736160531E0,-1.362156719E-1,1.595949754E-2,-1.800669171E-2
3.738598709E0,-1.447677910E-1,2.817679197E-2,-2.167188004E-2
3.741037719E0,-1.484329700E-1,3.917235881E-2,-2.533706836E-2
3.743477459E0,-1.557633579E-1,4.894619808E-2,-3.266744316E-2
3.745916469E0,-1.582068205E-1,5.383310840E-2,-3.999782354E-2
3.748354646E0,-1.545416415E-1,5.505483970E-2,-4.488474131E-2
3.750793656E0,-1.508764327E-1,5.261137709E-2,-5.221511424E-2
3.753233396E0,-1.423243284E-1,3.672889620E-2,-5.954549462E-2
3.755672406E0,-1.337722242E-1,2.084641531E-2,-6.565413624E-2
3.758110584E0,-1.227766573E-1,-2.366444096E-3,-7.298451662E-2
3.760549542E0,-1.130028218E-1,-2.680103295E-2,-7.664970309E-2
3.762989334E0,-1.032289863E-1,-5.612254143E-2,-8.520180732E-2
3.765428292E0,-9.345515072E-2,-8.300058544E-2,-9.131045640E-2
3.767866521E0,-8.368131518E-2,-1.086568981E-1,-9.375391155E-2
3.770305479E0,-7.512921095E-2,-1.306480318E-1,-9.253218770E-2
3.772745271E0,-7.268574834E-2,-1.477522403E-1,-9.131045640E-2
3.775184229E0,-6.535537541E-2,-1.587478071E-1,-9.008872509E-2
3.777622459E0,-6.046845391E-2,-1.648564488E-1,-8.642353863E-2
3.780061417E0,-5.802499875E-2,-1.660781801E-1,-8.642353863E-2
3.782501209E0,-5.435980856E-2,-1.746302843E-1,-8.642353863E-2
3.784940167E0,-5.069461837E-2,-1.844041198E-1,-9.131045640E-2
3.787378396E0,-4.702943191E-2,-1.990648806E-1,-9.864083678E-2
3.789817354E0,-4.336424544E-2,-2.149473578E-1,-1.108581275E-1
3.792257146E0,-3.969905525E-2,-2.344950289E-1,-1.267406195E-1
3.794696104E0,-2.992521971E-2,-2.540427148E-1,-1.450665593E-1
3.797134281E0,-2.503830194E-2,-2.723686695E-1,-1.621707678E-1
3.799573292E0,-1.770792529E-2,-2.882511616E-1,-1.792749763E-1
3.802013031E0,-4.268901423E-3,-2.980249822E-1,-1.914922744E-1
3.804452042E0,7.948393002E-3,-3.041336238E-1,-1.988226473E-1
3.806890219E0,1.405704021E-2,-3.041336238E-1,-2.012661099E-1
3.809329229E0,2.627433464E-2,-2.943598032E-1,-2.000443786E-1
3.811768969E0,3.482643887E-2,-2.699252069E-1,-1.927140057E-1
3.814207979E0,4.460027441E-2,-2.418254018E-1,-1.853836328E-1
3.816646156E0,5.193065479E-2,-1.990648806E-1,-1.743880659E-1
3.819085167E0,5.681757256E-2,-1.477522403E-1,-1.633924991E-1
3.821524906E0,5.681757256E-2,-9.277442098E-2,-1.499534845E-1
3.823963917E0,6.292621791E-2,-2.924449183E-2,-1.352927238E-1
3.826402094E0,6.536968052E-2,2.939851955E-2,-1.230754182E-1
3.828841052E0,6.536968052E-2,8.681981266E-2,-1.133015826E-1
3.831280844E0,6.903485954E-2,1.393541843E-1,-9.864083678E-2
3.833719802E0,7.392178476E-2,1.845581681E-1,-9.008872509E-2
3.836158031E0,8.369562030E-2,2.236535102E-1,-8.398007601E-2
3.838596990E0,9.469118714E-2,2.603053749E-1,-7.787143439E-2
3.841036781E0,1.117953956E-1,2.957355082E-1,-7.542797178E-2
3.843475740E0,1.313430667E-1,3.226135671E-1,-7.787143439E-2
3.845913969E0,1.484472752E-1,3.519350588E-1,-8.398007601E-2
3.848352927E0,1.679949462E-1,3.824782968E-1,-9.375391155E-2
3.850792719E0,1.777687669E-1,4.117998183E-1,-1.047494784E-1
3.853231677E0,1.838774383E-1,4.362344146E-1,-1.206319630E-1
3.855669854E0,1.838774383E-1,4.508951604E-1,-1.389579177E-1
3.858108865E0,1.863209009E-1,4.753297567E-1,-1.560621262E-1
3.860548656E0,1.814339757E-1,4.863253236E-1,-1.780532598E-1
3.862987615E0,1.704384089E-1,4.887687564E-1,-2.049313039E-1
3.865425792E0,1.618863046E-1,4.875470400E-1,-2.366962731E-1
3.867864802E0,1.508907378E-1,4.838818908E-1,-2.782350779E-1
3.870304542E0,1.460038126E-1,4.753297567E-1,-3.209955990E-1
3.872743552E0,1.460038126E-1,4.582255185E-1,-3.674213290E-1
3.875181729E0,1.594428420E-1,4.460082352E-1,-4.101818502E-1
3.877620740E0,1.826556921E-1,4.423430562E-1,-4.480554760E-1
3.880060479E0,2.119772136E-1,4.533386230E-1,-4.773769677E-1
3.882499490E0,2.425204515E-1,4.728862941E-1,-5.066984296E-1
3.884937667E0,2.742854059E-1,5.156468749E-1,-5.262461305E-1
3.887376625E0,2.999417186E-1,5.718464255E-1,-5.372416973E-1
3.889816417E0,3.231545687E-1,6.378197670E-1,-5.409068465E-1
3.892255427E0,3.414805233E-1,7.160104513E-1,-5.347982049E-1
3.894693604E0,3.573630154E-1,7.929794192E-1,-5.238026381E-1
3.897132563E0,3.732454777E-1,8.772787452E-1,-5.103636384E-1
3.899572354E0,3.842410445E-1,9.713519216E-1,-4.944811761E-1
3.902011365E0,3.903496861E-1,1.073977113E0,-4.895942509E-1
3.904449542E0,3.964583576E-1,1.190041423E0,-4.871508181E-1
3.906888500E0,4.025669992E-1,1.298775315E0,-4.944811761E-1
3.909328292E0,4.062321782E-1,1.409952760E0,-5.103636384E-1
3.911767250E0,4.135625660E-1,1.512578011E0,-5.286895633E-1
3.914205479E0,4.208929241E-1,1.594433904E0,-5.494589806E-1
3.916644438E0,4.331102371E-1,1.654298663E0,-5.690066218E-1
3.919084229E0,4.453275204E-1,1.690950513E0,-5.848891139E-1
3.921523188E0,4.624317288E-1,1.704389572E0,-5.946629643E-1
3.923961417E0,4.832011461E-1,1.693393946E0,-5.946629643E-1
3.926400375E0,5.027488470E-1,1.654298663E0,-5.824456811E-1
3.928840167E0,5.259616971E-1,1.588325262E0,-5.567893386E-1
3.931279125E0,5.479528308E-1,1.494252086E0,-5.189157128E-1
3.933717302E0,5.577266812E-1,1.376966000E0,-4.724900424E-1
3.936156313E0,5.675004721E-1,1.226693273E0,-4.150687754E-1
3.938596104E0,5.748308897E-1,1.054429412E0,-3.478736579E-1
3.941035063E0,5.736091733E-1,8.589528203E-1,-2.782350779E-1
3.943473240E0,5.650570393E-1,6.573674679E-1,-2.049313039E-1
3.945912250E0,5.528397560E-1,4.594472647E-1,-1.316275299E-1
3.948351990E0,5.332920551E-1,2.603053749E-1,-5.710203201E-2
3.950791000E0,5.161878467E-1,6.971560419E-2,1.375827286E-2
3.953229177E0,4.929749668E-1,-1.196524650E-1,8.461858332E-2
3.955668188E0,4.746490419E-1,-2.980249822E-1,1.530354321E-1
3.958107927E0,4.587665498E-1,-4.763974845E-1,2.165653557E-1
3.960546938E0,4.441058040E-1,-6.474395990E-1,2.764301002E-1
3.962985115E0,4.367754161E-1,-8.062644005E-1,3.265210092E-1
3.965424125E0,4.306667745E-1,-9.589806199E-1,3.656163514E-1
3.967863865E0,4.257798493E-1,-1.092149138E0,3.973813057E-1
3.970302875E0,4.245581329E-1,-1.209435225E0,4.254810810E-1
3.972741052E0,4.233363867E-1,-1.302286625E0,4.462504983E-1
3.975180011E0,4.147842824E-1,-1.370703459E0,4.572460651E-1
3.977619802E0,4.013452530E-1,-1.415907502E0,4.584677815E-1
3.980058761E0,3.891279697E-1,-1.429346442E0,4.499156773E-1
3.982496990E0,3.720237613E-1,-1.420794368E0,4.315897524E-1
3.984935948E0,3.549195528E-1,-1.384142518E0,4.071551561E-1
3.987375740E0,3.341501355E-1,-1.325499535E0,3.778336346E-1
3.989814698E0,3.146024644E-1,-1.255860925E0,3.472903967E-1
3.992252927E0,2.938330770E-1,-1.160565972E0,3.179689050E-1
3.994691886E0,2.755071223E-1,-1.046945214E0,2.910908461E-1
3.997131677E0,2.559594512E-1,-9.211069942E-1,2.654345334E-1
3.999570636E0,2.376335263E-1,-7.903819084E-1,2.458868623E-1
4.002008813E0,2.241944969E-1,-6.596568823E-1,2.324478328E-1
4.004447823E0,2.095337510E-1,-5.338187218E-1,2.251174599E-1
4.006887615E0,1.960947216E-1,-4.116458297E-1,2.202305496E-1
4.009326573E0,1.863209009E-1,-2.870294154E-1,2.177870870E-1
4.011764750E0,1.728818715E-1,-1.636347175E-1,2.104567140E-1
4.014203761E0,1.557776630E-1,-3.413140774E-2,2.031263262E-1
4.016643500E0,1.398951709E-1,9.170672297E-2,1.811352074E-1
4.019082511E0,1.166823208E-1,2.163231373E-1,1.530354321E-1
4.021520688E0,9.591291845E-2,3.262787461E-1,1.249356493E-1
4.023959698E0,7.147832215E-2,4.179084599E-1,1.017227992E-1
4.026399438E0,5.193065479E-2,4.973208904E-1,9.194896370E-2
4.028838448E0,3.482643887E-2,5.620725751E-1,8.950550109E-2
4.031276625E0,1.772222854E-2,6.158286333E-1,9.927933663E-2
4.033715584E0,4.283204675E-3,6.549239755E-1,1.163835451E-1
4.036155375E0,-1.404273696E-2,6.891324520E-1,1.359312087E-1
4.038594386E0,-2.992521971E-2,7.135670185E-1,1.603658050E-1
4.041032563E0,-4.825116321E-2,7.343364358E-1,1.872438490E-1
4.043471521E0,-6.535537541E-2,7.477754354E-1,2.153436244E-1
4.045911313E0,-8.245958388E-2,7.538840771E-1,2.409999371E-1
4.048350323E0,-9.956379235E-2,7.551057935E-1,2.654345334E-1
4.050788500E0,-1.264418364E-1,7.526623607E-1,2.886473835E-1
4.053227459E0,-1.484329700E-1,7.489971519E-1,3.069733381E-1
4.055667250E0,-1.728675663E-1,7.392233610E-1,3.191906214E-1
4.058106209E0,-1.936369836E-1,7.245625854E-1,3.289644718E-1
4.060544438E0,-2.131846547E-1,7.037931681E-1,3.338513672E-1
4.062983396E0,-2.290671170E-1,6.818020344E-1,3.350731134E-1
4.065423188E0,-2.388409674E-1,6.573674679E-1,3.326296508E-1
4.067862146E0,-2.449496090E-1,6.268242002E-1,3.314079344E-1
4.070300323E0,-2.461713552E-1,5.987244248E-1,3.338513672E-1
4.072739334E0,-2.437278926E-1,5.681812167E-1,3.350731134E-1
4.075179125E0,-2.412844300E-1,5.364162326E-1,3.338513672E-1
4.077618084E0,-2.376192212E-1,5.009860992E-1,3.314079344E-1
4.080056261E0,-2.327323258E-1,4.618907273E-1,3.265210092E-1
4.082495271E0,-2.302888632E-1,4.203519225E-1,3.191906214E-1
4.084935063E0,-2.302888632E-1,3.849217594E-1,3.118602633E-1
4.087374021E0,-2.302888632E-1,3.531568050E-1,3.008646965E-1
4.089812198E0,-2.327323258E-1,3.177266419E-1,2.874256670E-1
4.092251209E0,-2.351757586E-1,2.786312997E-1,2.715431750E-1
4.094690948E0,-2.388409674E-1,2.444228977E-1,2.581041455E-1
4.097129959E0,-2.461713552E-1,1.992189288E-1,2.471085787E-1
4.099568136E0,-2.473930717E-1,1.564583927E-1,2.385564893E-1
4.102007146E0,-2.510582507E-1,1.185847819E-1,2.336695641E-1
4.104446886E0,-2.535017133E-1,7.826770842E-2,2.287826538E-1
4.106885896E0,-2.571668923E-1,3.917235881E-2,2.275609225E-1
4.109324073E0,-2.596103549E-1,-8.475091308E-3,2.263391912E-1
4.111763031E0,-2.620538175E-1,-6.711810082E-2,2.275609225E-1
4.114202823E0,-2.644972801E-1,-1.306480318E-1,2.287826538E-1
4.116641781E0,-2.632755637E-1,-1.941779554E-1,2.287826538E-1
4.119080011E0,-2.608321011E-1,-2.540427148E-1,2.312261164E-1
4.121518969E0,-2.596103549E-1,-3.200161159E-1,2.324478328E-1
4.123958761E0,-2.535017133E-1,-3.957633376E-1,2.336695641E-1
4.126397719E0,-2.522799969E-1,-4.690671265E-1,2.348912954E-1
4.128835948E0,-2.498365343E-1,-5.460360646E-1,2.361130267E-1
4.131274906E0,-2.473930717E-1,-6.095659733E-1,2.385564893E-1
4.133714698E0,-2.437278926E-1,-6.608785987E-1,2.373347580E-1
4.136153656E0,-2.425061464E-1,-7.024174333E-1,2.397782207E-1
4.138591834E0,-2.437278926E-1,-7.390692830E-1,2.373347580E-1
4.141030844E0,-2.437278926E-1,-7.732776999E-1,2.300043851E-1
4.143470636E0,-2.400626838E-1,-7.940471172E-1,2.251174599E-1
4.145909594E0,-2.339540422E-1,-8.062644005E-1,2.202305496E-1
4.148347771E0,-2.302888632E-1,-8.123730421E-1,2.141218930E-1
4.150786781E0,-2.192932963E-1,-8.087078929E-1,2.080132514E-1
4.153226573E0,-2.058542669E-1,-8.038209677E-1,1.970176846E-1
4.155665531E0,-1.936369836E-1,-7.964905500E-1,1.872438490E-1
4.158103709E0,-1.765327454E-1,-7.903819084E-1,1.786917448E-1
4.160542719E0,-1.594285369E-1,-7.879384756E-1,1.738048196E-1
4.162982459E0,-1.435460746E-1,-7.879384756E-1,1.750265509E-1
4.165421469E0,-1.313287616E-1,-7.940471172E-1,1.774700135E-1
4.167859646E0,-1.191114634E-1,-7.903819084E-1,1.774700135E-1
4.170298604E0,-1.117810905E-1,-7.806081176E-1,1.701396406E-1
4.172738396E0,-1.044507176E-1,-7.622821331E-1,1.567006111E-1
4.175177406E0,-9.467688203E-2,-7.305172086E-1,1.371529400E-1
4.177615584E0,-8.734650910E-2,-6.975305080E-1,1.176052764E-1
4.180054542E0,-7.512921095E-2,-6.572133899E-1,9.927933663E-2
4.182494334E0,-6.779883802E-2,-6.168963313E-1,7.973166555E-2
4.184933292E0,-5.191634968E-2,-5.619184971E-1,6.629264355E-2
4.187371521E0,-4.336424544E-2,-5.118275881E-1,5.285361409E-2
4.189810479E0,-2.870349213E-2,-4.531846344E-1,5.041015893E-2
4.192250271E0,-1.770792529E-2,-3.957633376E-1,4.918842763E-2
4.194689229E0,-1.159927808E-2,-3.383420706E-1,5.285361409E-2
4.197127459E0,-4.268901423E-3,-2.784773111E-1,5.896226317E-2
4.199566417E0,-1.825442538E-3,-2.234994620E-1,6.018399447E-2
4.202006209E0,-4.268901423E-3,-1.770737469E-1,6.018399447E-2
4.204445167E0,-6.712360308E-3,-1.318697631E-1,6.262745708E-2
4.206883396E0,-1.037754864E-2,-9.521788359E-2,6.384918094E-2
4.209322354E0,-1.159927808E-2,-6.345291436E-2,6.507091224E-2
4.211762146E0,-1.526446640E-2,-3.657487035E-2,6.384918094E-2
4.214201104E0,-1.526446640E-2,-1.580546796E-2,6.384918094E-2
4.216639281E0,-1.282100752E-2,-3.588173538E-3,6.384918094E-2
4.219078292E0,-1.282100752E-2,3.742203116E-3,6.140572578E-2
4.221518084E0,-1.159927808E-2,-1.091855019E-2,5.529707670E-2
4.223957042E0,-1.037754864E-2,-1.336200908E-2,5.041015893E-2
4.226395219E0,-5.490630865E-3,-1.824892685E-2,4.796669632E-2
4.228834229E0,-4.268901423E-3,-1.947065629E-2,4.552324116E-2
4.231273969E0,-4.268901423E-3,-2.680103295E-2,3.941459209E-2
4.233712979E0,-7.934089750E-3,-4.024005681E-2,3.574940562E-2
4.236151156E0,-7.934089750E-3,-5.245735124E-2,3.330594301E-2
4.238590167E0,-1.282100752E-2,-6.467464566E-2,3.086248599E-2
4.241029906E0,-1.770792529E-2,-7.200502604E-2,3.208421543E-2
4.243468917E0,-2.259484306E-2,-7.567021251E-2,3.208421543E-2
4.245907094E0,-2.870349213E-2,-8.055712283E-2,2.964075468E-2
4.248346052E0,-3.603386506E-2,-8.055712283E-2,2.353210934E-2
4.250785844E0,-4.458597302E-2,-7.811366767E-2,1.498000231E-2
4.253224854E0,-4.947289079E-2,-8.055712283E-2,7.649626117E-3
4.255663031E0,-5.191634968E-2,-8.788749576E-2,3.192493459E-4
4.258101990E0,-5.435980856E-2,-1.098786294E-1,-8.232857101E-3
4.260541781E0,-5.680326745E-2,-1.428653300E-1,-2.045015059E-2
4.262980740E0,-6.291191280E-2,-1.782954782E-1,-3.388917446E-2
4.265418969E0,-6.291191280E-2,-2.271646559E-1,-5.099338293E-2
4.267857927E0,-6.657710671E-2,-2.796990573E-1,-7.298451662E-2
4.270297719E0,-7.390747964E-2,-3.358986080E-1,-9.986256063E-2
4.272736677E0,-8.245958388E-2,-3.884329796E-1,-1.242971569E-1
4.275174906E0,-8.978995681E-2,-4.336369634E-1,-1.487317532E-1
4.277613865E0,-1.020072550E-1,-4.690671265E-1,-1.707228720E-1
4.280053656E0,-1.105593592E-1,-4.971669018E-1,-1.890488267E-1
4.282492615E0,-1.203331947E-1,-5.179362893E-1,-2.012661099E-1
4.284930792E0,-1.276635677E-1,-5.289317966E-1,-2.122616768E-1
4.287369802E0,-1.325504929E-1,-5.374839306E-1,-2.220355123E-1
4.289809594E0,-1.337722242E-1,-5.411491394E-1,-2.305876166E-1
4.292248552E0,-1.374374032E-1,-5.509229302E-1,-2.379179895E-1
4.294686729E0,-1.349939555E-1,-5.509229302E-1,-2.440266460E-1
4.297125740E0,-1.362156719E-1,-5.533664227E-1,-2.525787354E-1
4.299565479E0,-1.374374032E-1,-5.472577810E-1,-2.623525858E-1
4.302004490E0,-1.325504929E-1,-5.338187218E-1,-2.672395110E-1
4.304442667E0,-1.313287616E-1,-5.142710805E-1,-2.745698690E-1
4.306881677E0,-1.313287616E-1,-4.837278724E-1,-2.770133317E-1
4.309321417E0,-1.288852990E-1,-4.458542466E-1,-2.794567943E-1
4.311760427E0,-1.276635677E-1,-3.994285464E-1,-2.782350779E-1
4.314198604E0,-1.252201051E-1,-3.407855332E-1,-2.745698690E-1
4.316637563E0,-1.252201051E-1,-2.821425200E-1,-2.721264064E-1
4.319077354E0,-1.239983886E-1,-2.173908204E-1,-2.635743022E-1
4.321516313E0,-1.227766573E-1,-1.575260758E-1,-2.538004816E-1
4.323954542E0,-1.264418364E-1,-1.037699878E-1,-2.403614521E-1
4.326393500E0,-1.313287616E-1,-5.612254143E-2,-2.232572436E-1
4.328833292E0,-1.362156719E-1,-1.702719741E-2,-2.049313039E-1
4.331272250E0,-1.411026120E-1,1.229430921E-2,-1.817184389E-1
4.333710479E0,-1.496547163E-1,3.062025085E-2,-1.572838575E-1
4.336149438E0,-1.618719995E-1,3.428544104E-2,-1.328492612E-1
4.338589229E0,-1.667589247E-1,3.062025085E-2,-1.047494784E-1
4.341028188E0,-1.716458499E-1,2.328987420E-2,-7.787143439E-2
4.343466365E0,-1.740893126E-1,9.850850329E-3,-4.977165908E-2
4.345905375E0,-1.753110290E-1,3.742203116E-3,-2.289360948E-2
4.348345167E0,-1.704241037E-1,2.520473674E-3,3.192493459E-4
4.350784125E0,-1.667589247E-1,7.701478899E-5,1.986692101E-2
4.353222302E0,-1.618719995E-1,-6.031632423E-3,3.574940562E-2
4.355661313E0,-1.569850743E-1,-9.696820751E-3,4.674497247E-2
4.358101052E0,-1.496547163E-1,-4.809902981E-3,6.018399447E-2
4.360540063E0,-1.435460746E-1,7.407391444E-3,7.240129262E-2
4.362978240E0,-1.398808658E-1,2.084641531E-2,8.339685202E-2
4.365417250E0,-1.349939555E-1,3.428544104E-2,9.561415017E-2
4.367856990E0,-1.301070303E-1,4.894619808E-2,1.053879857E-1
4.370296000E0,-1.227766573E-1,6.482867897E-2,1.151618212E-1
4.372734177E0,-1.178897321E-1,7.826770842E-2,1.188270077E-1
4.375173136E0,-1.117810905E-1,9.903711081E-2,1.200487390E-1
4.377612927E0,-1.032289863E-1,1.222499609E-1,1.188270077E-1
4.380051938E0,-9.956379235E-2,1.515714675E-1,1.114966348E-1
4.382490115E0,-9.345515072E-2,1.918885410E-1,9.683587402E-2
4.384929073E0,-8.978995681E-2,2.309838831E-1,7.606647909E-2
4.387368865E0,-8.734650910E-2,2.774095833E-1,5.041015893E-2
4.389807823E0,-8.612477779E-2,3.262787461E-1,2.108865045E-2
4.392246052E0,-8.612477779E-2,3.714827299E-1,-1.311977487E-2
4.394685011E0,-8.490304649E-2,4.227953851E-1,-5.221511424E-2
4.397124802E0,-8.001612127E-2,4.716645479E-1,-9.131045640E-2
4.399563761E0,-7.146401703E-2,5.217555165E-1,-1.304057986E-1
4.402001990E0,-6.046845391E-2,5.706246495E-1,-1.670576930E-1
4.404440948E0,-4.580770060E-2,6.060548425E-1,-2.073747665E-1
4.406880740E0,-2.748176083E-2,6.414849758E-1,-2.428049147E-1
4.409319698E0,-6.712360308E-3,6.659195423E-1,-2.757916152E-1
4.411757875E0,1.894395798E-2,6.866889596E-1,-3.038913906E-1
4.414196886E0,4.460027441E-2,7.086800933E-1,-3.258825243E-1
4.416636625E0,6.903485954E-2,7.196756601E-1,-3.429867327E-1
4.419075636E0,9.591291845E-2,7.331146598E-1,-3.515388370E-1
4.421513813E0,1.227909625E-1,7.416667938E-1,-3.539822996E-1
4.423952823E0,1.374517083E-1,7.514406443E-1,-3.466519117E-1
4.426392563E0,1.460038126E-1,7.599927187E-1,-3.319911659E-1
4.428831573E0,1.447820961E-1,7.697665691E-1,-3.087783158E-1
4.431269750E0,1.301213354E-1,7.783187032E-1,-2.782350779E-1
4.433708709E0,9.957809746E-2,7.685448527E-1,-2.391397208E-1
4.436148500E0,5.803929642E-2,7.575492859E-1,-1.841619015E-1
4.438587511E0,6.726663560E-3,7.343364358E-1,-1.120798588E-1
4.441025688E0,-5.313808098E-2,7.001280189E-1,-2.411533892E-2
4.443464646E0,-1.203331947E-1,6.512588263E-1,7.484474778E-2
4.445904438E0,-1.850848496E-1,6.011679173E-1,1.848003864E-1
4.448343448E0,-2.473930717E-1,5.461900830E-1,2.923125923E-1
4.450781625E0,-2.987056971E-1,5.095381737E-1,3.876074851E-1
4.453220584E0,-3.390227854E-1,4.924339652E-1,4.657981694E-1
4.455660375E0,-3.683442771E-1,4.985426068E-1,5.281063914E-1
4.458099334E0,-3.842267692E-1,5.339727998E-1,5.672017336E-1
4.460537563E0,-3.927788734E-1,5.987244248E-1,5.904145837E-1
4.462976521E0,-3.964440525E-1,6.903541684E-1,5.940797925E-1
4.465416313E0,-4.001092613E-1,8.125271201E-1,5.818625093E-1
4.467855271E0,-4.049961567E-1,9.493607879E-1,5.598713756E-1
4.470293448E0,-4.123265445E-1,1.089859605E0,5.305498242E-1
4.472732459E0,-4.257655740E-1,1.219362974E0,4.975631535E-1
4.475172250E0,-4.489784241E-1,1.320766449E0,4.584677815E-1
4.477611209E0,-4.758564830E-1,1.397735476E0,4.193724394E-1
4.480049386E0,-5.100648999E-1,1.442939401E0,3.790553808E-1
4.482488396E0,-5.442733169E-1,1.469817519E0,3.424035013E-1
4.484928136E0,-5.748165250E-1,1.482034802E0,3.094168007E-1
4.487367146E0,-6.029163003E-1,1.475926161E0,2.788735628E-1
4.489805323E0,-6.236857176E-1,1.449048042E0,2.483303249E-1
4.492244334E0,-6.359030008E-1,1.396513700E0,2.129001617E-1
4.494684073E0,-6.407899261E-1,1.323210001E0,1.750265509E-1
4.497123084E0,-6.359030008E-1,1.238910675E0,1.347094774E-1
4.499561261E0,-6.261291504E-1,1.139950514E0,9.194896370E-2
4.502000219E0,-6.090249419E-1,1.040990472E0,4.796669632E-2
4.504440011E0,-5.906990170E-1,9.432521462E-1,6.427896675E-3
4.506879021E0,-5.748165250E-1,8.504006863E-1,-3.511090577E-2
4.509317198E0,-5.601558089E-1,7.661013603E-1,-7.298451662E-2
4.511756156E0,-5.418298244E-1,6.842455268E-1,-1.084146723E-1
4.514195948E0,-5.308342576E-1,6.060548425E-1,-1.340709925E-1
4.516634906E0,-5.210604072E-1,5.339727998E-1,-1.560621262E-1
4.519073136E0,-5.100648999E-1,4.716645479E-1,-1.719446033E-1
4.521512094E0,-4.990693629E-1,4.264605641E-1,-1.817184389E-1
4.523951886E0,-4.856303036E-1,3.837000430E-1,-1.914922744E-1
4.526390844E0,-4.697478414E-1,3.446047008E-1,-2.000443786E-1
4.528829021E0,-4.502001703E-1,2.969572544E-1,-2.085964978E-1
4.531268031E0,-4.233221114E-1,2.529749870E-1,-2.159268707E-1
4.533707823E0,-3.927788734E-1,2.053275704E-1,-2.208137810E-1
4.536146781E0,-3.573487103E-1,1.540149301E-1,-2.305876166E-1
4.538584959E0,-3.219185770E-1,9.292845428E-2,-2.415831834E-1
4.541023969E0,-2.864884138E-1,2.939851955E-2,-2.525787354E-1
4.543463761E0,-2.510582507E-1,-3.290968016E-2,-2.611308694E-1
4.545902719E0,-2.229584754E-1,-9.399615228E-2,-2.745698690E-1
4.548340896E0,-1.960804164E-1,-1.465305090E-1,-2.867871821E-1
4.550779906E0,-1.753110290E-1,-1.978431493E-1,-2.941175401E-1
4.553219646E0,-1.618719995E-1,-2.454905957E-1,-3.014479280E-1
4.555658656E0,-1.459895074E-1,-2.833642364E-1,-3.051131070E-1
4.558096834E0,-1.337722242E-1,-3.236813247E-1,-3.075565696E-1
4.560535844E0,-1.239983886E-1,-3.505593538E-1,-3.038913906E-1
4.562975584E0,-1.105593592E-1,-3.798808753E-1,-2.977827489E-1
4.565414594E0,-9.345515072E-2,-4.067589045E-1,-2.928958237E-1
4.567852771E0,-7.879438996E-2,-4.360804260E-1,-2.831219733E-1
4.570291729E0,-5.924672261E-2,-4.617367387E-1,-2.733481526E-1
4.572731521E0,-3.725559637E-2,-4.825061262E-1,-2.599091232E-1
4.575170479E0,-1.526446640E-2,-4.922799766E-1,-2.513570189E-1
4.577608709E0,1.161358133E-2,-4.996103346E-1,-2.440266460E-1
4.580047667E0,4.093508795E-2,-4.922799766E-1,-2.354745418E-1
4.582487459E0,7.025659084E-2,-4.763974845E-1,-2.281441689E-1
4.584926417E0,9.957809746E-2,-4.470759928E-1,-2.244789749E-1
4.587364646E0,1.288996041E-1,-4.067589045E-1,-2.183703184E-1
4.589803604E0,1.582210958E-1,-3.578897417E-1,-2.122616768E-1
4.592243396E0,1.850991547E-1,-3.004684448E-1,-2.049313039E-1
4.594682354E0,2.083120048E-1,-2.442688644E-1,-1.951574683E-1
4.597120531E0,2.278596759E-1,-1.929562241E-1,-1.853836328E-1
4.599559542E0,2.437421679E-1,-1.624130011E-1,-1.792749763E-1
4.601999334E0,2.596246600E-1,-1.428653300E-1,-1.756097972E-1
4.604438292E0,2.779505849E-1,-1.196524650E-1,-1.731663346E-1
4.606876469E0,2.938330770E-1,-1.074351668E-1,-1.682794243E-1
4.609315479E0,3.084938228E-1,-1.049917191E-1,-1.621707678E-1
4.611755219E0,3.194893897E-1,-1.208741963E-1,-1.548403949E-1
4.614194229E0,3.341501355E-1,-1.440870464E-1,-1.438448280E-1
4.616632406E0,3.402587771E-1,-1.648564488E-1,-1.304057986E-1
4.619071417E0,3.475891650E-1,-1.807389408E-1,-1.157450452E-1
4.621511156E0,3.536978066E-1,-1.868475825E-1,-1.010842919E-1
4.623950167E0,3.561412692E-1,-1.795172095E-1,-8.153662086E-2
4.626388344E0,3.524760902E-1,-1.599695385E-1,-5.343684554E-2
4.628827302E0,3.451457024E-1,-1.306480318E-1,-2.655879781E-2
4.631267094E0,3.365935981E-1,-1.013265252E-1,3.192493459E-4
4.633706104E0,3.292632401E-1,-5.856599659E-2,2.475383691E-2
4.636144281E0,3.231545687E-1,-2.313584462E-2,4.185805470E-2
4.638583240E0,3.219328523E-1,1.473776624E-2,5.774053186E-2
4.641023031E0,3.280414939E-1,4.894619808E-2,7.117956132E-2
4.643462042E0,3.365935981E-1,8.681981266E-2,7.850993425E-2
4.645900219E0,3.427022398E-1,1.332455277E-1,7.850993425E-2
4.648339177E0,3.488108814E-1,1.882233620E-1,7.362301648E-2
4.650778969E0,3.561412692E-1,2.419794351E-1,6.629264355E-2
4.653217927E0,3.671368361E-1,2.945137918E-1,5.896226317E-2
4.655656156E0,3.769106865E-1,3.299439549E-1,5.041015893E-2
4.658095115E0,3.854627907E-1,3.531568050E-1,4.918842763E-2
4.660534906E0,3.903496861E-1,3.702610135E-1,4.674497247E-2
4.662973865E0,3.927931488E-1,3.751479387E-1,4.918842763E-2
4.665412042E0,3.927931488E-1,3.739261925E-1,4.796669632E-2
4.667851052E0,3.903496861E-1,3.641523719E-1,4.552324116E-2
4.670290844E0,3.866845071E-1,3.421612382E-1,4.918842763E-2
4.672729802E0,3.769106865E-1,3.067310750E-1,4.796669632E-2
4.675167979E0,3.671368361E-1,2.590836287E-1,5.163189024E-2
4.677606990E0,3.561412692E-1,2.016623765E-1,5.285361409E-2
4.680046729E0,3.427022398E-1,1.283586174E-1,5.407534540E-2
4.682485740E0,3.341501355E-1,5.261137709E-2,5.407534540E-2
4.684923917E0,3.219328523E-1,-3.535313904E-2,5.407534540E-2
4.687362927E0,3.158242106E-1,-1.233176589E-1,5.163189024E-2
4.689802667E0,3.121590018E-1,-2.137256265E-1,5.163189024E-2
4.692241677E0,3.072721064E-1,-3.029119074E-1,4.918842763E-2
4.694679854E0,3.072721064E-1,-3.847677708E-1,4.918842763E-2
4.697118813E0,3.097155392E-1,-4.568498135E-1,4.430150986E-2
4.699558604E0,3.109372854E-1,-5.167145133E-1,4.307977855E-2
4.701997615E0,3.121590018E-1,-5.668054223E-1,4.307977855E-2
4.704435792E0,3.133807480E-1,-6.083442569E-1,4.185805470E-2
4.706874750E0,3.170459270E-1,-6.376657486E-1,4.185805470E-2
4.709314542E0,3.182676733E-1,-6.657655239E-1,4.552324116E-2
4.711753500E0,3.243763149E-1,-6.828697324E-1,4.796669632E-2
4.714191729E0,3.231545687E-1,-6.926435828E-1,5.041015893E-2
4.716630688E0,3.268197775E-1,-6.938652992E-1,5.529707670E-2
4.719070479E0,3.268197775E-1,-6.950870156E-1,5.774053186E-2
4.721509438E0,3.268197775E-1,-6.963087320E-1,6.140572578E-2
4.723947615E0,3.255980313E-1,-7.036391497E-1,6.384918094E-2
4.726386625E0,3.268197775E-1,-7.060825825E-1,6.629264355E-2
4.728826417E0,3.280414939E-1,-7.146347165E-1,6.995783001E-2
4.731265375E0,3.231545687E-1,-7.219650745E-1,7.240129262E-2
4.733703552E0,3.255980313E-1,-7.207433581E-1,7.850993425E-2
4.736142563E0,3.243763149E-1,-7.121912241E-1,8.461858332E-2
4.738582302E0,3.194893897E-1,-7.024174333E-1,9.561415017E-2
4.741021313E0,3.121590018E-1,-6.816480160E-1,1.041662544E-1
4.743459490E0,3.048286438E-1,-6.572133899E-1,1.151618212E-1
4.745898500E0,2.950547934E-1,-6.278918982E-1,1.224922016E-1
4.748338240E0,2.803940475E-1,-5.949051976E-1,1.322660297E-1
4.750777250E0,2.681767642E-1,-5.558098555E-1,1.383746713E-1
4.753215427E0,2.559594512E-1,-5.106058717E-1,1.444833130E-1
4.755654438E0,2.376335263E-1,-4.715105593E-1,1.481485069E-1
4.758094177E0,2.229727805E-1,-4.263065755E-1,1.542571485E-1
4.760533188E0,2.107554674E-1,-3.823243082E-1,1.628092527E-1
4.762971365E0,1.973164380E-1,-3.358986080E-1,1.713613719E-1
4.765410323E0,1.850991547E-1,-2.894728780E-1,1.799134761E-1
4.767850115E0,1.741035879E-1,-2.454905957E-1,1.872438490E-1
4.770289125E0,1.667732298E-1,-2.002866119E-1,1.957959533E-1
4.772727302E0,1.631080210E-1,-1.611912698E-1,1.994611472E-1
4.775166261E0,1.569993794E-1,-1.245393902E-1,2.055697888E-1
4.777606052E0,1.508907378E-1,-9.643959999E-2,2.080132514E-1
4.780045011E0,1.496689916E-1,-7.200502604E-2,2.080132514E-1
4.782483240E0,1.472255588E-1,-5.001389235E-2,2.043480575E-1
4.784922198E0,1.435603499E-1,-3.290968016E-2,1.994611472E-1
4.787361990E0,1.447820961E-1,-1.336200908E-2,1.933524907E-1
4.789800948E0,1.447820961E-1,1.298744231E-3,1.872438490E-1
4.792239125E0,1.398951709E-1,2.084641531E-2,1.774700135E-1
4.794678136E0,1.398951709E-1,4.405927658E-2,1.713613719E-1
4.797117927E0,1.386734247E-1,6.727214158E-2,1.664744467E-1
4.799556886E0,1.350082457E-1,8.804154396E-2,1.615875363E-1
4.801995063E0,1.337865293E-1,1.222499609E-1,1.567006111E-1
4.804434073E0,1.264561415E-1,1.589018553E-1,1.530354321E-1
4.806873813E0,1.203474998E-1,1.967754662E-1,1.493702382E-1
4.809312823E0,1.093519330E-1,2.419794351E-1,1.457050443E-1
4.811751000E0,9.835636616E-2,2.884051502E-1,1.432615817E-1
4.814190011E0,8.736081421E-2,3.360525966E-1,1.383746713E-1
4.816629750E0,7.514351606E-2,3.788131177E-1,1.359312087E-1
4.819068761E0,6.536968052E-2,4.191301763E-1,1.347094774E-1
4.821506938E0,5.437410995E-2,4.570038021E-1,1.347094774E-1
4.823945896E0,4.093508795E-2,4.826601148E-1,1.347094774E-1
4.826385688E0,3.849162906E-2,5.046513081E-1,1.359312087E-1
4.828824698E0,3.360471129E-2,5.266423821E-1,1.383746713E-1
4.831262875E0,2.993952110E-2,5.351945162E-1,1.395964026E-1
4.833701834E0,3.116125241E-2,5.376379490E-1,1.408181340E-1
4.836141625E0,3.116125241E-2,5.339727998E-1,1.420398653E-1
