"Time (s)","Acceleration x (m/s^2)","Acceleration y (m/s^2)","Acceleration z (m/s^2)"
1.375288200E-2,1.142572835E-1,8.835497499E-1,9.935597420E0
1.598925500E-2,9.930214286E-2,8.602197170E-1,9.926026344E0
1.822562800E-2,8.015955985E-2,8.739784956E-1,9.988240242E0
2.045048000E-2,4.725824669E-2,9.367900491E-1,9.987641335E0
2.268789500E-2,2.871387079E-2,9.756734371E-1,9.982855797E0
2.492274300E-2,-4.187439568E-3,1.014556766E0,9.967901230E0
2.715912100E-2,-7.118647546E-2,9.439685345E-1,9.867402077E0
2.939532800E-2,-1.046859920E-1,9.164510965E-1,9.795618057E0
3.163165600E-2,-1.160518974E-1,7.920243144E-1,9.790832520E0
3.386767900E-2,-1.357926875E-1,7.824530005E-1,9.824331284E0
3.610498300E-2,-9.810572863E-2,7.202396393E-1,9.819545746E0
3.834173800E-2,-2.015953064E-1,8.410771489E-1,9.775876999E0
4.057855500E-2,-1.758724600E-1,8.943174481E-1,9.656833649E0
4.281402900E-2,-2.380858511E-1,8.901300430E-1,9.622735977E0
4.504992900E-2,-2.099701911E-1,8.470591903E-1,9.661021233E0
4.728674600E-2,-2.362912297E-1,7.465606928E-1,9.756733894E0
4.952307400E-2,-2.123630047E-1,7.076773047E-1,9.718449593E0
5.176220900E-2,-2.410768867E-1,7.178468108E-1,9.699306488E0
5.401062200E-2,-1.962114573E-1,8.321040869E-1,9.670592308E0
5.624713400E-2,-2.051845491E-1,8.560323119E-1,9.670592308E0
5.848425500E-2,-1.908276081E-1,8.793623447E-1,9.723235130E0
6.071637200E-2,-1.920240223E-1,8.458628058E-1,9.809376717E0
6.295282200E-2,-1.489532143E-1,8.685946465E-1,9.857233047E0
6.518909000E-2,-1.399801224E-1,7.495517135E-1,9.709476471E0
6.742480700E-2,-9.272187948E-2,7.058826685E-1,9.753145218E0
6.965838900E-2,-6.939185411E-2,7.435696125E-1,9.834501266E0
7.189831800E-2,-5.383851007E-2,7.770691514E-1,9.801001549E0
7.413495100E-2,-6.580262631E-2,9.254241586E-1,9.738788605E0
7.637341500E-2,-3.110669367E-2,9.589236975E-1,9.681360245E0
7.860858400E-2,-1.034895778E-1,9.786644578E-1,9.757332802E0
8.084393600E-2,-3.409772366E-2,8.578268886E-1,9.829715729E0
8.308002000E-2,-9.272187948E-2,8.243274093E-1,9.938589096E0
8.531659200E-2,-4.546362907E-2,7.621139884E-1,9.887143135E0
8.755316400E-2,-5.324030295E-2,8.057830334E-1,9.791430473E0
8.978949200E-2,-5.682953820E-2,9.062815905E-1,9.748359680E0
9.202606500E-2,-8.913264424E-2,9.451649189E-1,9.723833084E0
9.426355200E-2,-7.058826834E-2,9.349954724E-1,9.762118340E0
9.649945300E-2,-1.046859920E-1,9.260223508E-1,9.800403595E0
9.873498800E-2,-1.435693651E-1,8.452646136E-1,9.742975235E0
1.009708280E-1,-1.351944804E-1,7.878368497E-1,9.781260490E0
1.032074610E-1,-1.645065546E-1,7.926225066E-1,9.842875481E0
1.054439720E-1,-1.645065546E-1,8.021938205E-1,9.852447510E0
1.076803620E-1,-1.962114573E-1,8.889335990E-1,9.832706451E0
1.099140040E-1,-1.950150430E-1,9.607182741E-1,9.799206734E0
1.121398340E-1,-2.566302419E-1,9.523434043E-1,9.689137459E0
1.143759180E-1,-2.237289101E-1,9.044869542E-1,9.661021233E0
1.166112690E-1,-1.926222295E-1,7.980063558E-1,9.775876999E0
1.188531520E-1,-1.938186288E-1,7.447660565E-1,9.875777245E0
1.211011980E-1,-1.417747438E-1,7.106683254E-1,9.862018585E0
1.233378330E-1,-1.782652885E-1,7.932206988E-1,9.795019150E0
1.255743430E-1,-1.250249892E-1,8.494520187E-1,9.805189133E0
1.278076810E-1,-1.519442350E-1,9.409775138E-1,9.795019150E0
1.300448630E-1,-1.423729509E-1,9.218349457E-1,9.742377281E0
1.322813750E-1,-1.202393398E-1,8.021938205E-1,9.752547264E0
1.345167870E-1,-5.503492057E-2,7.621139884E-1,9.863214493E0
1.367529930E-1,-6.041877344E-2,7.142575383E-1,9.891330719E0
1.389893830E-1,-4.307080805E-2,8.530412912E-1,9.801001549E0
1.412257720E-1,-7.058826834E-2,9.445667267E-1,9.762118340E0
1.434623440E-1,-7.417750359E-2,1.011565804E0,9.733404160E0
1.456962300E-1,-6.460621208E-2,9.972088337E-1,9.733404160E0
1.479227930E-1,-8.673982322E-2,8.344969153E-1,9.824331284E0
1.501605860E-1,-8.015955985E-2,6.526423693E-1,9.824930191E0
1.524079010E-1,-8.913264424E-2,6.861419082E-1,9.829715729E0
1.546466090E-1,-1.298106313E-1,7.974081635E-1,9.742975235E0
1.568832420E-1,-1.704886109E-1,8.799605370E-1,9.608977318E0
1.591168240E-1,-1.645065546E-1,1.051645517E0,9.732806206E0
1.613531520E-1,-1.812563092E-1,9.409775138E-1,9.823135376E0
1.635897850E-1,-2.344966233E-1,8.799605370E-1,9.799206734E0
1.658273340E-1,-2.075773627E-1,7.740781307E-1,9.818947792E0
1.680634180E-1,-2.356930375E-1,7.704889178E-1,9.732806206E0
1.702987700E-1,-1.830509305E-1,7.645068169E-1,9.719047546E0
1.725348540E-1,-2.063809484E-1,8.177471161E-1,9.737591743E0
1.747713650E-1,-1.686939895E-1,8.165507317E-1,9.833304405E0
1.770077540E-1,-2.297109663E-1,9.272187948E-1,9.903892517E0
1.792443260E-1,-2.285145670E-1,9.278169870E-1,9.765707016E0
1.814808380E-1,-2.045863420E-1,9.038887620E-1,9.718449593E0
1.837182030E-1,-1.202393398E-1,8.398807645E-1,9.824331284E0
1.859542870E-1,-1.316052526E-1,8.057830334E-1,9.976874352E0
1.881898830E-1,-9.332008660E-2,7.770691514E-1,9.924830437E0
1.904259060E-1,-8.673982322E-2,8.961120844E-1,9.900901794E0
1.926621120E-1,-6.101697683E-2,9.918249846E-1,9.891330719E0
1.948991120E-1,-6.999006122E-2,9.684949517E-1,9.757332802E0
1.971353790E-1,-1.316052489E-2,9.385846853E-1,9.781859398E0
1.993718290E-1,-4.426721856E-2,8.195417523E-1,9.839286804E0
2.016092550E-1,1.196411345E-2,7.136593461E-1,9.815957069E0
2.038453400E-1,-2.033899166E-2,7.812566161E-1,9.820143700E0
2.060808130E-1,-3.828516230E-2,8.626125455E-1,9.762716293E0
2.083170190E-1,-4.666004330E-2,9.110672474E-1,9.748359680E0
2.105531030E-1,-5.623133108E-2,9.774680734E-1,9.819545746E0
2.127897370E-1,-6.281159073E-2,8.626125455E-1,9.862616539E0
2.150261870E-1,-1.016949639E-1,7.680960894E-1,9.781260490E0
2.172597070E-1,-1.172483116E-1,7.058826685E-1,9.781260490E0
2.194884670E-1,-1.034895778E-1,7.010970116E-1,9.829116821E0
2.217362700E-1,-1.076770201E-1,7.250252366E-1,9.819545746E0
2.239719260E-1,-1.202393398E-1,7.974081635E-1,9.766903877E0
2.262108790E-1,-1.902294010E-1,9.224331379E-1,9.732806206E0
2.284442780E-1,-1.657029688E-1,9.649057388E-1,9.771091461E0
2.306807890E-1,-2.141576260E-1,9.326026440E-1,9.770493507E0
2.329171170E-1,-1.872383654E-1,8.650053740E-1,9.823733330E0
2.351537500E-1,-1.692921966E-1,7.830511928E-1,9.847661972E0
2.373912990E-1,-1.363908947E-1,6.921239495E-1,9.786046028E0
2.396273830E-1,-1.405783296E-1,7.160521746E-1,9.723833084E0
2.418627350E-1,-1.387837082E-1,7.980063558E-1,9.685547829E0
2.440988190E-1,-1.896311939E-1,9.463613629E-1,9.723235130E0
2.463353910E-1,-1.698904037E-1,9.655039310E-1,9.652048111E0
2.485719630E-1,-2.380858511E-1,9.284151793E-1,9.698708534E0
2.508082300E-1,-1.447657645E-1,8.350951076E-1,9.838089943E0
2.530446190E-1,-1.944168359E-1,7.639086246E-1,9.933204651E0
2.552823510E-1,-1.465603858E-1,6.963114142E-1,9.866804123E0
2.575181300E-1,-2.021935135E-1,8.548358679E-1,9.918848038E0
2.597534210E-1,-1.286142170E-1,9.403793216E-1,9.828518867E0
2.619899320E-1,-2.183450609E-1,9.996016622E-1,9.751350403E0
2.642265040E-1,-9.451649338E-2,9.547362328E-1,9.766903877E0
2.664628930E-1,-1.926222295E-1,8.171489239E-1,9.814162254E0
2.686990990E-1,-8.853443712E-2,7.483552694E-1,9.872187614E0
2.709356720E-1,-1.555334777E-1,8.105686903E-1,1.000020409E1
2.731732810E-1,-1.106680483E-1,9.014959335E-1,9.919445992E0
2.754093650E-1,-1.758724600E-1,9.888339639E-1,9.875777245E0
2.776446560E-1,-1.268195957E-1,1.097707391E0,9.866206169E0
2.798804350E-1,-1.663011760E-1,9.888339639E-1,9.823135376E0
2.821168850E-1,-1.387837082E-1,8.644071817E-1,9.795019150E0
2.843539460E-1,-1.651047617E-1,7.776673436E-1,9.937990189E0
2.865902740E-1,-1.274178028E-1,7.250252366E-1,9.867402077E0
2.888267240E-1,-1.495514214E-1,7.692924738E-1,9.719047546E0
2.910643340E-1,-1.908276081E-1,8.985049129E-1,9.742377281E0
2.933001740E-1,-1.561316848E-1,9.415757060E-1,9.704092026E0
2.955359520E-1,-1.710868180E-1,9.463613629E-1,9.747162819E0
2.977730120E-1,-1.627119333E-1,8.644071817E-1,9.780662537E0
3.000079980E-1,-1.842473447E-1,7.357929349E-1,9.809376717E0
3.022448760E-1,-1.363908947E-1,7.633104324E-1,9.876375198E0
3.044809600E-1,-1.304088384E-1,7.926225066E-1,9.786046028E0
3.067144800E-1,-1.190429255E-1,8.739784956E-1,9.723833084E0
3.089429960E-1,-9.990034252E-2,8.261220455E-1,9.657432556E0
3.111910430E-1,-1.004985496E-1,8.446664214E-1,9.710074425E0
3.134266990E-1,-9.152546525E-2,8.632107973E-1,9.838688850E0
3.156655290E-1,-9.212367237E-2,8.297112584E-1,9.872187614E0
3.178980130E-1,-1.585244983E-1,8.309076428E-1,9.761520386E0
3.201282980E-1,-8.255238086E-2,8.105686903E-1,9.805189133E0
3.223573630E-1,-1.393819153E-1,8.446664214E-1,9.818947792E0
3.245969260E-1,-4.007977992E-2,7.716853023E-1,9.829715729E0
3.268444850E-1,-1.148554832E-1,8.733802438E-1,9.824331284E0
3.290731840E-1,-8.135596663E-2,8.536394835E-1,9.786046028E0
3.313204990E-1,-1.621137410E-1,9.170492887E-1,9.775876999E0
3.335535310E-1,-9.571290761E-2,8.919246197E-1,9.833903313E0
3.357929710E-1,-1.483550072E-1,9.212366939E-1,9.899705887E0
3.380239890E-1,-8.673982322E-2,8.015955687E-1,9.748359680E0
3.402523830E-1,-1.639083475E-1,7.597211599E-1,9.747760773E0
3.425016500E-1,-1.022931710E-1,7.674978375E-1,9.862616539E0
3.447370020E-1,-1.591227055E-1,8.973084688E-1,9.971489906E0
3.469760760E-1,-1.663011760E-1,9.978070259E-1,9.880562782E0
3.492078890E-1,-1.896311939E-1,9.798609018E-1,9.765707016E0
3.514445220E-1,-1.896311939E-1,9.798609018E-1,9.775279045E0
3.536810330E-1,-1.393819153E-1,8.309076428E-1,9.790832520E0
3.559176660E-1,-2.027917206E-1,7.507480979E-1,9.766305923E0
3.581539940E-1,-1.698904037E-1,7.495517135E-1,9.885947227E0
3.603905660E-1,-1.926222295E-1,8.644071817E-1,9.904491425E0
3.626281150E-1,-1.657029688E-1,1.012762189E0,9.799804688E0
3.648641990E-1,-2.033899277E-1,1.009172916E0,9.694520950E0
3.670974760E-1,-1.794617027E-1,9.942178130E-1,9.704092026E0
3.693272120E-1,-1.722832322E-1,8.739784956E-1,9.818947792E0
3.715716580E-1,-1.651047617E-1,7.495517135E-1,9.866804123E0
3.738085350E-1,-1.525424421E-1,6.771687865E-1,9.924231529E0
3.760471220E-1,-1.136590764E-1,7.525427341E-1,1.001515961E1
3.782814970E-1,-1.489532143E-1,8.733802438E-1,9.900303841E0
3.805189840E-1,-1.453639716E-1,1.046261668E0,9.747162819E0
3.827550080E-1,-1.399801224E-1,1.027717352E0,9.656833649E0
3.849904810E-1,-1.232303679E-1,9.170492887E-1,9.719047546E0
3.872267480E-1,-7.836493850E-2,7.818548083E-1,9.857831001E0
3.894631380E-1,-6.101697683E-2,7.094719410E-1,9.953543663E0
3.916998930E-1,-7.836493850E-2,7.908278704E-1,9.881759644E0
3.939358550E-1,-4.725824669E-2,8.775677085E-1,9.767501831E0
3.961723050E-1,-7.357929647E-2,1.016949654E0,9.686145782E0
3.984099760E-1,-4.067798331E-2,9.493523836E-1,9.653244972E0
4.006459380E-1,-9.930214286E-2,8.931210637E-1,9.671789169E0
4.028815940E-1,-4.007977992E-2,7.238288522E-1,9.796216011E0
4.051145050E-1,-7.477571070E-2,7.238288522E-1,9.920044899E0
4.073419220E-1,-5.563312769E-2,7.238288522E-1,9.877572060E0
4.095912500E-1,-1.435693651E-1,8.781659007E-1,9.823733330E0
4.118270290E-1,-7.477571070E-2,9.732806087E-1,9.781260490E0
4.140665310E-1,-1.363908947E-1,1.017547846E0,9.756733894E0
4.163010280E-1,-5.204389244E-2,8.727820516E-1,9.748359680E0
4.185369290E-1,-1.268195957E-1,7.728816867E-1,9.900303841E0
4.207720970E-1,-6.520441920E-2,7.238288522E-1,9.929615974E0
4.230081210E-1,-1.555334777E-1,7.064808607E-1,9.781260490E0
4.252448150E-1,-7.118647546E-2,8.685946465E-1,9.705288887E0
4.274816920E-1,-1.286142170E-1,8.835497499E-1,9.704689980E0
4.297180200E-1,-1.130608693E-1,9.834501147E-1,9.771689415E0
4.319545920E-1,-1.627119333E-1,9.170492887E-1,9.857233047E0
4.341920190E-1,-1.453639716E-1,8.303094506E-1,9.909874916E0
4.364279200E-1,-1.884347796E-1,8.452646136E-1,9.923633575E0
4.386634550E-1,-1.351944804E-1,8.021938205E-1,9.805189133E0
4.408992950E-1,-2.057827413E-1,8.273184299E-1,9.684949875E0
4.431359280E-1,-1.286142170E-1,9.020941257E-1,9.786046028E0
4.453695090E-1,-1.764706671E-1,9.601200819E-1,9.870991707E0
4.475939970E-1,-1.633101404E-1,8.500502706E-1,9.804591179E0
4.498330100E-1,-1.728814393E-1,8.883354068E-1,9.894919395E0
4.520831930E-1,-1.405783296E-1,8.255237937E-1,9.914660454E0
4.543219620E-1,-2.201396823E-1,8.799605370E-1,9.770493507E0
4.565574980E-1,-1.525424421E-1,8.458628058E-1,9.685547829E0
4.587903470E-1,-2.536391914E-1,8.279166222E-1,9.727422714E0
4.610267970E-1,-1.752742529E-1,7.872386575E-1,1.000020409E1
4.632636140E-1,-1.800599098E-1,8.817551732E-1,1.020479012E1
4.654999420E-1,-2.147558331E-1,9.415757060E-1,9.861420631E0
4.677365750E-1,-2.344966233E-1,1.019940615E0,9.474381447E0
4.699740020E-1,-2.015953064E-1,1.009771109E0,9.518050194E0
4.722098420E-1,-1.304088384E-1,7.830511928E-1,9.766903877E0
4.744452540E-1,-1.429711580E-1,7.244270444E-1,1.001456070E1
4.766815210E-1,-6.580262631E-2,7.328019142E-1,1.002532864E1
4.789179110E-1,-1.345962733E-1,8.309076428E-1,9.771689415E0
4.811545440E-1,-1.118644550E-1,9.984052777E-1,9.623932838E0
4.833909940E-1,-1.692921966E-1,1.046859860E0,9.694520950E0
4.856273830E-1,-1.615155339E-1,9.272187948E-1,9.699306488E0
4.878619410E-1,-1.543370634E-1,8.494520187E-1,9.928419113E0
4.900859400E-1,-8.494520187E-2,6.951149702E-1,9.948758125E0
4.923240990E-1,-1.190429255E-1,6.149554253E-1,9.819545746E0
4.945722070E-1,-3.529413417E-2,7.621139884E-1,9.868000984E0
4.968119530E-1,-1.148554832E-1,8.542376757E-1,9.762118340E0
4.990483430E-1,-4.546362907E-2,9.403793216E-1,9.605388641E0
5.012816800E-1,-9.870393574E-2,9.314061999E-1,9.662218094E0
5.035182520E-1,-2.452643216E-2,8.147560954E-1,9.781859398E0
5.057560450E-1,-8.793623000E-2,7.770691514E-1,9.814760208E0
5.079890160E-1,-7.776673883E-2,8.057830334E-1,9.824331284E0
5.102158230E-1,-9.152546525E-2,8.255237937E-1,9.748359680E0
5.124605740E-1,-5.144568533E-2,8.632107973E-1,9.667601585E0
5.146852440E-1,-1.280160099E-1,9.451649189E-1,9.766305923E0
5.169276750E-1,-8.135596663E-2,8.871390224E-1,9.819545746E0
5.191729760E-1,-1.573280841E-1,9.122636318E-1,9.771091461E0
5.214122950E-1,-1.495514214E-1,7.501499057E-1,9.690333366E0
5.236497830E-1,-1.830509305E-1,7.651050687E-1,9.704689980E0
5.258826930E-1,-1.166501045E-1,7.202396393E-1,9.776474953E0
5.281183500E-1,-1.782652885E-1,8.117650747E-1,9.823733330E0
5.303543730E-1,-1.615155339E-1,9.080761671E-1,9.723235130E0
5.325877710E-1,-1.998006850E-1,9.559326172E-1,9.760921478E0
5.348153100E-1,-1.998006850E-1,9.559326172E-1,9.775279045E0
5.370636010E-1,-1.914258152E-1,8.937192559E-1,9.808777809E0
5.393002950E-1,-2.117647976E-1,7.842476368E-1,9.780662537E0
5.415410180E-1,-1.316052526E-1,6.825526357E-1,9.781260490E0
5.437739280E-1,-1.645065546E-1,7.543373108E-1,9.818947792E0
5.460095240E-1,-1.543370634E-1,7.734799385E-1,9.766903877E0
5.482454250E-1,-1.806581169E-1,9.224331379E-1,9.761520386E0
5.504816310E-1,-1.369891018E-1,1.026520967E0,9.847661972E0
5.527184470E-1,-1.609173268E-1,1.003190875E0,9.771091461E0
5.549548980E-1,-1.507478207E-1,9.607182741E-1,9.675976753E0
5.571911650E-1,-1.339980662E-1,8.404789567E-1,9.723833084E0
5.594288360E-1,-1.453639716E-1,7.495517135E-1,9.786046028E0
5.616646150E-1,-9.332008660E-2,7.627122402E-1,9.867402077E0
5.639000880E-1,-1.531406492E-1,8.075776696E-1,9.704689980E0
5.661361110E-1,-1.184447184E-1,8.362914920E-1,9.590433121E0
5.683726830E-1,-2.135594189E-1,9.517452121E-1,9.661021233E0
5.706091330E-1,-1.609173268E-1,9.128618240E-1,9.666405678E0
5.728428980E-1,-2.536391914E-1,8.285148144E-1,9.674779892E0
5.750703150E-1,-1.782652885E-1,7.980063558E-1,9.771091461E0
5.773201930E-1,-2.129612118E-1,7.740781307E-1,9.880562782E0
5.795562770E-1,-1.453639716E-1,8.159525394E-1,9.890732765E0
5.817942530E-1,-1.668993831E-1,9.218349457E-1,9.833304405E0
5.840275300E-1,-1.704886109E-1,9.846464992E-1,9.756733894E0
5.862639800E-1,-1.561316848E-1,9.320043921E-1,9.661619186E0
5.885004300E-1,-1.196411327E-1,8.261220455E-1,9.690333366E0
5.907367580E-1,-8.853443712E-2,7.292127013E-1,9.801001549E0
5.929735740E-1,-4.606183618E-2,6.807580590E-1,9.844072342E0
5.952111230E-1,-6.281159073E-2,8.201399446E-1,9.796216011E0
5.974469630E-1,-8.913264424E-2,9.595218897E-1,9.714262009E0
5.996821930E-1,-1.112662554E-1,1.079162955E0,9.728618622E0
6.019179720E-1,-5.982056633E-2,1.035493970E0,9.762118340E0
6.041544220E-1,-7.118647546E-2,9.110672474E-1,9.795618057E0
6.063912380E-1,-6.340979785E-2,7.722834945E-1,9.796216011E0
6.086276880E-1,-4.606183618E-2,6.711867452E-1,9.801001549E0
6.108634660E-1,-4.007977992E-2,7.004988194E-1,9.748957634E0
6.130975980E-1,-5.802594870E-2,7.776673436E-1,9.672387123E0
6.153378320E-1,-8.434699476E-2,9.026923180E-1,9.600004196E0
6.175731230E-1,-9.810572863E-2,9.314061999E-1,9.576076508E0
6.198102440E-1,-1.615155339E-1,9.080761671E-1,9.685547829E0
6.220455350E-1,-1.770688742E-1,8.931210637E-1,9.833304405E0
6.242821680E-1,-1.639083475E-1,8.213363886E-1,9.876375198E0
6.265186790E-1,-1.776670814E-1,8.267202377E-1,9.756733894E0
6.287550680E-1,-1.579262912E-1,7.842476368E-1,9.613762856E0
6.309926780E-1,-1.668993831E-1,8.225327730E-1,9.642477036E0
6.332288850E-1,-1.202393398E-1,8.350951076E-1,9.805189133E0
6.354640530E-1,-1.722832322E-1,9.122636318E-1,9.833304405E0
6.377001370E-1,-1.698904037E-1,9.373882413E-1,9.637691498E0
6.399337180E-1,-2.123630047E-1,9.290133715E-1,9.513264656E0
6.421616240E-1,-1.698904037E-1,8.895317912E-1,9.541978836E0
6.444098540E-1,-1.345962733E-1,8.069794178E-1,9.766903877E0
6.466418490E-1,-1.740778536E-1,8.446664214E-1,9.937990189E0
6.488693270E-1,-1.447657645E-1,8.494520187E-1,9.905089378E0
6.511197540E-1,-2.141576260E-1,9.613165259E-1,9.770493507E0
6.533551660E-1,-1.262213886E-1,9.888339639E-1,9.661619186E0
6.555955220E-1,-2.027917206E-1,9.858429432E-1,9.579665184E0
6.578300190E-1,-9.032905847E-2,8.309076428E-1,9.614361763E0
6.600733660E-1,-1.698904037E-1,7.304090858E-1,9.814162254E0
6.622974880E-1,-9.810572863E-2,7.627122402E-1,9.929615974E0
6.645371120E-1,-1.256231815E-1,8.350951076E-1,9.862018585E0
6.667694120E-1,-1.208375469E-1,1.060618639E0,9.671191216E0
6.689997580E-1,-1.292124242E-1,1.080359459E0,9.533005714E0
6.712462800E-1,-1.208375469E-1,9.750752449E-1,9.537791252E0
6.734821200E-1,-9.631111473E-2,8.446664214E-1,9.786046028E0
6.757219260E-1,-8.913264424E-2,7.004988194E-1,9.886545181E0
6.779524560E-1,-4.546362907E-2,6.807580590E-1,9.791430473E0
6.801796290E-1,2.632105052E-1,7.866404653E-1,9.675378799E0
6.824251120E-1,1.375873089E-1,9.613165259E-1,9.559326172E0
6.846536890E-1,9.032905847E-2,1.000798106E0,9.530014038E0
6.869017970E-1,-2.392822644E-3,1.024726272E0,9.796216011E0
6.891251860E-1,-1.148554832E-1,9.397810698E-1,9.914660454E0
6.913762230E-1,-1.890329868E-1,7.501499057E-1,9.842875481E0
6.936098050E-1,-2.751746178E-1,7.226324677E-1,9.813564301E0
6.958493670E-1,-2.979064286E-1,8.279166222E-1,9.856036186E0
6.980826440E-1,-3.876372576E-1,8.632107973E-1,9.735796928E0
7.003189720E-1,-4.091726840E-1,9.786644578E-1,9.668798447E0
7.025565210E-1,-4.049852192E-1,9.355936646E-1,9.664012909E0
7.047926660E-1,-3.720839322E-1,9.014959335E-1,9.687940598E0
7.070283230E-1,-3.876372576E-1,8.494520187E-1,9.697511673E0
7.092643460E-1,-3.020938635E-1,8.099704385E-1,9.698708534E0
7.115006740E-1,-2.733799815E-1,8.518448472E-1,9.774680138E0
7.137372460E-1,-1.872383654E-1,8.362914920E-1,9.761520386E0
7.159737580E-1,-1.531406492E-1,8.500502706E-1,9.742975235E0
7.182101470E-1,-7.537391037E-2,9.110672474E-1,9.734002113E0
7.204476950E-1,-3.649054468E-2,9.110672474E-1,9.672387123E0
7.226807280E-1,1.615155302E-2,8.913264275E-1,9.610772133E0
7.249071680E-1,3.828516230E-2,7.998009920E-1,9.682557106E0
7.271551540E-1,8.494520187E-2,7.513462901E-1,9.721440315E0
7.293915430E-1,1.369891018E-1,7.262216806E-1,9.754940033E0
7.316313510E-1,1.142572835E-1,8.267202377E-1,9.811769485E0
7.338646880E-1,1.166501045E-1,9.230313301E-1,9.716654778E0
7.361013210E-1,9.930214286E-2,1.018744230E0,9.663414001E0
7.383387480E-1,1.130608693E-1,1.013958573E0,9.673583984E0
7.405745880E-1,5.443671346E-2,9.002995491E-1,9.668199539E0
7.428099390E-1,6.161518395E-2,8.039883971E-1,9.787840843E0
7.450459610E-1,2.392822644E-3,7.040880919E-1,9.839884758E0
7.472823510E-1,-1.196411322E-3,7.806583643E-1,9.815957069E0
7.495189850E-1,-4.785645381E-2,8.344969153E-1,9.748359680E0
7.517555570E-1,-1.172483116E-1,9.930213690E-1,9.723833084E0
7.539922510E-1,-1.256231815E-1,1.065404296E0,9.709476471E0
7.562299830E-1,-2.404786795E-1,1.062413216E0,9.669994354E0
7.584657010E-1,-2.051845491E-1,8.656035662E-1,9.656235695E0
7.606975730E-1,-2.303091735E-1,8.129615188E-1,9.751350403E0
7.629238310E-1,-1.555334777E-1,7.160521746E-1,9.799804688E0
7.651732210E-1,-2.596212626E-1,7.423732281E-1,9.698708534E0
7.674101590E-1,-1.621137410E-1,8.650053740E-1,9.656833649E0
7.696499660E-1,-2.075773627E-1,9.714859724E-1,9.546165466E0
7.718833640E-1,-1.680957973E-1,9.667003751E-1,9.403793335E0
7.741207910E-1,-1.890329868E-1,8.476574421E-1,9.456435204E0
7.763566310E-1,-1.154536903E-1,7.447660565E-1,9.667003632E0
7.785922270E-1,-1.034895778E-1,6.867401004E-1,9.819545746E0
7.808282500E-1,-7.776673883E-2,7.531409264E-1,9.753145218E0
7.830647000E-1,-7.597211748E-2,8.063812256E-1,9.628718376E0
7.853013940E-1,-5.982056633E-2,9.786644578E-1,9.647860527E0
7.875374780E-1,-2.093719877E-2,1.020538807E0,9.662218094E0
7.897741110E-1,-2.572284266E-2,9.499505758E-1,9.547960281E0
7.920115380E-1,4.965107143E-2,8.530412912E-1,9.577870369E0
7.942475610E-1,1.256231871E-2,7.046862841E-1,9.692128181E0
7.964833400E-1,7.836493850E-2,6.693921089E-1,9.792626381E0
7.987191190E-1,-3.589234129E-2,7.429714203E-1,9.834501266E0
8.009555080E-1,-1.316052489E-2,9.625129104E-1,9.791430473E0
8.031920190E-1,-1.058823988E-1,1.051047325E0,9.613762856E0
8.054271880E-1,-8.554340899E-2,1.118046403E0,9.576076508E0
8.076593650E-1,-1.692921966E-1,9.900303483E-1,9.632905960E0
8.099025290E-1,-1.004985496E-1,8.494520187E-1,9.781260490E0
8.121385530E-1,-1.788634956E-1,7.501499057E-1,9.804591179E0
8.143753690E-1,-1.351944804E-1,7.543373108E-1,9.733404160E0
8.166100490E-1,-1.824527234E-1,8.219345808E-1,9.728020668E0
8.188436910E-1,-1.657029688E-1,9.415757060E-1,9.689735413E0
8.210685450E-1,-2.069791555E-1,1.052243710E0,9.651450157E0
8.233078640E-1,-1.740778536E-1,9.708877802E-1,9.541978836E0
8.255563990E-1,-2.093719840E-1,8.422735929E-1,9.556335449E0
8.277968170E-1,-1.549352705E-1,7.262216806E-1,9.709476471E0
8.300326560E-1,-1.788634956E-1,7.734799385E-1,9.828518867E0
8.322621480E-1,-1.351944804E-1,7.686942816E-1,9.781260490E0
8.344896270E-1,-1.423729509E-1,9.032905698E-1,9.680762291E0
8.367377350E-1,-7.836493850E-2,9.738788009E-1,9.633503914E0
8.389742460E-1,-9.152546525E-2,9.894321561E-1,9.490532875E0
8.412132590E-1,-5.922235921E-2,9.026923180E-1,9.476176262E0
8.434471460E-1,-9.571290575E-3,7.770691514E-1,9.658030510E0
8.456844510E-1,3.589233849E-3,7.190431952E-1,9.696913719E0
8.479176050E-1,2.751746029E-2,7.232306600E-1,9.706484795E0
8.501439240E-1,-1.914258115E-2,8.009973764E-1,9.653244972E0
8.523920320E-1,2.392822644E-3,9.535398483E-1,9.667601585E0
8.546286040E-1,-3.050848842E-2,1.039681435E0,9.729216576E0
8.568681660E-1,-4.546362907E-2,9.445667267E-1,9.643673897E0
8.591015650E-1,-3.170489892E-2,9.158528447E-1,9.691530228E0
8.613383200E-1,-3.469592705E-2,7.722834945E-1,9.739386559E0
8.635756250E-1,-5.383851007E-3,7.716853023E-1,9.725028992E0
8.658117090E-1,-0.000000000E0,8.434699774E-1,9.739386559E0
8.680440090E-1,-6.999006122E-2,9.116654396E-1,9.657432556E0
8.702711820E-1,-6.879365444E-2,9.978070259E-1,9.609575272E0
8.725197170E-1,-1.262213886E-1,1.003190875E0,9.661619186E0
8.747562280E-1,-1.417747438E-1,8.937192559E-1,9.623334885E0
8.769953020E-1,-1.668993831E-1,8.512466550E-1,9.628120422E0
8.792289450E-1,-1.387837082E-1,7.980063558E-1,9.661619186E0
8.814666770E-1,-1.878365725E-1,7.076773047E-1,9.618548393E0
8.837026390E-1,-1.441675574E-1,8.069794178E-1,9.714262009E0
8.859381740E-1,-1.860419661E-1,9.361918569E-1,9.818349838E0
8.881739530E-1,-2.081755698E-1,1.018744230E0,9.713065147E0
8.904105860E-1,-1.974078715E-1,1.018744230E0,9.613164902E0
8.926471580E-1,-2.177468538E-1,9.427721500E-1,9.608379364E0
8.948837920E-1,-1.537388563E-1,7.932206988E-1,9.690333366E0
8.971203640E-1,-1.351944804E-1,8.398807645E-1,9.847661972E0
8.993579130E-1,-1.028913707E-1,7.674978375E-1,9.867402077E0
9.015938750E-1,-1.154536903E-1,8.542376757E-1,9.800403595E0
9.038289820E-1,-4.067798331E-2,1.044467092E0,9.829116821E0
9.060650660E-1,-8.733802289E-2,1.064806104E0,9.690333366E0
9.083015780E-1,-5.982056609E-4,1.016351461E0,9.571888924E0
9.105344270E-1,1.076770201E-2,9.385846853E-1,9.782457352E0
9.127601960E-1,6.999006122E-2,8.219345808E-1,9.964311600E0
9.150111720E-1,6.041877344E-2,7.938188910E-1,9.921240807E0
9.172487210E-1,9.571290761E-2,8.985049129E-1,9.868598938E0
9.194881620E-1,8.315058798E-2,9.804590940E-1,9.768698692E0
9.217200950E-1,1.184447184E-1,1.066002488E0,9.754341125E0
9.239559960E-1,8.434699476E-2,1.024128079E0,9.696913719E0
9.261928130E-1,9.152546525E-2,8.847461939E-1,9.749555588E0
9.284290800E-1,3.230310604E-2,8.039883971E-1,9.806385040E0
9.306654690E-1,6.101697683E-2,7.561319470E-1,9.768698692E0
9.329020410E-1,-5.982056609E-4,7.764709592E-1,9.667601585E0
9.351398340E-1,-1.375873014E-2,8.249256015E-1,9.629316330E0
9.373756740E-1,-7.477571070E-2,9.595218897E-1,9.700503349E0
9.396110260E-1,-8.434699476E-2,9.026923180E-1,9.619147301E0
9.418469880E-1,-1.615155339E-1,8.464609981E-1,9.561718941E0
9.440834380E-1,-1.004985496E-1,7.399803996E-1,9.586245537E0
9.463202540E-1,-2.027917206E-1,6.885347366E-1,9.661619186E0
9.485565820E-1,-1.363908947E-1,6.496513486E-1,9.700503349E0
9.507932150E-1,-1.698904037E-1,7.070791125E-1,9.757332802E0
9.530306420E-1,-1.531406492E-1,8.739784956E-1,9.771091461E0
9.552664820E-1,-1.704886109E-1,9.702895880E-1,9.699306488E0
9.575018340E-1,-1.830509305E-1,1.028315544E0,9.646664619E0
9.597379180E-1,-1.519442350E-1,9.266205430E-1,9.737591743E0
9.619745510E-1,-1.441675574E-1,9.068797827E-1,9.890732765E0
9.642111840E-1,-9.750752151E-2,8.195417523E-1,9.957731247E0
9.664476350E-1,-1.016949639E-1,8.584251404E-1,9.885947227E0
9.686837180E-1,-5.682953820E-2,9.391828775E-1,9.867402077E0
9.709213280E-1,-2.213360928E-2,1.039083242E0,9.862616539E0
9.731575950E-1,-2.512463741E-2,1.054038405E0,9.714859962E0
9.753931300E-1,7.776673418E-3,1.015753269E0,9.696315765E0
9.776293360E-1,-8.973085321E-3,9.290133715E-1,9.834501266E0
9.798654200E-1,1.734796353E-2,8.135597110E-1,9.911071777E0
9.820993070E-1,-1.794616925E-3,8.470591903E-1,9.963713646E0
9.843267240E-1,-4.785645287E-3,9.002995491E-1,9.858428955E0
9.865748930E-1,-3.708875179E-2,9.535398483E-1,9.801001549E0
9.888124410E-1,1.615155302E-2,1.009771109E0,9.839286804E0
9.910516380E-1,-8.494520187E-2,9.493523836E-1,9.781260490E0
9.932838770E-1,-4.247260094E-2,9.152546525E-1,9.781859398E0
9.955199610E-1,-8.614161611E-2,8.638089895E-1,9.747760773E0
9.977564730E-1,-9.032905847E-2,8.542376757E-1,9.700503349E0
9.999931060E-1,-1.010967568E-1,7.920243144E-1,9.705288887E0
1.002229434E0,-9.092725813E-2,8.775677085E-1,9.781260490E0
1.004466006E0,-7.238288224E-2,8.297112584E-1,9.777072906E0
1.006702395E0,-1.333998591E-1,8.644071817E-1,9.695118904E0
1.008932192E0,-1.232303679E-1,8.835497499E-1,9.680762291E0
1.011160891E0,-1.663011760E-1,8.560323119E-1,9.628120422E0
1.013396609E0,-1.615155339E-1,8.985049129E-1,9.656833649E0
1.015636843E0,-1.830509305E-1,8.027920127E-1,9.780662537E0
1.017884524E0,-1.310070455E-1,7.776673436E-1,9.847661972E0
1.020110415E0,-1.214357466E-1,8.153542876E-1,9.924231529E0
1.022348086E0,-1.244267747E-1,8.590233326E-1,9.776474953E0
1.024594424E0,-1.184447184E-1,9.218349457E-1,9.699904442E0
1.026830264E0,-1.411765367E-1,1.017547846E0,9.747162819E0
1.029057071E0,-1.040877849E-1,9.308080077E-1,9.709476471E0
1.031301944E0,-9.511470050E-2,8.685946465E-1,9.747760773E0
1.033538455E0,-6.520441920E-2,7.094719410E-1,9.853643417E0
1.035778017E0,-6.041877344E-2,7.477570772E-1,9.929615974E0
1.038008547E0,-3.828516230E-2,8.907282352E-1,9.862616539E0
1.040236514E0,-1.172483116E-1,9.792626500E-1,9.656833649E0
1.042485537E0,-7.298108935E-2,1.045663476E0,9.643074989E0
1.044721621E0,-9.451649338E-2,9.547362328E-1,9.762118340E0
1.046959841E0,-5.862415582E-2,8.386843204E-1,9.867402077E0
1.049193057E0,-8.374879509E-2,7.668996453E-1,9.910472870E0
1.051429629E0,-4.606183618E-2,6.951149702E-1,9.882357597E0
1.053666201E0,-8.255238086E-2,8.201399446E-1,9.829116821E0
1.055902530E0,-2.333002165E-2,9.720842242E-1,9.876974106E0
1.058139041E0,-6.460621208E-2,1.039681435E0,9.790832520E0
1.060373354E0,-3.589234129E-2,1.015753269E0,9.748359680E0
1.062600467E0,-1.375873014E-2,9.290133715E-1,9.834501266E0
1.064847781E0,-4.007977992E-2,7.902296782E-1,9.882357597E0
1.067082766E0,-1.196411345E-2,8.039883971E-1,9.958329201E0
1.069318850E0,-1.196411322E-3,8.279166222E-1,9.891928673E0
1.071557193E0,-5.084748194E-2,9.966106415E-1,9.824331284E0
1.073793887E0,-3.110669367E-2,1.020538807E0,9.757930756E0
1.076031131E0,-9.272187948E-2,1.045663476E0,9.728618622E0
1.078267520E0,-9.032905847E-2,8.925228715E-1,9.757332802E0
1.080503482E0,-1.154536903E-1,8.494520187E-1,9.838089943E0
1.082738955E0,-1.363908947E-1,7.489534616E-1,9.895518303E0
1.084975100E0,-8.853443712E-2,7.716853023E-1,9.948160172E0
1.087211856E0,-1.106680483E-1,9.062815905E-1,9.900303841E0
1.089448184E0,-1.567298770E-1,9.505487680E-1,9.785448074E0
1.091684451E0,-1.375873089E-1,9.595218897E-1,9.790233612E0
1.093920718E0,-1.489532143E-1,9.637092948E-1,9.990633011E0
1.096158328E0,-1.268195957E-1,8.201399446E-1,9.981060982E0
1.098394412E0,-1.543370634E-1,8.117650747E-1,9.804591179E0
1.100629824E0,-1.010967568E-1,8.440681696E-1,9.814760208E0
1.102865909E0,-1.393819153E-1,8.452646136E-1,9.771091461E0
1.105102481E0,-9.511470050E-2,9.349954724E-1,9.857233047E0
1.107339053E0,-1.429711580E-1,9.882357717E-1,9.914062500E0
1.109575381E0,-1.471585929E-1,9.553344250E-1,9.756733894E0
1.111811953E0,-1.621137410E-1,9.128618240E-1,9.737591743E0
1.114049502E0,-1.579262912E-1,8.506484628E-1,9.728020668E0
1.116285586E0,-1.076770201E-1,7.298108935E-1,9.819545746E0
1.118520938E0,-8.973085135E-2,7.334001660E-1,9.958329201E0
1.120756961E0,-7.357929647E-2,8.195417523E-1,9.953543663E0
1.122993350E0,-8.614161611E-2,9.254241586E-1,9.872187614E0
1.125230166E0,-1.082752272E-1,9.738788009E-1,9.757332802E0
1.127466494E0,-5.623133108E-2,9.678967595E-1,9.829116821E0
1.129703127E0,-3.888336942E-2,8.907282352E-1,9.896116257E0
1.131940554E0,-3.589234129E-2,7.950153351E-1,9.943972588E0
1.134176394E0,-3.529413417E-2,7.998009920E-1,9.891330719E0
1.136411746E0,-1.076770201E-2,8.380861282E-1,9.863214493E0
1.138647769E0,1.914258115E-2,9.188438654E-1,9.863214493E0
1.140884219E0,-3.589233849E-3,9.816554785E-1,9.839286804E0
1.143121096E0,1.555334684E-2,9.714859724E-1,9.863214493E0
1.145357669E0,-2.811566554E-2,9.248259664E-1,9.791430473E0
1.147592959E0,-3.828516230E-2,8.721838593E-1,9.781859398E0
1.149823123E0,-3.529413417E-2,8.045865893E-1,9.877572060E0
1.152054568E0,-2.093719877E-2,8.518448472E-1,1.000618649E1
1.154302920E0,-3.529413417E-2,8.470591903E-1,9.996614456E0
1.156537661E0,-3.888336942E-2,8.811569214E-1,9.900901794E0
1.158762515E0,-2.811566554E-2,9.481559992E-1,9.886545181E0
1.161000308E0,-9.571290761E-2,9.062815905E-1,9.848259926E0
1.163233706E0,-9.571290761E-2,8.823533654E-1,9.838688850E0
1.165470461E0,-7.716853172E-2,9.146564603E-1,9.976874352E0
1.167710696E0,-8.255238086E-2,8.434699774E-1,9.929615974E0
1.169946047E0,-7.716853172E-2,8.482556343E-1,9.862616539E0
1.172178469E0,-8.554340899E-2,9.158528447E-1,9.829116821E0
1.174418643E0,-1.381855011E-1,9.308080077E-1,9.814162254E0
1.176654727E0,-9.930214286E-2,9.972088337E-1,9.890732765E0
1.178892519E0,-1.238285750E-1,9.732806087E-1,9.905089378E0
1.181127810E0,-1.639083475E-1,8.309076428E-1,9.828518867E0
1.183365725E0,-1.465603858E-1,7.202396393E-1,9.852447510E0
1.185607241E0,-1.369891018E-1,7.531409264E-1,9.957731247E0
1.187839419E0,-1.752742529E-1,7.680960894E-1,9.976275444E0
1.190072879E0,-1.674975902E-1,9.690931439E-1,9.933204651E0
1.192308169E0,-2.081755698E-1,1.079761267E0,9.884750366E0
1.194546573E0,-1.992024779E-1,9.990034699E-1,9.775279045E0
1.196784121E0,-1.579262912E-1,9.068797827E-1,9.870991707E0
1.199018496E0,-1.375873089E-1,7.339983582E-1,1.001934624E1
1.201255069E0,-1.100698411E-1,6.855437160E-1,1.002473068E1
1.203492251E0,-8.315058798E-2,8.099704385E-1,9.924830437E0
1.205729373E0,-1.190429255E-1,8.925228715E-1,9.781260490E0
1.207964785E0,-7.477571070E-2,9.355936646E-1,9.676574707E0
1.210200320E0,-6.221338734E-2,9.391828775E-1,9.896116257E0
1.212439272E0,-6.879365444E-2,8.572286963E-1,9.957731247E0
1.214687807E0,-1.022931710E-1,8.009973764E-1,9.900303841E0
1.216924440E0,-6.819544733E-2,8.626125455E-1,9.943374634E0
1.219160952E0,-6.759724021E-2,8.721838593E-1,9.872187614E0
1.221395693E0,-4.247260094E-2,9.104689956E-1,9.824331284E0
1.223631533E0,-2.093719877E-2,8.374879360E-1,9.934401512E0
1.225866580E0,-7.477571070E-2,8.093722463E-1,1.004387283E1
1.228097720E0,-1.136590727E-2,9.182456732E-1,1.009651470E1
1.230327517E0,-1.190429255E-1,9.684949517E-1,9.876375198E0
1.232575808E0,-6.879365444E-2,9.978070259E-1,9.657432556E0
1.234812991E0,-4.725824669E-2,9.104689956E-1,9.777072906E0
1.237052005E0,-3.589234129E-2,8.039883971E-1,1.000618649E1
1.239286685E0,-3.708875179E-2,7.704889178E-1,1.010130119E1
1.241522891E0,-9.332008660E-2,8.386843204E-1,9.996016502E0
1.243757937E0,-7.597211748E-2,9.349954724E-1,9.838688850E0
1.245993838E0,-1.178465188E-1,1.007378340E0,9.780662537E0
1.248230533E0,-1.274178028E-1,9.601200819E-1,9.704689980E0
1.250466983E0,-9.272187948E-2,7.770691514E-1,9.862616539E0
1.252703555E0,-9.990034252E-2,7.232306600E-1,1.007737255E1
1.254939883E0,-1.016949639E-1,6.323033571E-1,1.008694363E1
1.257177676E0,-1.603191197E-1,8.297112584E-1,1.000020409E1
1.259413455E0,-1.333998591E-1,1.016351461E0,9.961918831E0
1.261648867E0,-1.310070455E-1,1.107876897E0,9.866206169E0
1.263884891E0,-1.232303679E-1,9.547362328E-1,9.818947792E0
1.266121463E0,-9.690931439E-2,8.769695163E-1,9.986445427E0
1.268357852E0,-5.742774159E-2,7.082754970E-1,1.011087227E1
1.270594363E0,-8.554340899E-2,7.280163169E-1,1.008694363E1
1.272830691E0,-4.007977992E-2,8.757730722E-1,1.001994514E1
1.275068362E0,-9.032905847E-2,9.637092948E-1,9.862018585E0
1.277304568E0,-5.982056633E-2,1.058824062E0,9.795618057E0
1.279539798E0,-1.417747438E-1,1.012163997E0,9.823733330E0
1.281776065E0,-1.351944804E-1,8.303094506E-1,9.876375198E0
1.284012332E0,-1.333998591E-1,7.339983582E-1,1.002891827E1
1.286249026E0,-1.232303679E-1,7.573283911E-1,1.002891827E1
1.288485476E0,-1.411765367E-1,7.968099117E-1,9.933803558E0
1.290721926E0,-1.381855011E-1,9.260223508E-1,9.838089943E0
1.292959658E0,-1.184447184E-1,9.786644578E-1,9.847661972E0
1.295195498E0,-1.010967568E-1,8.871390224E-1,9.890732765E0
1.297428164E0,-1.256231815E-1,8.344969153E-1,9.900303841E0
1.299655032E0,-9.332008660E-2,7.579265833E-1,9.900901794E0
1.301903018E0,-1.028913707E-1,7.339983582E-1,9.857831001E0
1.304140017E0,-6.879365444E-2,7.956135273E-1,9.876974106E0
1.306379336E0,-1.064806059E-1,9.008977413E-1,9.962516785E0
1.308613040E0,-7.298108935E-2,8.721838593E-1,9.938589096E0
1.310850283E0,-9.571290761E-2,9.302098155E-1,9.895518303E0
1.313086612E0,-4.845465720E-2,9.002995491E-1,9.910472870E0
1.315321963E0,-1.190429255E-1,9.541380405E-1,9.881160736E0
1.317555178E0,-6.699903309E-2,9.056833982E-1,9.886545181E0
1.319779971E0,-5.383851007E-2,8.811569214E-1,9.981659889E0
1.322019534E0,-1.674975827E-2,8.225327730E-1,1.005404282E1
1.324267764E0,-1.674975827E-2,8.279166222E-1,1.002054310E1
1.326507022E0,-2.931207791E-2,8.859425783E-1,9.939187050E0
1.328744571E0,-1.435693540E-2,9.427721500E-1,9.929615974E0
1.330977664E0,-1.495514158E-2,9.427721500E-1,9.967901230E0
1.333213076E0,-2.512463741E-2,9.092726111E-1,1.000618649E1
1.335449100E0,-4.905286431E-2,8.859425783E-1,9.991230965E0
1.337685428E0,3.589233849E-3,8.614161611E-1,9.949356079E0
1.339922305E0,-4.426721856E-2,8.620143533E-1,9.939187050E0
1.342159549E0,1.256231871E-2,8.512466550E-1,9.958928108E0
1.344394961E0,-5.802594870E-2,9.481559992E-1,9.976874352E0
1.346631961E0,1.435693540E-2,9.236295223E-1,9.868000984E0
1.348866153E0,-7.657032460E-2,8.632107973E-1,9.786046028E0
1.351104251E0,-1.495514158E-2,8.285148144E-1,9.810572624E0
1.353340274E0,-6.939185411E-2,7.531409264E-1,9.843474388E0
1.355577151E0,-5.922235921E-2,8.099704385E-1,9.910472870E0
1.357811892E0,-1.178465188E-1,7.860422134E-1,1.001037312E1
1.360042238E0,-9.332008660E-2,8.243274093E-1,9.981659889E0
1.362276858E0,-1.304088384E-1,9.343972206E-1,1.001934624E1
1.364523867E0,-1.280160099E-1,9.786644578E-1,9.866804123E0
1.366757876E0,-1.992024779E-1,9.702895880E-1,9.746564865E0
1.368985110E0,-1.250249892E-1,8.590233326E-1,9.847661972E0
1.371230777E0,-1.375873089E-1,7.483552694E-1,1.002413273E1
1.373467410E0,-7.118647546E-2,7.040880919E-1,1.002951622E1
1.375702456E0,-1.363908947E-1,7.866404653E-1,9.962516785E0
1.377919070E0,-8.075776696E-2,9.445667267E-1,9.838688850E0
1.380164981E0,-1.268195957E-1,1.036092162E0,9.809376717E0
1.382414492E0,-1.130608693E-1,1.007378340E0,9.804591179E0
1.384655214E0,-1.058823988E-1,9.248259664E-1,9.981060982E0
1.386886172E0,-5.084748194E-2,7.992027402E-1,1.004865837E1
1.389109988E0,-8.015955985E-2,7.758727670E-1,1.004387283E1
1.391358340E0,-4.486542568E-2,8.709874153E-1,1.002473068E1
1.393595095E0,-4.247260094E-2,9.954141974E-1,9.972088814E0
1.395834476E0,-6.041877344E-2,1.072582722E0,9.900303841E0
1.398065249E0,-6.101697683E-2,1.015753269E0,9.881160736E0
1.400294070E0,-6.759724021E-2,8.961120844E-1,9.905687332E0
1.402541446E0,-6.460621208E-2,7.621139884E-1,9.910472870E0
1.404777041E0,-7.477571070E-2,7.381857634E-1,9.943972588E0
1.407015871E0,-8.255238086E-2,9.146564603E-1,1.001037312E1
1.409249209E0,-1.238285750E-1,9.541380405E-1,9.876375198E0
1.411486026E0,-1.136590764E-1,1.025922656E0,9.881160736E0
1.413722537E0,-1.286142170E-1,9.924231768E-1,9.933204651E0
1.415959048E0,-1.022931710E-1,8.344969153E-1,9.914660454E0
1.418196719E0,-1.220339537E-1,7.722834945E-1,9.890732765E0
1.420429446E0,-7.896314561E-2,7.339983582E-1,9.867402077E0
1.422655703E0,-1.202393398E-1,8.350951076E-1,9.833304405E0
1.424903995E0,-7.657032460E-2,9.062815905E-1,9.838688850E0
1.427140811E0,-6.161518395E-2,9.200403094E-1,9.824331284E0
1.429380191E0,-7.597211748E-2,9.296116233E-1,9.857831001E0
1.431613467E0,-4.905286431E-2,8.811569214E-1,9.953543663E0
1.433849978E0,-9.272187948E-2,8.099704385E-1,9.929018021E0
1.436087588E0,-4.426721856E-2,8.380861282E-1,9.896116257E0
1.438323733E0,-3.469592705E-2,8.572286963E-1,9.891330719E0
1.440559268E0,-5.982056609E-4,8.524430394E-1,9.810572624E0
1.442795108E0,7.178467698E-3,7.513462901E-1,9.858428955E0
1.445031619E0,3.170489892E-2,8.368897438E-1,9.997213364E0
1.447267886E0,-4.905286431E-2,8.907282352E-1,9.972686768E0
1.449504275E0,-4.187439755E-2,9.391828775E-1,9.781859398E0
1.451740908E0,-5.563312769E-2,1.001396298E0,9.766903877E0
1.453978701E0,1.016949583E-2,9.098708034E-1,9.787242889E0
1.456214602E0,-7.776673883E-2,8.297112584E-1,9.848259926E0
1.458450198E0,-4.127619043E-2,7.944171429E-1,1.000618649E1
1.460686160E0,-9.451649338E-2,7.573283911E-1,1.000080204E1
1.462922549E0,-9.571290761E-2,9.062815905E-1,9.890732765E0
1.465158999E0,-1.842473447E-1,1.037288666E0,9.760921478E0
1.467395144E0,-1.645065546E-1,1.013360381E0,9.628120422E0
1.469632022E0,-1.567298770E-1,9.361918569E-1,9.728020668E0
1.471869570E0,-1.220339537E-1,7.489534616E-1,9.881160736E0
1.474105716E0,-1.818545163E-1,6.388836503E-1,9.976275444E0
1.476341006E0,-1.333998591E-1,6.861419082E-1,9.981659889E0
1.478577090E0,-1.776670814E-1,9.026923180E-1,9.899705887E0
1.480813600E0,-1.788634956E-1,1.051645517E0,9.718449593E0
1.483049990E0,-1.824527234E-1,1.085743308E0,9.646664619E0
1.485286502E0,-1.381855011E-1,8.739784956E-1,9.747760773E0
1.487522830E0,-1.316052526E-1,7.441678643E-1,9.881160736E0
1.489760501E0,-1.094716340E-1,6.765705943E-1,9.948160172E0
1.491996768E0,-1.310070455E-1,7.968099117E-1,9.905089378E0
1.494232119E0,-1.184447184E-1,9.643075466E-1,9.818947792E0
1.496467959E0,-1.160518974E-1,1.098305583E0,9.771091461E0
1.498704471E0,-9.272187948E-2,1.040877819E0,9.719047546E0
1.500940982E0,-1.046859920E-1,8.973084688E-1,9.781260490E0
1.503174197E0,-8.374879509E-2,7.764709592E-1,9.896116257E0
1.505402041E0,-4.127619043E-2,7.046862841E-1,9.877572060E0
1.507651614E0,-9.631111473E-2,8.063812256E-1,9.742975235E0
1.509887942E0,-5.144568533E-2,9.158528447E-1,9.753145218E0
1.512125980E0,-8.374879509E-2,9.924231768E-1,9.742975235E0
1.514359073E0,-7.537391037E-2,9.302098155E-1,9.719645500E0
1.516595584E0,-1.196411327E-1,8.494520187E-1,9.747760773E0
1.518832217E0,-8.315058798E-2,7.435696125E-1,9.777072906E0
1.521068484E0,-1.208375469E-1,7.776673436E-1,9.790832520E0
1.523304873E0,-8.673982322E-2,7.728816867E-1,9.686145782E0
1.525542605E0,-1.483550072E-1,8.404789567E-1,9.723833084E0
1.527778445E0,-5.264209956E-2,8.817551732E-1,9.838688850E0
1.530013919E0,-1.190429255E-1,9.260223508E-1,9.838089943E0
1.532250186E0,-8.015955985E-2,9.493523836E-1,9.747760773E0
1.534486758E0,-1.322034448E-1,8.656035662E-1,9.513862610E0
1.536723086E0,-6.221338734E-2,7.872386575E-1,9.634101868E0
1.538959475E0,-4.067798331E-2,7.854440212E-1,9.929615974E0
1.541196414E0,-4.965107143E-2,8.051848412E-1,9.872187614E0
1.543430605E0,-8.614161611E-2,8.446664214E-1,9.752547264E0
1.545657046E0,-7.537391037E-2,9.212366939E-1,9.695717812E0
1.547898928E0,-1.136590764E-1,9.403793216E-1,9.733404160E0
1.550131045E0,-1.088734269E-1,9.308080077E-1,9.762118340E0
1.552380556E0,-1.561316848E-1,9.649057388E-1,9.756733894E0
1.554615053E0,-1.238285750E-1,8.548358679E-1,9.695118904E0
1.556852969E0,-1.531406492E-1,8.315058947E-1,9.680762291E0
1.559086917E0,-1.256231815E-1,8.111668825E-1,9.819545746E0
1.561324832E0,-1.304088384E-1,8.063812256E-1,9.823733330E0
1.563560489E0,-1.292124242E-1,8.781659007E-1,9.771689415E0
1.565796145E0,-1.519442350E-1,9.505487680E-1,9.756733894E0
1.568029116E0,-1.615155339E-1,8.937192559E-1,9.647262573E0
1.570256778E0,-1.710868180E-1,8.895317912E-1,9.632905960E0
1.572505069E0,-9.990034252E-2,8.590233326E-1,9.709476471E0
1.574741580E0,-1.250249892E-1,8.069794178E-1,9.757332802E0
1.576980899E0,-9.272187948E-2,7.962117195E-1,9.857831001E0
1.579215518E0,-1.058823988E-1,9.062815905E-1,9.933803558E0
1.581451541E0,-9.391828626E-2,1.001994491E0,9.786046028E0
1.583686953E0,-7.896314561E-2,9.361918569E-1,9.595218658E0
1.585919252E0,-5.024927482E-2,9.637092948E-1,9.657432556E0
1.588143923E0,-4.307080805E-2,8.249256015E-1,9.714859962E0
1.590393985E0,-2.452643216E-2,7.387840152E-1,9.658030510E0
1.592632510E0,-2.093719877E-2,7.758727670E-1,9.848857880E0
1.594872866E0,-2.991028316E-2,8.333004713E-1,9.891330719E0
1.597107180E0,-4.606183618E-2,9.493523836E-1,9.676574707E0
1.599342715E0,-5.383851007E-2,1.021137118E0,9.643074989E0
1.601578067E0,-9.810572863E-2,9.649057388E-1,9.643074989E0
1.603814151E0,-3.230310604E-2,8.823533654E-1,9.690931320E0
1.606050723E0,-9.152546525E-2,8.111668825E-1,9.776474953E0
1.608287234E0,-7.298108935E-2,7.154539824E-1,9.681360245E0
1.610523318E0,-7.716853172E-2,7.728816867E-1,9.714859962E0
1.612759951E0,-6.221338734E-2,8.488538265E-1,9.734002113E0
1.614997683E0,-9.810572863E-2,9.553344250E-1,9.604789734E0
1.617233645E0,-7.357929647E-2,9.457631707E-1,9.547960281E0
1.619469241E0,-1.088734269E-1,8.787640929E-1,9.623932838E0
1.621705203E0,-9.212367237E-2,7.585247755E-1,9.724431038E0
1.623941592E0,-1.214357466E-1,7.872386575E-1,9.838688850E0
1.626178103E0,-1.250249892E-1,7.974081635E-1,9.704689980E0
1.628414492E0,-1.280160099E-1,8.691928387E-1,9.647262573E0
1.630648318E0,-1.082752272E-1,9.361918569E-1,9.643074989E0
1.632876650E0,-1.130608693E-1,9.361918569E-1,9.699904442E0
1.635124758E0,-1.405783296E-1,1.027119160E0,9.680164337E0
1.637360232E0,-1.405783296E-1,9.894321561E-1,9.642477036E0
1.639599123E0,-1.513460279E-1,8.608179688E-1,9.513862610E0
1.641832705E0,-1.094716340E-1,8.117650747E-1,9.623932838E0
1.644069278E0,-1.004985496E-1,8.446664214E-1,9.757332802E0
1.646305789E0,-1.010967568E-1,7.878368497E-1,9.681360245E0
1.648541873E0,-1.040877849E-1,9.116654396E-1,9.685547829E0
1.650779483E0,-8.913264424E-2,9.786644578E-1,9.747760773E0
1.653015750E0,-1.310070455E-1,9.888339639E-1,9.637691498E0
1.655251223E0,-8.853443712E-2,9.595218897E-1,9.671191216E0
1.657484316E0,-8.554340899E-2,8.829515576E-1,9.733404160E0
1.659708926E0,-5.802594870E-2,7.674978375E-1,9.695717812E0
1.661948672E0,-2.452643216E-2,8.291130662E-1,9.777072906E0
1.664196658E0,-2.333002165E-2,9.296116233E-1,9.791430473E0
1.666436038E0,-1.196411345E-2,9.583254457E-1,9.662816048E0
1.668670779E0,1.854437590E-2,1.039681435E0,9.586245537E0
1.670894839E0,1.734796353E-2,9.870393276E-1,9.601201057E0
1.673141787E0,-3.170489892E-2,8.733802438E-1,9.581459999E0
1.675378055E0,-5.982056609E-4,7.812566161E-1,9.696315765E0
1.677617617E0,-1.136590727E-2,7.334001660E-1,9.772886276E0
1.679851321E0,-2.931207791E-2,7.956135273E-1,9.743574142E0
1.682087527E0,-5.862415582E-2,1.016949654E0,9.623932838E0
1.684323916E0,-1.292124242E-1,1.033101201E0,9.446864128E0
1.686561648E0,-9.631111473E-2,9.463613629E-1,9.409176826E0
1.688797549E0,-1.328016520E-1,8.650053740E-1,9.585647583E0
1.691034610E0,-1.597209126E-1,6.879364848E-1,9.647262573E0
1.693274783E0,-1.980060786E-1,6.747759581E-1,9.608977318E0
1.695505618E0,-1.495514214E-1,7.070791125E-1,9.647262573E0
1.697742373E0,-2.105683982E-1,8.087740541E-1,9.632308006E0
1.699977846E0,-1.513460279E-1,8.889335990E-1,9.589835167E0
1.702217532E0,-2.081755698E-1,9.140582681E-1,9.570094109E0
1.704452761E0,-1.232303679E-1,8.554341197E-1,9.600004196E0
1.706686159E0,-1.435693651E-1,8.171489239E-1,9.661619186E0
1.708911135E0,-7.716853172E-2,8.063812256E-1,9.729216576E0
1.711149966E0,-8.614161611E-2,8.207381964E-1,9.695717812E0
1.713396426E0,2.572284266E-2,9.481559992E-1,9.696315765E0
1.715635744E0,6.580262445E-3,9.439685345E-1,9.696315765E0
1.717869143E0,9.810572863E-2,9.140582681E-1,9.568299294E0
1.720090822E0,5.563312769E-2,9.296116233E-1,9.520442963E0
1.722332888E0,7.537391037E-2,9.385846853E-1,9.515657425E0
1.724579470E0,2.691925503E-2,9.343972206E-1,9.548559189E0
1.726815310E0,5.922235921E-2,8.955138922E-1,9.601201057E0
1.729041872E0,1.555334684E-2,8.769695163E-1,9.639486313E0
1.731287600E0,2.452643216E-2,8.715856671E-1,9.691530228E0
1.733524356E0,-6.520441920E-2,8.973084688E-1,9.595816612E0
1.735763736E0,-3.589234129E-2,8.973084688E-1,9.538389206E0
1.737994753E0,-1.022931710E-1,9.176474810E-1,9.523433685E0
1.740223513E0,-7.537391037E-2,8.165507317E-1,9.524032593E0
1.742470584E0,-1.052841991E-1,7.926225066E-1,9.638289452E0
1.744705874E0,-9.152546525E-2,7.543373108E-1,9.643074989E0
1.746944826E0,-1.286142170E-1,7.836494446E-1,9.561718941E0
1.749178653E0,-8.913264424E-2,8.691928387E-1,9.552147865E0
1.751415286E0,-1.268195957E-1,9.415757060E-1,9.618548393E0
1.753651736E0,-9.750752151E-2,9.601200819E-1,9.585647583E0
1.755887942E0,-1.405783296E-1,9.367900491E-1,9.551549911E0
1.758122988E0,-9.990034252E-2,7.884350419E-1,9.524032593E0
1.760349978E0,-1.184447184E-1,8.362914920E-1,9.600004196E0
1.762597232E0,-5.682953820E-2,8.440681696E-1,9.676574707E0
1.764833377E0,-1.034895778E-1,8.835497499E-1,9.609575272E0
1.767072695E0,-5.084748194E-2,8.781659007E-1,9.543174744E0
1.769306338E0,-5.563312769E-2,8.877372146E-1,9.619745255E0
1.771542605E0,-2.691925503E-2,9.158528447E-1,9.658030510E0
1.773779238E0,-6.460621208E-2,9.260223508E-1,9.571888924E0
1.776016726E0,-4.905286431E-2,9.553344250E-1,9.495318413E0
1.778252627E0,-2.333002165E-2,7.962117195E-1,9.582057953E0
1.780485293E0,-1.375873014E-2,8.386843204E-1,9.701101303E0
1.782712466E0,4.187439568E-3,8.237292171E-1,9.772886276E0
1.784960391E0,-5.503492057E-2,9.116654396E-1,9.591031075E0
1.787194155E0,-3.409772366E-2,1.016949654E0,9.543174744E0
1.789424502E0,-7.238288224E-2,1.007976532E0,9.476176262E0
1.791670474E0,-6.939185411E-2,8.931210637E-1,9.495318413E0
1.793907900E0,-5.742774159E-2,7.920243144E-1,9.653244972E0
1.796146792E0,-5.383851007E-2,7.483552694E-1,9.738788605E0
1.798379336E0,-8.135596663E-2,8.015955687E-1,9.681360245E0
1.800615298E0,-1.172483116E-1,8.985049129E-1,9.528220177E0
1.802851504E0,-1.399801224E-1,9.661021233E-1,9.489934921E0
1.805088260E0,-7.357929647E-2,9.074779749E-1,9.509675026E0
1.807324588E0,-1.184447184E-1,8.506484628E-1,9.580862045E0
1.809561343E0,-1.106680483E-1,7.214360237E-1,9.571290970E0
1.811799014E0,-1.345962733E-1,7.501499057E-1,9.614361763E0
1.814034854E0,-7.716853172E-2,7.585247755E-1,9.647860527E0
1.816267275E0,-1.280160099E-1,8.602197170E-1,9.604789734E0
1.818491519E0,-9.810572863E-2,9.505487680E-1,9.604789734E0
1.820727847E0,-1.166501045E-1,9.936196208E-1,9.618548393E0
1.822967227E0,-8.315058798E-2,9.314061999E-1,9.552147865E0
1.825218630E0,-8.673982322E-2,7.920243144E-1,9.690931320E0
1.827455142E0,-2.931207791E-2,7.956135273E-1,9.738788605E0
1.829693118E0,-4.785645381E-2,8.249256015E-1,9.719645500E0
1.831925723E0,6.580262445E-3,9.056833982E-1,9.624530792E0
1.834161380E0,-2.093719877E-2,9.493523836E-1,9.595816612E0
1.836397342E0,7.178467698E-3,9.631111026E-1,9.677172661E0
1.838633975E0,-3.649054468E-2,9.397810698E-1,9.700503349E0
1.840870242E0,-5.144568533E-2,8.727820516E-1,9.681360245E0
1.843106570E0,-5.623133108E-2,8.590233326E-1,9.619745255E0
1.845343203E0,-5.084748194E-2,8.781659007E-1,9.562317848E0
1.847580996E0,-8.434699476E-2,8.835497499E-1,9.585647583E0
1.849816897E0,-7.477571070E-2,9.020941257E-1,9.633503914E0
1.852052432E0,-1.094716340E-1,8.877372146E-1,9.719047546E0
1.854288211E0,-1.088734269E-1,8.883354068E-1,9.656833649E0
1.856524844E0,-1.692921966E-1,9.517452121E-1,9.513264656E0
1.858759585E0,-1.178465188E-1,8.273184299E-1,9.442676544E0
1.860990603E0,-1.333998591E-1,8.075776696E-1,9.556933403E0
1.863234072E0,-1.010967568E-1,7.920243144E-1,9.710074425E0
1.865471865E0,-1.154536903E-1,7.920243144E-1,9.747760773E0
1.867709719E0,-1.232303679E-1,8.506484628E-1,9.623932838E0
1.869943301E0,-1.310070455E-1,9.846464992E-1,9.604191780E0
1.872179141E0,-7.716853172E-2,1.012762189E0,9.547362328E0
1.874415957E0,-1.112662554E-1,9.846464992E-1,9.552147865E0
1.876652530E0,-5.563312769E-2,8.733802438E-1,9.581459999E0
1.878888919E0,-3.409772366E-2,7.866404653E-1,9.681958199E0
1.881125369E0,4.785645287E-3,8.189435601E-1,9.739386559E0
1.883362673E0,-4.187439568E-3,8.297112584E-1,9.615557671E0
1.885598758E0,-1.136590727E-2,9.780662656E-1,9.619745255E0
1.887835146E0,-3.529413417E-2,9.876375198E-1,9.619745255E0
1.890074405E0,-5.503492057E-2,9.212366939E-1,9.543174744E0
1.892306827E0,-6.161518395E-2,8.398807645E-1,9.652647018E0
1.894543399E0,-2.452643216E-2,8.099704385E-1,9.762716293E0
1.896778689E0,-5.204389244E-2,8.159525394E-1,9.634101868E0
1.899016299E0,-1.040877849E-1,8.691928387E-1,9.604789734E0
1.901253848E0,-6.101697683E-2,8.919246197E-1,9.695717812E0
1.903486880E0,-5.682953820E-2,9.152546525E-1,9.805189133E0
1.905713137E0,-7.537391037E-2,9.020941257E-1,9.676574707E0
1.907958621E0,-1.040877849E-1,8.410771489E-1,9.556933403E0
1.910185977E0,-1.088734269E-1,8.500502706E-1,9.590433121E0
1.912437564E0,-1.100698411E-1,7.597211599E-1,9.580862045E0
1.914670718E0,-1.633101404E-1,7.836494446E-1,9.690333366E0
1.916910159E0,-1.064806059E-1,8.063812256E-1,9.805189133E0
1.919144961E0,-1.854437590E-1,9.128618240E-1,9.732806206E0
1.921380984E0,-1.986042857E-1,9.661021233E-1,9.641879082E0
1.923616275E0,-1.884347796E-1,9.714859724E-1,9.556335449E0
1.925852664E0,-2.033899277E-1,9.332008362E-1,9.594022751E0
1.928085818E0,-1.770688742E-1,8.033902049E-1,9.666405678E0
1.930313723E0,-1.686939895E-1,7.836494446E-1,9.751948357E0
1.932561831E0,-1.591227055E-1,7.830511928E-1,9.775876999E0
1.934798342E0,-1.435693651E-1,7.980063558E-1,9.637691498E0
1.937039004E0,-1.603191197E-1,9.798609018E-1,9.656235695E0
1.939271853E0,-1.447657645E-1,1.008574724E0,9.594620705E0
1.941507266E0,-1.884347796E-1,9.427721500E-1,9.513264656E0
1.943743350E0,-1.244267747E-1,8.691928387E-1,9.742975235E0
1.945976870E0,-1.639083475E-1,8.213363886E-1,9.862018585E0
1.948202822E0,-8.793623000E-2,7.579265833E-1,9.781260490E0
1.950450869E0,-1.292124242E-1,8.404789567E-1,9.747760773E0
1.952689334E0,-8.973085135E-2,9.403793216E-1,9.742975235E0
1.954930178E0,-1.082752272E-1,9.547362328E-1,9.714262009E0
1.957163271E0,-8.434699476E-2,9.451649189E-1,9.662218094E0
1.959398379E0,-1.244267747E-1,8.829515576E-1,9.771689415E0
1.961634402E0,-6.281159073E-2,8.392825127E-1,9.781859398E0
1.963870791E0,-6.699903309E-2,8.392825127E-1,9.724431038E0
1.966107364E0,-7.178468257E-2,8.584251404E-1,9.762716293E0
1.968343936E0,-3.290131316E-2,9.152546525E-1,9.772287369E0
1.970580569E0,-8.434699476E-2,9.876375198E-1,9.762118340E0
1.972818057E0,-5.563312769E-2,9.637092948E-1,9.734002113E0
1.975053897E0,-1.136590764E-1,9.170492887E-1,9.699904442E0
1.977289492E0,-4.785645381E-2,8.386843204E-1,9.772287369E0
1.979525516E0,-1.202393398E-1,8.213363886E-1,9.738189697E0
1.981761966E0,-5.204389244E-2,8.207381964E-1,9.624530792E0
1.983998721E0,-1.238285750E-1,8.739784956E-1,9.685547829E0
1.986231997E0,-6.580262631E-2,9.397810698E-1,9.757332802E0
1.988459414E0,-1.369891018E-1,9.505487680E-1,9.728020668E0
1.990708865E0,-8.015955985E-2,8.925228715E-1,9.643074989E0
1.992945010E0,-1.435693651E-1,8.404789567E-1,9.704689980E0
1.995183597E0,-1.058823988E-1,8.111668825E-1,9.738189697E0
1.997416446E0,-1.351944804E-1,7.495517135E-1,9.719047546E0
1.999653018E0,-1.112662554E-1,7.776673436E-1,9.742975235E0
2.001889529E0,-1.208375469E-1,8.255237937E-1,9.833304405E0
2.004125918E0,-1.052841991E-1,8.542376757E-1,9.723833084E0
2.006362490E0,-1.190429255E-1,9.020941257E-1,9.766903877E0
2.008599978E0,-9.990034252E-2,9.302098155E-1,9.833304405E0
2.010835879E0,-1.328016520E-1,9.403793216E-1,9.780662537E0
2.013071475E0,-8.973085135E-2,9.020941257E-1,9.723833084E0
2.015307498E0,-1.196411327E-1,8.542376757E-1,9.752547264E0
2.017543887E0,-5.383851007E-2,8.291130662E-1,9.857831001E0
2.019780459E0,-1.118644550E-1,8.440681696E-1,9.924231529E0
2.022016970E0,-1.004985496E-1,8.542376757E-1,9.781260490E0
2.024253359E0,-1.375873089E-1,9.170492887E-1,9.719047546E0
2.026490908E0,-1.322034448E-1,9.361918569E-1,9.704689980E0
2.028726992E0,-1.716850251E-1,8.937192559E-1,9.718449593E0
2.030962588E0,-1.256231815E-1,7.728816867E-1,9.771689415E0
2.033198428E0,-1.896311939E-1,7.639086246E-1,9.947562218E0
2.035435000E0,-1.507478207E-1,7.872386575E-1,9.957133293E0
2.037671572E0,-1.956132501E-1,9.320043921E-1,9.832706451E0
2.039904727E0,-1.944168359E-1,9.798609018E-1,9.732208252E0
2.042130801E0,-2.003988922E-1,9.128618240E-1,9.765707016E0
2.044382022E0,-1.633101404E-1,8.829515576E-1,9.880562782E0
2.046618045E0,-1.740778536E-1,7.878368497E-1,9.847661972E0
2.048856875E0,-1.627119333E-1,8.075776696E-1,9.680762291E0
2.051089480E0,-1.818545163E-1,8.410771489E-1,9.694520950E0
2.053325870E0,-1.621137410E-1,9.505487680E-1,9.837491989E0
2.055562686E0,-1.806581169E-1,1.021735311E0,9.932606697E0
2.057799014E0,-1.896311939E-1,1.065404296E0,9.860821724E0
2.060035647E0,-1.657029688E-1,9.511470199E-1,9.689735413E0
2.062273074E0,-1.531406492E-1,8.548358679E-1,9.718449593E0
2.064508975E0,-1.214357466E-1,7.776673436E-1,9.852447510E0
2.066741519E0,-1.124626622E-1,7.585247755E-1,9.848259926E0
2.068965701E0,-1.070788130E-1,7.914260626E-1,9.890732765E0
2.071206241E0,-1.058823988E-1,8.871390224E-1,9.890732765E0
2.073453494E0,-9.990034252E-2,9.260223508E-1,9.786046028E0
2.075692873E0,-1.328016520E-1,9.643075466E-1,9.799804688E0
2.077926150E0,-1.058823988E-1,8.584251404E-1,9.847661972E0
2.080152041E0,-9.750752151E-2,8.344969153E-1,9.909874916E0
2.082400088E0,-7.896314561E-2,8.237292171E-1,1.001037312E1
2.084635501E0,-1.160518974E-1,8.632107973E-1,9.900303841E0
2.086871890E0,-6.999006122E-2,9.972088337E-1,9.786046028E0
2.089096621E0,-2.153540403E-2,1.001396298E0,9.748359680E0
2.091344668E0,-6.580262631E-2,9.397810698E-1,9.747760773E0
2.093580874E0,-3.948157281E-2,8.243274093E-1,9.824930191E0
2.095820193E0,-7.357929647E-2,7.770691514E-1,9.843474388E0
2.098052187E0,-8.315058798E-2,7.627122402E-1,9.824331284E0
2.100279422E0,-8.554340899E-2,8.967102766E-1,9.757332802E0
2.102526309E0,-1.052841991E-1,9.062815905E-1,9.823733330E0
2.104762393E0,-1.250249892E-1,9.397810698E-1,9.971489906E0
2.107002077E0,-1.208375469E-1,9.104689956E-1,1.000977516E1
2.109235598E0,-1.926222295E-1,8.739784956E-1,9.951749802E0
2.111472110E0,-1.058823988E-1,8.632107973E-1,9.847661972E0
2.113708377E0,-1.447657645E-1,8.350951076E-1,9.857233047E0
2.115945986E0,-9.810572863E-2,7.770691514E-1,9.924231529E0
2.118182071E0,-6.999006122E-2,7.806583643E-1,9.976874352E0
2.120417666E0,-9.212367237E-2,8.961120844E-1,9.986445427E0
2.122653506E0,-8.554340899E-2,9.062815905E-1,9.809974670E0
2.124890078E0,-1.034895778E-1,1.001994491E0,9.790233612E0
2.127126590E0,-9.631111473E-2,9.631111026E-1,1.000977516E1
2.129362979E0,-1.351944804E-1,9.248259664E-1,1.004806042E1
2.131599551E0,-1.214357466E-1,8.530412912E-1,9.990633011E0
2.133837100E0,-1.214357466E-1,8.153542876E-1,9.933803558E0
2.136073184E0,-8.315058798E-2,8.099704385E-1,9.900901794E0
2.138308535E0,-1.298106313E-1,9.158528447E-1,9.971489906E0
2.140544559E0,-9.990034252E-2,9.637092948E-1,9.895518303E0
2.142780948E0,-1.621137410E-1,9.643075466E-1,9.875777245E0
2.145017703E0,-9.631111473E-2,9.110672474E-1,9.900303841E0
2.147253848E0,-1.172483116E-1,7.866404653E-1,9.924231529E0
2.149490725E0,-1.118644550E-1,8.482556343E-1,9.986445427E0
2.151725344E0,-1.076770201E-1,8.291130662E-1,1.000080204E1
2.153952822E0,-1.250249892E-1,8.775677085E-1,9.885947227E0
2.156196475E0,-8.733802289E-2,8.865407705E-1,9.976874352E0
2.158421023E0,-1.112662554E-1,9.343972206E-1,1.003848934E1
2.160663210E0,-8.733802289E-2,8.913264275E-1,9.991230965E0
2.162908938E0,-9.631111473E-2,8.775677085E-1,9.866804123E0
2.165148073E0,-8.135596663E-2,8.919246197E-1,9.790832520E0
2.167384524E0,-6.340979785E-2,7.956135273E-1,9.819545746E0
2.169619387E0,-4.486542568E-2,8.189435601E-1,9.948758125E0
2.171855594E0,-5.084748194E-2,8.327022791E-1,1.009172916E1
2.174090518E0,-7.776673883E-2,9.194421172E-1,1.001515961E1
2.176326541E0,-7.597211748E-2,9.493523836E-1,9.824331284E0
2.178563051E0,-1.280160099E-1,9.314061999E-1,9.751948357E0
2.180799746E0,-6.819544733E-2,8.338986635E-1,9.848259926E0
2.183036074E0,-9.332008660E-2,8.243274093E-1,9.976874352E0
2.185272647E0,-9.332008660E-2,7.956135273E-1,9.972088814E0
2.187510195E0,-1.399801224E-1,8.494520187E-1,9.900303841E0
2.189746341E0,-1.052841991E-1,9.631111026E-1,9.952945709E0
2.191978945E0,-1.196411327E-1,9.589236975E-1,9.942776680E0
2.194205874E0,-1.238285750E-1,1.001994491E0,9.923633575E0
2.196453799E0,-1.441675574E-1,9.260223508E-1,9.923633575E0
2.198690799E0,-1.351944804E-1,8.303094506E-1,9.876375198E0
2.200930118E0,-9.391828626E-2,7.573283911E-1,9.976874352E0
2.203163882E0,-1.310070455E-1,9.008977413E-1,1.008156013E1
2.205401248E0,-1.202393398E-1,9.583254457E-1,9.985847473E0
2.207637149E0,-1.405783296E-1,1.117448211E0,9.870991707E0
2.209872683E0,-1.184447184E-1,1.011565804E0,9.866804123E0
2.212108584E0,-1.022931710E-1,8.913264275E-1,1.001456070E1
2.214345401E0,-6.520441920E-2,8.374879360E-1,1.010608673E1
2.216581729E0,-1.172483116E-1,8.147560954E-1,1.001456070E1
2.218818362E0,-7.238288224E-2,8.482556343E-1,9.848259926E0
2.221054812E0,-7.597211748E-2,9.631111026E-1,9.862616539E0
2.223292178E0,-7.657032460E-2,9.296116233E-1,9.885947227E0
2.225528201E0,-9.212367237E-2,8.817551732E-1,9.919445992E0
2.227763553E0,-7.776673883E-2,8.763712645E-1,9.981659889E0
2.229999698E0,-1.160518974E-1,8.488538265E-1,9.905089378E0
2.232236270E0,-8.673982322E-2,8.344969153E-1,9.781260490E0
2.234468203E0,-5.922235921E-2,8.051848412E-1,9.867402077E0
2.236690615E0,-5.503492057E-2,8.045865893E-1,9.948758125E0
2.238945742E0,-8.255238086E-2,8.961120844E-1,9.976874352E0
2.241183291E0,-8.554340899E-2,9.110672474E-1,9.809974670E0
2.243424014E0,-1.100698411E-1,8.303094506E-1,9.733404160E0
2.245654727E0,-6.340979785E-2,8.338986635E-1,9.900901794E0
2.247886538E0,-6.879365444E-2,8.428717852E-1,9.991230965E0
2.250110293E0,-1.112662554E-1,8.207381964E-1,9.829116821E0
2.252363955E0,-1.004985496E-1,8.919246197E-1,9.795618057E0
2.254600222E0,-1.100698411E-1,8.877372146E-1,9.814162254E0
2.256840822E0,-1.070788130E-1,8.201399446E-1,9.890732765E0
2.259074160E0,-1.345962733E-1,9.487541914E-1,1.002413273E1
2.261310428E0,-1.495514214E-1,9.158528447E-1,1.000977516E1
2.263545657E0,-1.579262912E-1,8.931210637E-1,9.833304405E0
2.265781985E0,-1.345962733E-1,8.685946465E-1,9.871589661E0
2.268015505E0,-1.507478207E-1,7.962117195E-1,9.971489906E0
2.270243167E0,-1.363908947E-1,8.201399446E-1,1.000020409E1
2.272491336E0,-1.405783296E-1,9.152546525E-1,1.008574772E1
2.274727725E0,-1.591227055E-1,9.445667267E-1,1.005224800E1
2.276968448E0,-1.585244983E-1,1.001994491E0,1.006181908E1
2.279198916E0,-1.292124242E-1,1.034895778E0,1.009531879E1
2.281424136E0,-1.345962733E-1,9.020941257E-1,9.881160736E0
2.283660463E0,-9.631111473E-2,8.961120844E-1,9.909874916E0
2.285909121E0,-7.417750359E-2,8.333004713E-1,1.002473068E1
2.288148257E0,-4.067798331E-2,8.279166222E-1,1.004865837E1
2.290385013E0,-5.264209956E-2,9.816554785E-1,9.976874352E0
2.292618655E0,-8.973085135E-2,9.828519225E-1,9.805189133E0
2.294856387E0,-5.623133108E-2,9.637092948E-1,9.771689415E0
2.297092532E0,-4.785645381E-2,9.098708034E-1,9.896116257E0
2.299327883E0,-7.776673883E-2,7.866404653E-1,9.814760208E0
2.301563846E0,-8.853443712E-2,7.627122402E-1,9.891330719E0
2.303800235E0,-8.374879509E-2,8.147560954E-1,9.972088814E0
2.306036990E0,-9.810572863E-2,7.908278704E-1,9.962516785E0
2.308273135E0,-8.135596663E-2,9.152546525E-1,9.895518303E0
2.310510073E0,-7.178468257E-2,9.104689956E-1,9.886545181E0
2.312747744E0,-9.571290761E-2,8.871390224E-1,9.805189133E0
2.314980715E0,-6.819544733E-2,8.434699774E-1,9.853045464E0
2.317204287E0,-4.965107143E-2,8.428717852E-1,9.981659889E0
2.319440188E0,-4.546362907E-2,7.710871100E-1,9.939187050E0
2.321679385E0,-2.512463741E-2,8.662018180E-1,9.943972588E0
2.323931093E0,-5.682953820E-2,9.625129104E-1,9.905089378E0
2.326167360E0,-3.170489892E-2,9.822536707E-1,9.791430473E0
2.328403750E0,-5.204389244E-2,9.768698215E-1,9.891330719E0
2.330638064E0,-2.991028316E-2,8.572286963E-1,9.934401512E0
2.332874392E0,-1.674975827E-2,7.896314859E-1,9.972686768E0
2.335109866E0,-3.110669367E-2,7.758727670E-1,9.948758125E0
2.337346194E0,-3.409772366E-2,8.620143533E-1,9.886545181E0
2.339580508E0,-2.871387079E-2,9.098708034E-1,9.872187614E0
2.341811221E0,-4.725824669E-2,9.625129104E-1,9.900901794E0
2.344055301E0,-2.931207791E-2,9.188438654E-1,9.939187050E0
2.346291934E0,-8.135596663E-2,9.535398483E-1,9.938589096E0
2.348531436E0,-5.862415582E-2,8.386843204E-1,9.896116257E0
2.350765567E0,-6.759724021E-2,8.386843204E-1,9.838688850E0
2.353000857E0,-1.136590727E-2,8.374879360E-1,9.929615974E0
2.355236758E0,-9.750752151E-2,8.386843204E-1,9.929018021E0
2.357469912E0,-6.221338734E-2,9.104689956E-1,9.886545181E0
2.359693728E0,-1.052841991E-1,9.439685345E-1,9.938589096E0
2.361939456E0,-7.657032460E-2,9.343972206E-1,9.900303841E0
2.364182986E0,-1.435693651E-1,9.547362328E-1,9.909276962E0
2.366423953E0,-8.195417374E-2,9.008977413E-1,9.881160736E0
2.368658145E0,-1.166501045E-1,7.968099117E-1,9.857233047E0
2.370891787E0,-5.623133108E-2,7.328019142E-1,9.963115692E0
2.373128177E0,-9.990034252E-2,7.854440212E-1,1.012941647E1
2.375364688E0,-4.067798331E-2,8.422735929E-1,1.002951622E1
2.377601077E0,-1.238285750E-1,9.403793216E-1,9.852447510E0
2.379837588E0,-5.204389244E-2,9.439685345E-1,9.843474388E0
2.382074099E0,-1.154536903E-1,8.542376757E-1,9.847661972E0
2.384311465E0,-3.529413417E-2,8.757730722E-1,1.000139999E1
2.386547488E0,-9.332008660E-2,8.243274093E-1,1.000558758E1
2.388782840E0,-5.443671346E-2,8.147560954E-1,9.891330719E0
2.391018985E0,-8.554340899E-2,9.774680734E-1,9.909874916E0
2.393255557E0,-6.221338734E-2,9.296116233E-1,9.886545181E0
2.395492129E0,-9.451649338E-2,9.924231768E-1,9.847661972E0
2.397728396E0,-4.247260094E-2,8.865407705E-1,9.767501831E0
2.399961855E0,-1.489532143E-1,8.117650747E-1,9.728618622E0
2.402188112E0,-5.922235921E-2,7.435696125E-1,9.767501831E0
2.404427676E0,-1.411765367E-1,8.063812256E-1,9.929018021E0
2.406670535E0,-1.405783296E-1,8.440681696E-1,9.976275444E0
2.408898867E0,-1.393819153E-1,9.020941257E-1,9.909276962E0
2.411149355E0,-1.381855011E-1,9.499505758E-1,9.833304405E0
2.413382998E0,-1.190429255E-1,8.973084688E-1,9.776474953E0
2.415623050E0,-1.148554832E-1,8.829515576E-1,9.776474953E0
2.417852847E0,-5.922235921E-2,8.003991842E-1,9.915258408E0
2.420079226E0,-4.546362907E-2,7.950153351E-1,9.972686768E0
2.422320437E0,-1.196411322E-3,8.757730722E-1,9.934999466E0
2.424564883E0,-1.974078640E-2,8.620143533E-1,9.848857880E0
2.426800967E0,2.512463741E-2,9.385846853E-1,9.768099785E0
2.429027835E0,2.153540403E-2,1.028913736E0,9.824930191E0
2.431274173E0,5.982056726E-3,9.290133715E-1,9.791430473E0
2.433510684E0,8.973085321E-3,8.428717852E-1,9.806385040E0
2.435750064E0,6.041877344E-2,8.650053740E-1,1.003071213E1
2.437981875E0,5.204389244E-2,8.937192559E-1,9.949356079E0
2.440208865E0,2.093719877E-2,9.672985673E-1,9.734601021E0
2.442455996E0,-7.776673418E-3,9.248259664E-1,9.638887405E0
2.444689516E0,1.914258115E-2,8.614161611E-1,9.811170578E0
2.446917544E0,-3.110669367E-2,8.327022791E-1,1.003489971E1
2.449149112E0,-4.007977992E-2,8.572286963E-1,9.967901230E0
2.451401492E0,-9.990034252E-2,8.781659007E-1,9.695118904E0
2.453640383E0,-6.999006122E-2,8.733802438E-1,9.590433121E0
2.455879702E0,-8.554340899E-2,8.919246197E-1,9.762118340E0
2.458108767E0,-9.272187948E-2,8.338986635E-1,9.933803558E0
2.460335147E0,-1.178465188E-1,8.003991842E-1,1.000020409E1
2.462582950E0,-1.202393398E-1,9.206385016E-1,9.952347755E0
2.464819705E0,-1.328016520E-1,9.451649189E-1,9.775876999E0
2.467059023E0,-1.603191197E-1,9.373882413E-1,9.594620705E0
2.469292483E0,-1.136590764E-1,9.260223508E-1,9.733404160E0
2.471529238E0,-9.690931439E-2,8.297112584E-1,9.885947227E0
2.473766787E0,-1.124626622E-1,7.722834945E-1,9.881160736E0
2.476002688E0,-1.112662554E-1,8.392825127E-1,9.866804123E0
2.478238284E0,-1.280160099E-1,9.738788009E-1,9.823733330E0
2.480474490E0,-1.136590764E-1,9.212366939E-1,9.757332802E0
2.482710635E0,-1.328016520E-1,9.451649189E-1,9.771091461E0
2.484947146E0,-1.154536903E-1,8.775677085E-1,9.876375198E0
2.487183413E0,-1.064806059E-1,8.201399446E-1,9.866804123E0
2.489420169E0,-8.255238086E-2,8.057830334E-1,9.824331284E0
2.491657900E0,-9.631111473E-2,8.536394835E-1,9.862018585E0
2.493893740E0,-5.682953820E-2,9.296116233E-1,9.819545746E0
2.496129092E0,-8.374879509E-2,1.082752228E0,9.852447510E0
2.498365054E0,-9.332008660E-2,1.045065284E0,9.771091461E0
2.500601504E0,-7.597211748E-2,8.685946465E-1,9.667003632E0
2.502838382E0,-8.733802289E-2,8.057830334E-1,9.838688850E0
2.505074954E0,-6.340979785E-2,8.291130662E-1,9.886545181E0
2.507311526E0,-9.571290761E-2,8.063812256E-1,9.695717812E0
2.509548770E0,-9.032905847E-2,8.733802438E-1,9.681360245E0
2.511784793E0,-8.015955985E-2,9.780662656E-1,9.814760208E0
2.514020205E0,-1.423729509E-1,9.930213690E-1,9.818947792E0
2.516256534E0,-1.417747438E-1,9.553344250E-1,9.695118904E0
2.518492801E0,-1.375873089E-1,9.122636318E-1,9.685547829E0
2.520729129E0,-5.324030295E-2,7.627122402E-1,9.700503349E0
2.522965396E0,-1.112662554E-1,7.591229677E-1,9.704689980E0
2.525202029E0,-4.426721856E-2,7.956135273E-1,9.805787086E0
2.527439639E0,-1.286142170E-1,9.122636318E-1,9.747162819E0
2.529675784E0,-5.982056633E-2,9.451649189E-1,9.628718376E0
2.531911380E0,-1.465603858E-1,9.559326172E-1,9.675976753E0
2.534147403E0,-5.982056633E-2,9.499505758E-1,9.638289452E0
2.536383731E0,-1.333998591E-1,8.315058947E-1,9.595218658E0
2.538620303E0,-7.716853172E-2,7.537391186E-1,9.657432556E0
2.540856814E0,-1.124626622E-1,7.722834945E-1,9.890732765E0
2.543093264E0,-6.879365444E-2,8.524430394E-1,9.962516785E0
2.545330996E0,-1.328016520E-1,9.834501147E-1,9.795019150E0
2.547566775E0,-1.202393398E-1,1.056431174E0,9.575477600E0
2.549802188E0,-1.298106313E-1,9.756734371E-1,9.466006279E0
2.552038211E0,-5.682953820E-2,8.015955687E-1,9.619745255E0
2.554274844E0,-6.400800496E-2,7.908278704E-1,9.876974106E0
2.556511416E0,-2.213360928E-2,7.136593461E-1,9.848857880E0
2.558747744E0,-9.990034252E-2,8.446664214E-1,9.685547829E0
2.560984255E0,-2.093719877E-2,9.924231768E-1,9.629316330E0
2.563221621E0,-8.673982322E-2,1.051047325E0,9.609575272E0
2.565457949E0,-1.674975827E-2,9.493523836E-1,9.634101868E0
2.567692385E0,-1.148554832E-1,8.781659007E-1,9.800403595E0
2.569925723E0,-4.007977992E-2,7.573283911E-1,9.791430473E0
2.572165713E0,-1.196411327E-1,8.165507317E-1,9.714262009E0
2.574402530E0,-3.649054468E-2,9.014959335E-1,9.634101868E0
2.576639712E0,-1.022931710E-1,9.840483069E-1,9.647262573E0
2.578875247E0,-2.392822644E-3,1.006181955E0,9.705288887E0
2.581112918E0,-8.075776696E-2,9.206385016E-1,9.766903877E0
2.583348819E0,-4.187439755E-2,8.542376757E-1,9.595816612E0
2.585584475E0,-8.135596663E-2,7.878368497E-1,9.604789734E0
2.587817324E0,-6.699903309E-2,8.111668825E-1,9.681360245E0
2.590044375E0,-1.046859920E-1,8.309076428E-1,9.619147301E0
2.592293399E0,-8.434699476E-2,9.212366939E-1,9.667003632E0
2.594529910E0,-1.040877849E-1,9.260223508E-1,9.695118904E0
2.596769473E0,-9.332008660E-2,9.643075466E-1,9.675976753E0
2.599004153E0,-9.750752151E-2,9.888339639E-1,9.642477036E0
2.601240176E0,-1.322034448E-1,8.937192559E-1,9.599406242E0
2.603475528E0,-9.511470050E-2,8.452646136E-1,9.633503914E0
2.605711307E0,-9.631111473E-2,8.350951076E-1,9.757332802E0
2.607944888E0,-7.118647546E-2,8.494520187E-1,9.700503349E0
2.610170596E0,-1.124626622E-1,8.937192559E-1,9.542576790E0
2.612413272E0,-8.733802289E-2,9.696913958E-1,9.504291534E0
2.614657412E0,-1.172483116E-1,9.224331379E-1,9.576076508E0
2.616897952E0,-1.046859920E-1,9.164510965E-1,9.762118340E0
2.619132937E0,-1.250249892E-1,8.590233326E-1,9.795019150E0
2.621366397E0,-1.184447184E-1,8.650053740E-1,9.585647583E0
2.623602481E0,-1.076770201E-1,8.937192559E-1,9.494720459E0
2.625838992E0,-9.930214286E-2,8.404789567E-1,9.566504478E0
2.628075381E0,-5.802594870E-2,8.057830334E-1,9.743574142E0
2.630311892E0,-9.571290761E-2,9.110672474E-1,9.876375198E0
2.632548220E0,-1.028913707E-1,9.786644578E-1,9.704689980E0
2.634785830E0,-1.208375469E-1,9.278169870E-1,9.399605751E0
2.637021914E0,-9.690931439E-2,8.943174481E-1,9.390034676E0
2.639257571E0,-4.785645381E-2,7.585247755E-1,9.614959717E0
2.641493533E0,-4.845465720E-2,8.147560954E-1,9.767501831E0
2.643729678E0,-8.075776696E-2,8.494520187E-1,9.700503349E0
2.645966433E0,-1.357926875E-1,9.134600163E-1,9.504291534E0
2.648202761E0,-8.733802289E-2,9.655039310E-1,9.476176262E0
2.650439456E0,-1.022931710E-1,9.649057388E-1,9.595218658E0
2.652676943E0,-9.092725813E-2,8.303094506E-1,9.690931320E0
2.654910098E0,-9.571290761E-2,8.398807645E-1,9.733404160E0
2.657133730E0,-1.004985496E-1,7.878368497E-1,9.609575272E0
2.659372745E0,-8.075776696E-2,7.878368497E-1,9.519247055E0
2.661621036E0,-1.794617064E-2,8.913264275E-1,9.677172661E0
2.663860538E0,-4.606183618E-2,9.822536707E-1,9.757332802E0
2.666096865E0,-4.905286431E-2,1.025922656E0,9.643074989E0
2.668330508E0,-8.673982322E-2,1.031904817E0,9.576076508E0
2.670568057E0,-4.127619043E-2,9.116654396E-1,9.600603104E0
2.672804080E0,-4.785645381E-2,7.962117195E-1,9.672387123E0
2.675039248E0,-1.974078640E-2,8.147560954E-1,9.743574142E0
2.677275577E0,-6.640082598E-2,8.727820516E-1,9.748359680E0
2.679509158E0,-5.982056633E-2,9.308080077E-1,9.609575272E0
2.681736819E0,-9.690931439E-2,1.031904817E0,9.618548393E0
2.683984988E0,-7.417750359E-2,9.403793216E-1,9.638289452E0
2.686221377E0,-9.391828626E-2,8.931210637E-1,9.614361763E0
2.688462161E0,-7.597211748E-2,8.350951076E-1,9.652647018E0
2.690692263E0,-8.614161611E-2,7.639086246E-1,9.609575272E0
2.692918643E0,-8.195417374E-2,7.441678643E-1,9.638289452E0
2.695166385E0,-1.154536903E-1,7.782655358E-1,9.675976753E0
2.697403018E0,-8.494520187E-2,8.877372146E-1,9.647860527E0
2.699642824E0,-8.315058798E-2,9.361918569E-1,9.518648148E0
2.701876162E0,-1.405783296E-1,8.757730722E-1,9.385248184E0
2.704112551E0,-8.554340899E-2,7.974081635E-1,9.566504478E0
2.706350222E0,-1.256231815E-1,7.878368497E-1,9.742975235E0
2.708586123E0,-8.255238086E-2,7.345965505E-1,9.681360245E0
2.710821719E0,-8.075776696E-2,7.974081635E-1,9.562317848E0
2.713057498E0,-4.187439755E-2,8.542376757E-1,9.600603104E0
2.715294131E0,-6.879365444E-2,9.643075466E-1,9.604789734E0
2.717530703E0,-4.426721856E-2,9.834501147E-1,9.562317848E0
2.719767276E0,-7.417750359E-2,9.218349457E-1,9.561718941E0
2.722003604E0,4.785645287E-3,7.674978375E-1,9.596415520E0
2.724241152E0,-1.076770201E-2,7.046862841E-1,9.667601585E0
2.726477176E0,2.273181453E-2,7.094719410E-1,9.649057388E0
2.728712649E0,-2.691925503E-2,9.158528447E-1,9.643673897E0
2.730948916E0,-1.435693540E-2,1.064207911E0,9.567103386E0
2.733185183E0,-8.614161611E-2,1.070189953E0,9.552147865E0
2.735421572E0,2.572284266E-2,9.433703423E-1,9.677172661E0
2.737658084E0,-2.871387079E-2,8.386843204E-1,9.743574142E0
2.739894351E0,8.973085321E-3,7.764709592E-1,9.677172661E0
2.742130862E0,-4.725824669E-2,8.111668825E-1,9.610174179E0
2.744368350E0,-2.751746029E-2,9.326026440E-1,9.138189316E0
2.746603640E0,-1.178465188E-1,1.038485050E0,9.279964447E0
2.748839907E0,-1.256231871E-2,9.535398483E-1,9.681958199E0
2.751076297E0,-1.304088384E-1,8.063812256E-1,9.781260490E0
2.753312686E0,-1.633101404E-1,8.644071817E-1,9.838089943E0
2.755549258E0,-1.812563092E-1,8.889335990E-1,9.704092026E0
2.757785586E0,-1.519442350E-1,8.273184299E-1,9.565906525E0
2.760023440E0,-1.902294010E-1,8.847461939E-1,9.617950439E0
2.762259463E0,-1.477568001E-1,9.260223508E-1,9.823733330E0
2.764494876E0,-9.451649338E-2,9.780662656E-1,9.823733330E0
2.766727847E0,-1.070788130E-1,1.045663476E0,9.742377281E0
2.768955203E0,-7.776673883E-2,1.045663476E0,9.680762291E0
2.771203738E0,-5.982056633E-2,9.499505758E-1,9.595218658E0
2.773440066E0,-1.316052489E-2,9.296116233E-1,9.748359680E0
2.775679751E0,1.794617064E-2,8.327022791E-1,9.868000984E0
2.777913943E0,2.751746029E-2,8.560323119E-1,9.939785004E0
2.780147830E0,3.888336942E-2,9.661021233E-1,9.920642853E0
2.782384463E0,-2.093719877E-2,1.063609719E0,9.734002113E0
2.784621707E0,-3.828516230E-2,1.102493048E0,9.571290970E0
2.786855898E0,-3.948157281E-2,1.021137118E0,9.623932838E0
2.789083315E0,-4.127619043E-2,9.206385016E-1,9.676574707E0
2.791331485E0,-3.948157281E-2,7.339983582E-1,9.701101303E0
2.793567813E0,-6.400800496E-2,6.957131624E-1,9.714859962E0
2.795808352E0,-8.614161611E-2,7.872386575E-1,9.647860527E0
2.798038455E0,-1.112662554E-1,9.559326172E-1,9.475577354E0
2.800265078E0,-1.537388563E-1,9.475577474E-1,9.394221306E0
2.802512881E0,-1.465603858E-1,8.799605370E-1,9.537791252E0
2.804749453E0,-1.208375469E-1,7.304090858E-1,9.699904442E0
2.806988895E0,-1.226321608E-1,6.155536175E-1,9.686145782E0
2.809222049E0,-1.501496136E-1,6.023930907E-1,9.542576790E0
2.811458682E0,-1.417747438E-1,7.848458290E-1,9.423533440E0
2.813693545E0,-1.507478207E-1,9.182456732E-1,9.556335449E0
2.815917910E0,-1.220339537E-1,9.176474810E-1,9.580862045E0
2.818153017E0,-1.274178028E-1,9.266205430E-1,9.661619186E0
2.820391909E0,-9.571290761E-2,8.213363886E-1,9.657432556E0
2.822642946E0,-1.232303679E-1,8.410771489E-1,9.566504478E0
2.824879886E0,-2.333002165E-2,8.344969153E-1,9.629316330E0
2.827116457E0,-7.058826834E-2,8.973084688E-1,9.657432556E0
2.829350161E0,-7.776673418E-3,9.056833982E-1,9.638887405E0
2.831587588E0,-5.503492057E-2,9.924231768E-1,9.700503349E0
2.833823367E0,2.392822644E-3,9.864411354E-1,9.714859962E0
2.836058719E0,-8.374879509E-2,1.011565804E0,9.728618622E0
2.838294803E0,-2.691925503E-2,9.343972206E-1,9.690931320E0
2.840531436E0,-7.118647546E-2,8.775677085E-1,9.752547264E0
2.842768069E0,-1.375873014E-2,8.907282352E-1,9.777072906E0
2.845004580E0,-4.725824669E-2,8.913264275E-1,9.777072906E0
2.847240908E0,-2.333002165E-2,9.433703423E-1,9.848259926E0
2.849478457E0,-5.144568533E-2,9.631111026E-1,9.809974670E0
2.851714480E0,-6.580262631E-2,9.349954724E-1,9.723833084E0
2.853949893E0,-3.649054468E-2,9.631111026E-1,9.757930756E0
2.856182925E0,-8.434699476E-2,9.355936646E-1,9.685547829E0
2.858410281E0,-6.041877344E-2,9.020941257E-1,9.585647583E0
2.860658816E0,-9.032905847E-2,8.494520187E-1,9.662218094E0
2.862895144E0,-5.802594870E-2,8.153542876E-1,9.729216576E0
2.865134829E0,-9.212367237E-2,7.824530005E-1,9.757332802E0
2.867369631E0,-5.204389244E-2,8.919246197E-1,9.734002113E0
2.869605716E0,-1.651047617E-1,8.991031051E-1,9.556335449E0
2.871841067E0,-1.070788130E-1,9.176474810E-1,9.494720459E0
2.874077090E0,-1.184447184E-1,9.122636318E-1,9.695118904E0
2.876313600E0,-7.298108935E-2,7.770691514E-1,9.757930756E0
2.878549990E0,-1.022931710E-1,7.154539824E-1,9.734002113E0
2.880786502E0,-8.195417374E-2,8.201399446E-1,9.786046028E0
2.883022891E0,-8.075776696E-2,9.014959335E-1,9.781260490E0
2.885260745E0,-5.024927482E-2,9.828519225E-1,9.671789169E0
2.887496707E0,-5.443671346E-2,9.972088337E-1,9.652647018E0
2.889731936E0,1.196411322E-3,9.050851464E-1,9.734601021E0
2.891968142E0,4.187439568E-3,8.285148144E-1,9.791430473E0
2.894204471E0,1.734796353E-2,7.471588850E-1,9.787242889E0
2.896441104E0,1.974078640E-2,8.715856671E-1,9.748957634E0
2.898677432E0,3.589234129E-2,1.009771109E0,9.725028992E0
2.900914248E0,-1.794616925E-3,1.058225870E0,9.724431038E0
2.903151553E0,1.076770201E-2,9.714859724E-1,9.844072342E0
2.905387698E0,1.914258115E-2,9.894321561E-1,1.003011417E1
2.907623172E0,3.589233849E-3,8.470591903E-1,9.882357597E0
2.909859073E0,-6.161518395E-2,8.632107973E-1,9.676574707E0
2.912095645E0,-1.375873014E-2,8.769695163E-1,9.710672379E0
2.914332156E0,-4.247260094E-2,9.104689956E-1,9.791430473E0
2.916568545E0,-0.000000000E0,9.188438654E-1,9.915258408E0
2.918805117E0,-8.195417374E-2,9.200403094E-1,9.948160172E0
2.921042605E0,-4.725824669E-2,9.056833982E-1,9.767501831E0
2.923278506E0,-1.130608693E-1,9.026923180E-1,9.619147301E0
2.925514102E0,-1.130608693E-1,8.841479421E-1,9.556933403E0
2.927750125E0,-1.250249892E-1,8.021938205E-1,9.704689980E0
2.929986575E0,-7.298108935E-2,8.482556343E-1,9.900901794E0
2.932223330E0,-1.495514214E-1,8.590233326E-1,9.890133858E0
2.934459597E0,-1.381855011E-1,8.787640929E-1,9.699904442E0
2.936696047E0,-1.363908947E-1,9.559326172E-1,9.628120422E0
2.938933718E0,-1.268195957E-1,9.415757060E-1,9.618548393E0
2.941169558E0,-1.238285750E-1,8.739784956E-1,9.719047546E0
2.943402041E0,-1.250249892E-1,8.638089895E-1,9.833304405E0
2.945629275E0,-1.214357466E-1,7.866404653E-1,9.876375198E0
2.947876711E0,-7.298108935E-2,7.962117195E-1,9.833903313E0
2.950110537E0,-3.409772366E-2,8.524430394E-1,9.867402077E0
2.952353458E0,-7.597211748E-2,9.206385016E-1,9.814760208E0
2.954587100E0,-5.503492057E-2,1.021137118E0,9.742975235E0
2.956825565E0,-8.853443712E-2,1.002592683E0,9.719047546E0
2.959060794E0,-2.452643216E-2,8.434699774E-1,9.786644936E0
2.961296328E0,-1.674975827E-2,8.039883971E-1,9.953543663E0
2.963532168E0,1.136590727E-2,8.177471161E-1,1.004447079E1
2.965768741E0,-3.349951655E-2,9.002995491E-1,9.867402077E0
2.968002261E0,7.776673418E-3,1.005583763E0,9.696315765E0
2.970229678E0,-7.357929647E-2,9.978070259E-1,9.667003632E0
2.972478213E0,-5.623133108E-2,9.583254457E-1,9.776474953E0
2.974715762E0,-3.888336942E-2,9.098708034E-1,9.953543663E0
2.976954836E0,-9.332008660E-2,7.860422134E-1,9.957731247E0
2.979187258E0,-8.315058798E-2,7.914260626E-1,9.867402077E0
2.981423526E0,-9.092725813E-2,8.775677085E-1,9.809974670E0
2.983659793E0,-1.190429255E-1,9.355936646E-1,9.799804688E0
2.985896182E0,-1.471585929E-1,1.007378340E0,9.861420631E0
2.988132632E0,-1.034895778E-1,1.082752228E0,9.937990189E0
2.990369082E0,-1.722832322E-1,8.979067206E-1,9.832706451E0
2.992606875E0,-9.690931439E-2,7.770691514E-1,9.800403595E0
2.994842715E0,-1.040877849E-1,7.286145091E-1,9.957731247E0
2.997078372E0,-8.913264424E-2,7.525427341E-1,9.920044899E0
2.999314395E0,-1.244267747E-1,8.446664214E-1,9.757332802E0
3.001550967E0,-8.973085135E-2,9.403793216E-1,9.733404160E0
3.003787295E0,-1.088734269E-1,8.925228715E-1,9.704689980E0
3.006023867E0,-1.058823988E-1,8.775677085E-1,9.881160736E0
3.008260379E0,-1.160518974E-1,8.913264275E-1,9.971489906E0
3.010497744E0,-1.262213886E-1,8.057830334E-1,9.885947227E0
3.012733828E0,-9.990034252E-2,9.062815905E-1,9.805189133E0
3.014969363E0,-8.075776696E-2,8.823533654E-1,9.747760773E0
3.017205325E0,-8.135596663E-2,8.584251404E-1,9.776474953E0
3.019442080E0,-4.007977992E-2,8.189435601E-1,9.905687332E0
3.021674074E0,-4.965107143E-2,8.189435601E-1,9.920044899E0
3.023895450E0,-7.238288224E-2,8.392825127E-1,9.829116821E0
3.026142459E0,-1.136590764E-1,9.170492887E-1,9.695118904E0
3.028388797E0,-1.040877849E-1,8.877372146E-1,9.690333366E0
3.030628969E0,-7.716853172E-2,8.392825127E-1,9.795618057E0
3.032862490E0,-4.067798331E-2,7.902296782E-1,9.915258408E0
3.035096377E0,-9.810572863E-2,8.099704385E-1,9.996016502E0
3.037333011E0,-6.281159073E-2,8.913264275E-1,9.900901794E0
3.039569522E0,-1.082752272E-1,9.882357717E-1,9.742975235E0
3.041805850E0,-9.332008660E-2,9.690931439E-1,9.647262573E0
3.044042422E0,-8.135596663E-2,8.638089895E-1,9.733404160E0
3.046279910E0,-4.546362907E-2,7.567301393E-1,9.910472870E0
3.048515811E0,-7.178468257E-2,6.610172391E-1,9.996614456E0
3.050751406E0,-5.563312769E-2,7.663014531E-1,9.943972588E0
3.052987491E0,-8.075776696E-2,9.206385016E-1,9.800403595E0
3.055224063E0,-9.212367237E-2,1.079162955E0,9.738189697E0
3.057460391E0,-1.016949639E-1,1.093519926E0,9.766305923E0
3.059696963E0,-1.160518974E-1,8.679963946E-1,9.890732765E0
3.061933474E0,-6.640082598E-2,7.280163169E-1,1.004865837E1
3.064170840E0,-4.785645381E-2,6.891329288E-1,1.008694363E1
3.066406863E0,-3.529413417E-2,7.710871100E-1,9.872786522E0
3.068642215E0,-3.170489892E-2,9.487541914E-1,9.734002113E0
3.070878360E0,-4.486542568E-2,1.044467092E0,9.733404160E0
3.073114932E0,-4.127619043E-2,1.043868899E0,9.881759644E0
3.075351565E0,-8.195417374E-2,9.337990284E-1,9.986445427E0
3.077588137E0,-5.982056633E-2,8.141579032E-1,9.996016502E0
3.079824710E0,-7.298108935E-2,8.434699774E-1,9.919445992E0
3.082062258E0,-6.221338734E-2,8.913264275E-1,9.829116821E0
3.084298220E0,-8.075776696E-2,9.391828775E-1,9.852447510E0
3.086533328E0,-9.152546525E-2,9.343972206E-1,9.972088814E0
3.088769412E0,-1.208375469E-1,9.343972206E-1,1.004806042E1
3.091005984E0,-1.250249892E-1,9.445667267E-1,9.952347755E0
3.093242556E0,-1.621137410E-1,8.985049129E-1,9.713663101E0
3.095478701E0,-1.519442350E-1,9.032905698E-1,9.689735413E0
3.097715518E0,-1.064806059E-1,8.632107973E-1,9.890732765E0
3.099950075E0,-9.391828626E-2,8.093722463E-1,1.004806042E1
3.102177310E0,-1.417747438E-1,8.153542876E-1,1.005284595E1
3.104424685E0,-8.673982322E-2,9.296116233E-1,9.957731247E0
3.106656985E0,-1.417747438E-1,9.888339639E-1,9.737591743E0
3.108886721E0,-1.220339537E-1,9.888339639E-1,9.680762291E0
3.111130618E0,-1.106680483E-1,9.302098155E-1,9.938589096E0
3.113357852E0,-6.520441920E-2,8.327022791E-1,1.009172916E1
3.115609744E0,-8.973085135E-2,7.286145091E-1,9.967302322E0
3.117842654E0,-8.733802289E-2,8.434699774E-1,9.890732765E0
3.120074160E0,-8.015955985E-2,9.972088337E-1,9.823733330E0
3.122303469E0,-7.298108935E-2,1.130608678E0,9.804591179E0
3.124551639E0,-1.214357466E-1,1.098305583E0,9.818947792E0
3.126786502E0,-8.733802289E-2,8.578268886E-1,9.909874916E0
3.129015689E0,-6.101697683E-2,7.752745152E-1,1.008694363E1
3.131261111E0,-6.520441920E-2,7.519445419E-1,9.981659889E0
3.133497500E0,-9.212367237E-2,7.393822074E-1,9.719645500E0
3.135738040E0,-5.084748194E-2,9.110672474E-1,9.667003632E0
3.137968142E0,-7.058826834E-2,9.726824164E-1,9.824331284E0
3.140194766E0,-7.716853172E-2,9.296116233E-1,9.938589096E0
3.142442630E0,-6.819544733E-2,9.146564603E-1,1.001994514E1
3.144679385E0,-8.374879509E-2,8.051848412E-1,9.976874352E0
3.146915652E0,-5.443671346E-2,7.812566161E-1,9.848259926E0
3.149140139E0,-4.366901144E-2,8.673982024E-1,9.829116821E0
3.151388797E0,-4.845465720E-2,8.530412912E-1,9.848259926E0
3.153623232E0,4.187439568E-3,9.092726111E-1,9.920044899E0
3.155850589E0,-1.016949583E-2,9.565308690E-1,1.000139999E1
3.158082888E0,-3.349951655E-2,8.955138922E-1,9.843474388E0
3.160321902E0,-2.811566554E-2,8.721838593E-1,9.743574142E0
3.162572939E0,-3.349951655E-2,8.907282352E-1,9.838688850E0
3.164809756E0,-3.469592705E-2,8.333004713E-1,9.886545181E0
3.167046085E0,-4.486542568E-2,8.620143533E-1,9.981659889E0
3.169279788E0,-8.853443712E-2,8.291130662E-1,9.996016502E0
3.171517214E0,-1.010967568E-1,8.871390224E-1,9.919445992E0
3.173753176E0,-1.339980662E-1,9.732806087E-1,9.966704369E0
3.175988955E0,-1.668993831E-1,9.978070259E-1,9.937392235E0
3.178224795E0,-1.573280841E-1,9.547362328E-1,9.885348320E0
3.180461368E0,-1.160518974E-1,8.775677085E-1,9.914660454E0
3.182697635E0,-1.226321608E-1,7.579265833E-1,9.929018021E0
3.184934268E0,-9.032905847E-2,6.664010882E-1,9.976874352E0
3.187170840E0,-9.391828626E-2,8.476574421E-1,1.012463093E1
3.189405398E0,-9.990034252E-2,1.034895778E0,9.995418549E0
3.191629214E0,-1.166501045E-1,1.093519926E0,9.771091461E0
3.193867556E0,-1.501496136E-1,1.036690354E0,9.689735413E0
3.196115603E0,-9.212367237E-2,8.578268886E-1,9.924231529E0
3.198355288E0,-1.238285750E-1,7.950153351E-1,1.017667484E1
3.200592044E0,-8.135596663E-2,7.465606928E-1,1.016770172E1
3.202825137E0,-1.160518974E-1,8.823533654E-1,9.957731247E0
3.205061770E0,-8.853443712E-2,1.035493970E0,9.747760773E0
3.207299441E0,-1.160518974E-1,1.055832982E0,9.690333366E0
3.209535342E0,-8.434699476E-2,1.034895778E0,9.876375198E0
3.211770694E0,-1.220339537E-1,8.530412912E-1,1.008634567E1
3.214006717E0,-1.088734269E-1,7.764709592E-1,1.006241703E1
3.216243350E0,-1.423729509E-1,7.250252366E-1,9.938589096E0
3.218479922E0,-1.112662554E-1,8.201399446E-1,9.857233047E0
3.220716250E0,-1.274178028E-1,9.930213690E-1,9.799804688E0
3.222952883E0,-1.698904037E-1,1.041476011E0,9.799206734E0
3.225190615E0,-1.381855011E-1,9.786644578E-1,9.866206169E0
3.227426455E0,-1.316052526E-1,8.201399446E-1,9.971489906E0
3.229661868E0,-1.232303679E-1,7.292127013E-1,9.962516785E0
3.231897707E0,-9.810572863E-2,7.202396393E-1,9.805189133E0
3.234132998E0,-1.100698411E-1,8.398807645E-1,9.709476471E0
3.236371096E0,-8.075776696E-2,8.925228715E-1,9.719047546E0
3.238607608E0,-5.682953820E-2,9.296116233E-1,9.848259926E0
3.240844485E0,-4.905286431E-2,8.955138922E-1,9.991230965E0
3.243081240E0,-5.443671346E-2,8.237292171E-1,9.929615974E0
3.245317508E0,-6.759724021E-2,8.578268886E-1,9.829116821E0
3.247552859E0,-3.768695518E-2,9.104689956E-1,9.786644936E0
3.249789004E0,-3.349951655E-2,8.530412912E-1,9.719645500E0
3.252025271E0,4.127619043E-2,7.890332937E-1,9.901499748E0
3.254261905E0,1.076770201E-2,7.692924738E-1,1.009232807E1
3.256498416E0,-7.178467698E-3,8.416753411E-1,1.006361389E1
3.258734866E0,-4.666004330E-2,9.774680734E-1,9.843474388E0
3.260972598E0,-1.256231871E-2,9.535398483E-1,9.695717812E0
3.263208438E0,-4.187439755E-2,9.014959335E-1,9.695717812E0
3.265444094E0,1.316052489E-2,8.039883971E-1,9.834501266E0
3.267680057E0,-3.768695518E-2,7.034898400E-1,1.000139999E1
3.269916507E0,-2.871387079E-2,6.652047038E-1,1.001575756E1
3.272153323E0,-4.426721856E-2,8.763712645E-1,9.939187050E0
3.274389834E0,-7.956135273E-2,9.595218897E-1,9.704689980E0
3.276623171E0,-1.399801224E-1,9.990034699E-1,9.570692062E0
3.278849368E0,-7.537391037E-2,9.349954724E-1,9.771689415E0
3.281091128E0,-1.363908947E-1,7.914260626E-1,9.929018021E0
3.283334842E0,-9.571290761E-2,6.424728632E-1,9.939187050E0
3.285573977E0,-1.250249892E-1,6.520441771E-1,1.003430176E1
3.287809634E0,-1.118644550E-1,8.297112584E-1,9.948160172E0
3.290044131E0,-1.034895778E-1,9.882357717E-1,9.742975235E0
3.292280459E0,-1.160518974E-1,1.088734269E0,9.723235130E0
3.294517031E0,-8.075776696E-2,9.062815905E-1,9.757332802E0
3.296754580E0,-8.853443712E-2,7.573283911E-1,9.896116257E0
3.298990664E0,-5.802594870E-2,6.466603279E-1,1.003011417E1
3.301226016E0,-8.913264424E-2,7.196413875E-1,9.900901794E0
3.303462100E0,-4.307080805E-2,8.530412912E-1,9.743574142E0
3.305698672E0,-7.417750359E-2,9.876375198E-1,9.714262009E0
3.307932253E0,-5.563312769E-2,9.966106415E-1,9.805189133E0
3.310159610E0,-8.733802289E-2,8.817551732E-1,9.952945709E0
3.312405215E0,-6.460621208E-2,7.950153351E-1,9.953543663E0
3.314630984E0,-8.853443712E-2,7.435696125E-1,9.853045464E0
3.316870669E0,-7.178468257E-2,8.727820516E-1,9.771689415E0
3.319108584E0,-1.004985496E-1,8.446664214E-1,9.709476471E0
3.321356081E0,-2.871387079E-2,8.769695163E-1,9.796216011E0
3.323592470E0,-7.298108935E-2,8.769695163E-1,9.909874916E0
3.325828250E0,-5.742774159E-2,8.961120844E-1,9.848259926E0
3.328062686E0,-1.004985496E-1,8.494520187E-1,9.714262009E0
3.330299319E0,-9.990034252E-2,8.829515576E-1,9.690333366E0
3.332536807E0,-1.238285750E-1,8.500502706E-1,9.666405678E0
3.334772647E0,-8.255238086E-2,7.674978375E-1,9.781260490E0
3.337008242E0,-9.391828626E-2,7.621139884E-1,9.948160172E0
3.339244205E0,-1.076770201E-1,7.627122402E-1,9.885947227E0
3.341480411E0,-1.429711580E-1,9.074779749E-1,9.775876999E0
3.343717227E0,-1.214357466E-1,1.027119160E0,9.647262573E0
3.345953738E0,-1.495514214E-1,9.990034699E-1,9.570692062E0
3.348190188E0,-7.716853172E-2,8.440681696E-1,9.790832520E0
3.350427676E0,-8.075776696E-2,7.136593461E-1,1.004865837E1
3.352663699E0,-4.785645381E-2,6.466603279E-1,1.002054310E1
3.354894717E0,-7.298108935E-2,8.147560954E-1,9.862616539E0
3.357116763E0,-3.649054468E-2,9.541380405E-1,9.695717812E0
3.359368350E0,-6.281159073E-2,1.036092162E0,9.576076508E0
3.361608279E0,-1.674975827E-2,9.966106415E-1,9.724431038E0
3.363848818E0,-7.716853172E-2,9.008977413E-1,9.938589096E0
3.366082155E0,-3.649054468E-2,7.567301393E-1,9.953543663E0
3.368319033E0,-4.546362907E-2,7.381857634E-1,9.867402077E0
3.370554995E0,-5.383851007E-3,8.051848412E-1,9.734601021E0
3.372790530E0,-4.187439755E-2,9.248259664E-1,9.738788605E0
3.375026492E0,-2.213360928E-2,1.024726272E0,9.809974670E0
3.377262820E0,-5.264209956E-2,9.104689956E-1,9.881759644E0
3.379499148E0,-3.948157281E-2,8.668000102E-1,9.910472870E0
3.381735659E0,-6.819544733E-2,8.386843204E-1,9.857831001E0
3.383972109E0,-8.614161611E-2,8.255237937E-1,9.676574707E0
3.386209963E0,-0.000000000E0,8.291130662E-1,9.725028992E0
3.388445987E0,-5.383851007E-3,8.763712645E-1,9.868000984E0
3.390681399E0,-1.076770201E-2,8.566305041E-1,9.924830437E0
3.392917361E0,-5.802594870E-2,8.721838593E-1,9.900901794E0
3.395153750E0,-4.247260094E-2,9.439685345E-1,9.824331284E0
3.397390567E0,-3.230310604E-2,9.062815905E-1,9.700503349E0
3.399627139E0,-7.357929647E-2,9.643075466E-1,9.595218658E0
3.401864443E0,-2.751746029E-2,8.488538265E-1,9.595816612E0
3.404100711E0,-8.255238086E-2,7.585247755E-1,9.734002113E0
3.406336795E0,-1.256231871E-2,7.369893789E-1,9.915857315E0
3.408571963E0,-9.272187948E-2,8.201399446E-1,9.890732765E0
3.410808536E0,-1.172483116E-1,9.409775138E-1,9.623334885E0
3.413044864E0,-1.387837082E-1,1.051645517E0,9.527621269E0
3.415281436E0,-1.549352705E-1,9.708877802E-1,9.556335449E0
3.417517703E0,-1.351944804E-1,7.543373108E-1,9.723833084E0
3.419754336E0,-1.094716340E-1,6.717849374E-1,9.929018021E0
3.421991885E0,-1.238285750E-1,7.004988194E-1,9.981659889E0
3.424228030E0,-9.571290761E-2,8.877372146E-1,9.771689415E0
3.426463565E0,-9.092725813E-2,1.070189953E0,9.504291534E0
3.428699405E0,-9.990034252E-2,1.094716311E0,9.485149384E0
3.430935977E0,-5.024927482E-2,9.684949517E-1,9.662218094E0
3.433172488E0,-3.589234129E-2,7.854440212E-1,9.934401512E0
3.435408877E0,-1.974078640E-2,5.796613097E-1,9.920642853E0
3.437645510E0,-5.503492057E-2,7.525427341E-1,9.838688850E0
3.439883242E0,6.580262445E-3,9.768698215E-1,9.734002113E0
3.442116030E0,-8.554340899E-2,1.094118118E0,9.523433685E0
3.444342227E0,-1.435693540E-2,1.097109199E0,9.623932838E0
3.446590396E0,-3.708875179E-2,1.000798106E0,9.896116257E0
3.448826846E0,-4.486542568E-2,8.237292171E-1,9.915258408E0
3.451066713E0,-3.589234129E-2,7.046862841E-1,9.796216011E0
3.453299990E0,1.256231871E-2,7.567301393E-1,9.777671814E0
3.455536624E0,-1.435693540E-2,9.002995491E-1,9.820143700E0
3.457774050E0,-1.136590727E-2,1.020538807E0,9.714859962E0
3.460009951E0,-6.819544733E-2,1.036092162E0,9.619147301E0
3.462245608E0,-5.084748194E-2,9.349954724E-1,9.700503349E0
3.464481875E0,-5.742774159E-2,9.056833982E-1,9.824331284E0
3.466715273E0,-4.845465720E-2,8.249256015E-1,9.757930756E0
3.468942813E0,-9.092725813E-2,7.830511928E-1,9.628718376E0
3.471191043E0,-2.871387079E-2,8.201399446E-1,9.662816048E0
3.473427676E0,-6.819544733E-2,7.866404653E-1,9.748359680E0
3.475668216E0,-4.905286431E-2,7.674978375E-1,9.734002113E0
3.477900027E0,-7.118647546E-2,8.679963946E-1,9.733404160E0
3.480131533E0,-6.520441920E-2,8.739784956E-1,9.538389206E0
3.482372684E0,-1.268195957E-1,8.512466550E-1,9.404391289E0
3.484609012E0,-8.015955985E-2,8.739784956E-1,9.604789734E0
3.486843936E0,-8.853443712E-2,7.058826685E-1,9.757930756E0
3.489070254E0,-3.589234129E-2,7.375875711E-1,9.868000984E0
3.491318850E0,-6.340979785E-2,8.003991842E-1,9.838688850E0
3.493556338E0,-6.999006122E-2,8.883354068E-1,9.562317848E0
3.495795108E0,-8.195417374E-2,1.027119160E0,9.523433685E0
3.498024600E0,-4.905286431E-2,9.786644578E-1,9.552745819E0
3.500252078E0,-9.032905847E-2,8.638089895E-1,9.676574707E0
3.502500186E0,-1.674975827E-2,7.184450030E-1,9.839286804E0
3.504736819E0,-4.666004330E-2,6.759724021E-1,9.868000984E0
3.506976198E0,-5.324030295E-2,8.057830334E-1,9.772287369E0
3.509209719E0,-3.529413417E-2,1.001994491E0,9.638289452E0
3.511447451E0,-7.118647546E-2,1.117448211E0,9.566504478E0
3.513683230E0,-3.529413417E-2,9.972088337E-1,9.609575272E0
3.515918643E0,-6.101697683E-2,9.206385016E-1,9.762118340E0
3.518154605E0,-2.691925503E-2,6.993024349E-1,9.877572060E0
3.520388003E0,-8.315058798E-2,7.106683254E-1,9.729216576E0
3.522612673E0,-3.708875179E-2,8.919246197E-1,9.643673897E0
3.524852237E0,-9.272187948E-2,9.409775138E-1,9.528220177E0
3.527100833E0,-5.862415582E-2,9.786644578E-1,9.547960281E0
3.529341372E0,-9.511470050E-2,9.302098155E-1,9.809376717E0
3.531577395E0,-5.383851007E-2,8.386843204E-1,9.867402077E0
3.533809756E0,-1.244267747E-1,8.261220455E-1,9.709476471E0
3.536045840E0,-9.391828626E-2,8.739784956E-1,9.580862045E0
3.538282412E0,-9.332008660E-2,9.170492887E-1,9.576076508E0
3.540518985E0,-2.811566554E-2,8.817551732E-1,9.719645500E0
3.542755252E0,-4.845465720E-2,8.530412912E-1,9.853045464E0
3.544991641E0,-5.982056726E-3,8.327022791E-1,9.887143135E0
3.547229373E0,-3.768695518E-2,8.817551732E-1,9.729216576E0
3.549465274E0,2.392822644E-3,8.967102766E-1,9.515059471E0
3.551700930E0,-2.153540403E-2,8.871390224E-1,9.552745819E0
3.553936953E0,1.974078640E-2,8.811569214E-1,9.710672379E0
3.556173526E0,2.273181453E-2,8.279166222E-1,9.863214493E0
3.558406924E0,3.589233849E-3,8.374879360E-1,9.906285286E0
3.560634646E0,-5.982056609E-4,8.237292171E-1,9.820143700E0
3.562882754E0,-7.776673418E-3,9.535398483E-1,9.681958199E0
3.565119204E0,-1.196411345E-2,9.541380405E-1,9.605388641E0
3.567353946E0,-5.024927482E-2,9.260223508E-1,9.604789734E0
3.569591983E0,-2.452643216E-2,7.722834945E-1,9.686744690E0
3.571827762E0,-4.486542568E-2,7.196413875E-1,9.738788605E0
3.574065737E0,-3.469592705E-2,7.477570772E-1,9.748359680E0
3.576300967E0,-5.264209956E-2,7.920243144E-1,9.610174179E0
3.578537600E0,-9.332008660E-2,9.080761671E-1,9.509077072E0
3.580774111E0,-9.750752151E-2,9.840483069E-1,9.590433121E0
3.583011416E0,-1.226321608E-1,9.218349457E-1,9.613762856E0
3.585247439E0,-1.489532143E-1,8.117650747E-1,9.719047546E0
3.587482852E0,-9.810572863E-2,7.148557901E-1,9.814760208E0
3.589719180E0,-1.082752272E-1,6.771687865E-1,9.771689415E0
3.591955508E0,-1.016949639E-1,7.633104324E-1,9.700503349E0
3.594192141E0,-1.034895778E-1,9.074779749E-1,9.619147301E0
3.596428592E0,-9.631111473E-2,1.051047325E0,9.589835167E0
3.598664981E0,-1.022931710E-1,9.984052777E-1,9.623334885E0
3.600902529E0,-8.015955985E-2,9.254241586E-1,9.738189697E0
3.603138553E0,-5.982056633E-2,7.908278704E-1,9.910472870E0
3.605373904E0,-5.922235921E-2,7.860422134E-1,9.853045464E0
3.607609744E0,-5.204389244E-2,8.871390224E-1,9.724431038E0
3.609843508E0,-8.913264424E-2,9.218349457E-1,9.609575272E0
3.612071658E0,-4.127619043E-2,9.302098155E-1,9.657432556E0
3.614319339E0,-7.537391037E-2,9.870393276E-1,9.862018585E0
3.616556155E0,-6.640082598E-2,9.349954724E-1,9.795618057E0
3.618796512E0,-1.142572835E-1,8.500502706E-1,9.628718376E0
3.621029727E0,-7.058826834E-2,9.158528447E-1,9.719047546E0
3.623264834E0,-8.195417374E-2,8.057830334E-1,9.766903877E0
3.625501223E0,-9.092725813E-2,8.303094506E-1,9.738189697E0
3.627737979E0,-4.785645381E-2,8.865407705E-1,9.795618057E0
3.629974368E0,-6.101697683E-2,9.445667267E-1,9.776474953E0
3.632210574E0,-7.537391037E-2,8.829515576E-1,9.633503914E0
3.634446902E0,-7.058826834E-2,8.398807645E-1,9.609575272E0
3.636684695E0,-5.264209956E-2,8.344969153E-1,9.710074425E0
3.638920596E0,-4.785645287E-3,8.291130662E-1,9.715457916E0
3.641156253E0,-5.682953820E-2,8.303094506E-1,9.614959717E0
3.643392215E0,-4.785645381E-2,8.344969153E-1,9.729216576E0
3.645628665E0,-1.914258115E-2,9.146564603E-1,9.862616539E0
3.647864565E0,-3.768695518E-2,9.529415965E-1,9.862616539E0
3.650098269E0,-4.606183618E-2,9.541380405E-1,9.734002113E0
3.652335207E0,-4.247260094E-2,8.727820516E-1,9.681360245E0
3.654561159E0,-0.000000000E0,8.524430394E-1,9.772287369E0
3.656797915E0,-2.033899166E-2,7.716853023E-1,9.762716293E0
3.659035647E0,-1.016949583E-2,8.291130662E-1,9.757930756E0
3.661286257E0,-1.375873014E-2,8.817551732E-1,9.729216576E0
3.663522646E0,-2.751746029E-2,9.200403094E-1,9.705288887E0
3.665759157E0,-5.503492057E-2,9.972088337E-1,9.719047546E0
3.667989626E0,-8.434699476E-2,9.499505758E-1,9.675976753E0
3.670217471E0,-1.190429255E-1,8.787640929E-1,9.714262009E0
3.672466738E0,-7.776673883E-2,8.009973764E-1,9.786046028E0
3.674702883E0,-1.016949639E-1,7.728816867E-1,9.752547264E0
3.676941347E0,-1.154536903E-1,7.878368497E-1,9.699904442E0
3.679174258E0,-1.094716340E-1,8.638089895E-1,9.704689980E0
3.681410830E0,-1.280160099E-1,9.409775138E-1,9.742377281E0
3.683647342E0,-1.124626622E-1,9.786644578E-1,9.704689980E0
3.685883731E0,-1.369891018E-1,9.080761671E-1,9.632905960E0
3.688120303E0,-1.244267747E-1,8.644071817E-1,9.733404160E0
3.690357791E0,-7.298108935E-2,7.962117195E-1,9.786046028E0
3.692593692E0,-1.256231815E-1,8.255237937E-1,9.862018585E0
3.694829287E0,-6.819544733E-2,8.482556343E-1,9.857831001E0
3.697065371E0,-8.973085135E-2,1.015753269E0,9.876375198E0
3.699299014E0,-9.212367237E-2,1.112064362E0,9.751948357E0
3.701526553E0,-1.214357466E-1,9.846464992E-1,9.570692062E0
3.703774783E0,-5.503492057E-2,9.493523836E-1,9.662218094E0
3.706011172E0,-5.862415582E-2,8.195417523E-1,9.853045464E0
3.708251956E0,-3.050848842E-2,7.710871100E-1,9.844072342E0
3.710485110E0,-7.776673883E-2,8.105686903E-1,9.824331284E0
3.712720645E0,-4.785645381E-2,9.248259664E-1,9.848259926E0
3.714956241E0,-8.853443712E-2,1.012163997E0,9.723833084E0
3.717192996E0,-6.281159073E-2,1.021735311E0,9.561718941E0
3.719429324E0,-1.034895778E-1,8.883354068E-1,9.590433121E0
3.721665957E0,-4.366901144E-2,8.195417523E-1,9.767501831E0
3.723902224E0,-3.529413417E-2,7.764709592E-1,9.820143700E0
3.726139834E0,-3.948157281E-2,7.573283911E-1,9.748359680E0
3.728375857E0,-4.247260094E-2,8.536394835E-1,9.714859962E0
3.730611270E0,1.196411322E-3,9.146564603E-1,9.720243454E0
3.732847293E0,-9.810572863E-2,1.012163997E0,9.709476471E0
3.735083682E0,-3.170489892E-2,9.254241586E-1,9.643673897E0
3.737320498E0,-8.075776696E-2,8.733802438E-1,9.705288887E0
3.739556826E0,-3.469592705E-2,7.621139884E-1,9.753145218E0
3.741793460E0,-6.340979785E-2,7.962117195E-1,9.805189133E0
3.744030947E0,-2.512463741E-2,8.380861282E-1,9.853643417E0
3.746267092E0,-6.640082598E-2,9.302098155E-1,9.795618057E0
3.748502627E0,-2.691925503E-2,9.774680734E-1,9.753145218E0
3.750738467E0,-8.913264424E-2,9.499505758E-1,9.723833084E0
3.752975039E0,-3.349951655E-2,8.530412912E-1,9.748359680E0
3.755211612E0,-4.845465720E-2,8.530412912E-1,9.838688850E0
3.757446353E0,-2.991028316E-2,7.812566161E-1,9.757930756E0
3.759677188E0,-6.281159073E-2,7.962117195E-1,9.719645500E0
3.761922061E0,-2.931207791E-2,8.291130662E-1,9.824930191E0
3.764158084E0,-8.075776696E-2,9.631111026E-1,9.866804123E0
3.766395388E0,-8.315058798E-2,1.054636598E0,9.719047546E0
3.768629764E0,-1.310070455E-1,9.702895880E-1,9.608977318E0
3.770865909E0,-1.034895778E-1,8.787640929E-1,9.604789734E0
3.773102786E0,-9.750752151E-2,7.866404653E-1,9.853045464E0
3.775336245E0,-1.405783296E-1,7.633104324E-1,9.818947792E0
3.777563723E0,-1.304088384E-1,7.974081635E-1,9.762118340E0
3.779813174E0,-1.381855011E-1,8.979067206E-1,9.714262009E0
3.782049136E0,-1.220339537E-1,9.840483069E-1,9.661619186E0
3.784287356E0,-1.657029688E-1,9.655039310E-1,9.689735413E0
3.786520694E0,-1.525424421E-1,9.074779749E-1,9.761520386E0
3.788757266E0,-1.591227055E-1,8.404789567E-1,9.852447510E0
3.790993899E0,-9.750752151E-2,7.962117195E-1,9.900303841E0
3.793230166E0,-1.447657645E-1,8.255237937E-1,9.828518867E0
3.795466738E0,-8.673982322E-2,8.961120844E-1,9.881160736E0
3.797704226E0,-1.184447184E-1,1.001994491E0,9.899705887E0
3.799937075E0,-1.130608693E-1,9.978070259E-1,9.785448074E0
3.802163516E0,-1.232303679E-1,9.451649189E-1,9.756733894E0
3.804411746E0,-1.190429255E-1,8.691928387E-1,9.723833084E0
3.806643679E0,-1.100698411E-1,8.303094506E-1,9.709476471E0
3.808869875E0,-8.673982322E-2,8.344969153E-1,9.805189133E0
3.811118105E0,-1.058823988E-1,8.350951076E-1,9.786046028E0
3.813344546E0,-9.571290761E-2,8.919246197E-1,9.800403595E0
3.815590274E0,-8.494520187E-2,9.684949517E-1,9.776474953E0
3.817821109E0,-9.391828626E-2,9.308080077E-1,9.647860527E0
3.820075442E0,-1.088734269E-1,9.116654396E-1,9.695118904E0
3.822298891E0,-5.324030295E-2,8.673982024E-1,9.843474388E0
3.824542238E0,-7.357929647E-2,7.674978375E-1,9.838688850E0
3.826771060E0,1.196411345E-2,7.322037220E-1,9.844670296E0
3.829001773E0,-1.136590727E-2,8.141579032E-1,9.882357597E0
3.831248721E0,4.307080805E-2,8.805587292E-1,9.787242889E0
3.833486270E0,-1.196411345E-2,1.029511929E0,9.762716293E0
3.835725344E0,1.196411322E-3,9.672985673E-1,9.791430473E0
3.837955019E0,-8.973085321E-3,9.194421172E-1,9.829715729E0
3.840182010E0,2.751746029E-2,8.512466550E-1,9.911071777E0
3.842430057E0,-2.452643216E-2,8.147560954E-1,9.796216011E0
3.844666690E0,2.392822690E-2,7.950153351E-1,9.686744690E0
3.846903445E0,-1.495514158E-2,8.620143533E-1,9.829715729E0
3.849127993E0,-4.785645287E-3,9.044869542E-1,9.886545181E0
3.851377749E0,-7.597211748E-2,9.110672474E-1,9.781260490E0
3.853613833E0,-9.930214286E-2,9.116654396E-1,9.690333366E0
3.855848574E0,-1.142572835E-1,8.691928387E-1,9.690333366E0
3.858065921E0,-1.286142170E-1,8.644071817E-1,9.704689980E0
3.860309207E0,-1.112662554E-1,7.824530005E-1,9.733404160E0
3.862557864E0,-1.316052526E-1,7.537391186E-1,9.838089943E0
3.864798342E0,-8.853443712E-2,8.291130662E-1,9.976874352E0
3.867033999E0,-1.627119333E-1,9.499505758E-1,9.885348320E0
3.869268435E0,-1.280160099E-1,9.218349457E-1,9.690333366E0
3.871504336E0,-1.938186288E-1,9.661021233E-1,9.627521515E0
3.873739932E0,-1.627119333E-1,8.602197170E-1,9.737591743E0
3.875976016E0,-1.645065546E-1,7.830511928E-1,9.847661972E0
3.878212649E0,-1.411765367E-1,7.770691514E-1,9.933204651E0
3.880449160E0,-1.597209126E-1,8.446664214E-1,9.957133293E0
3.882685489E0,-1.429711580E-1,9.834501147E-1,9.885348320E0
3.884922061E0,-1.848455518E-1,1.055832982E0,9.842277527E0
3.887159609E0,-1.453639716E-1,1.070189953E0,9.742377281E0
3.889395694E0,-1.567298770E-1,9.840483069E-1,9.799206734E0
3.891630984E0,-1.262213886E-1,8.159525394E-1,9.866804123E0
3.893866824E0,-9.391828626E-2,7.339983582E-1,9.900901794E0
3.896103396E0,-1.028913707E-1,8.051848412E-1,9.962516785E0
3.898336978E0,-1.333998591E-1,9.308080077E-1,9.818947792E0
3.900564395E0,-1.064806059E-1,1.074377418E0,9.718449593E0
3.902812991E0,-9.272187948E-2,1.040877819E0,9.723833084E0
3.905050723E0,-1.238285750E-1,8.931210637E-1,9.738189697E0
3.907289553E0,-5.922235921E-2,8.243274093E-1,9.905687332E0
3.909521975E0,-9.391828626E-2,7.668996453E-1,9.943374634E0
3.911758182E0,-8.733802289E-2,7.914260626E-1,9.781260490E0
3.913994571E0,-4.785645381E-2,8.865407705E-1,9.800403595E0
3.916231204E0,-7.537391037E-2,9.349954724E-1,9.752547264E0
3.918467715E0,-5.204389244E-2,8.871390224E-1,9.748359680E0
3.920704287E0,-2.871387079E-2,9.337990284E-1,9.891330719E0
3.922941592E0,-5.862415582E-2,8.147560954E-1,9.853045464E0
3.925177615E0,-6.400800496E-2,7.531409264E-1,9.786644936E0
3.927413028E0,-4.426721856E-2,8.338986635E-1,9.862616539E0
3.929649356E0,-1.615155302E-2,8.279166222E-1,9.915258408E0
3.931885623E0,-4.307080805E-2,9.337990284E-1,9.886545181E0
3.934122012E0,-2.273181453E-2,9.912267923E-1,9.862616539E0
3.936358523E0,-6.161518395E-2,8.967102766E-1,9.766903877E0
3.938595156E0,-5.982056609E-4,8.763712645E-1,9.848857880E0
3.940830874E0,-1.615155302E-2,8.141579032E-1,9.900901794E0
3.943058230E0,-3.589234129E-2,7.142575383E-1,9.805787086E0
3.945292178E0,-3.888336942E-2,8.386843204E-1,9.820143700E0
3.947540225E0,-2.871387079E-2,8.626125455E-1,9.805787086E0
3.949778689E0,-9.511470050E-2,8.829515576E-1,9.733404160E0
3.952016359E0,-7.657032460E-2,9.248259664E-1,9.853045464E0
3.954249697E0,-1.148554832E-1,9.774680734E-1,9.957133293E0
3.956486270E0,-8.614161611E-2,8.823533654E-1,9.814760208E0
3.958723818E0,-1.339980662E-1,8.638089895E-1,9.790233612E0
3.960959842E0,-9.750752151E-2,7.770691514E-1,9.833903313E0
3.963194949E0,-1.220339537E-1,7.633104324E-1,9.866804123E0
3.965431094E0,-7.298108935E-2,8.673982024E-1,9.919445992E0
3.967667911E0,-1.345962733E-1,8.781659007E-1,9.842875481E0
3.969904544E0,-9.990034252E-2,9.637092948E-1,9.842875481E0
3.972140933E0,-1.232303679E-1,9.978070259E-1,9.814162254E0
3.974377627E0,-1.561316848E-1,9.607182741E-1,9.680164337E0
3.976614871E0,-1.770688742E-1,8.841479421E-1,9.775876999E0
3.978850772E0,-7.417750359E-2,7.998009920E-1,9.981659889E0
3.981083315E0,-2.051845491E-1,7.633104324E-1,1.007617569E1
3.983310428E0,-7.716853172E-2,8.769695163E-1,9.900303841E0
3.985558841E0,-2.811566554E-2,9.481559992E-1,9.838688850E0
3.987795596E0,-9.032905847E-2,9.158528447E-1,9.800403595E0
3.990034914E0,-3.649054468E-2,9.206385016E-1,9.643074989E0
3.992268557E0,-1.854437590E-2,8.721838593E-1,9.700503349E0
3.994506045E0,5.922235921E-2,6.981059909E-1,9.873384476E0
3.996742068E0,4.007977992E-2,7.603194118E-1,9.978070259E0
3.998977237E0,9.391828626E-2,8.404789567E-1,9.993025780E0
4.001213504E0,1.016949583E-2,9.427721500E-1,9.839286804E0
4.003449832E0,9.332008660E-2,1.013958573E0,9.782457352E0
4.005686526E0,4.366901144E-2,8.997012973E-1,9.772886276E0
4.007919985E0,9.092725813E-2,8.608179688E-1,9.816555023E0
4.010147463E0,5.563312769E-2,7.890332937E-1,9.882955551E0
4.012397158E0,7.956135273E-2,7.698906660E-1,9.844670296E0
4.014632937E0,5.623133108E-2,8.081758618E-1,9.854242325E0
4.016871402E0,2.811566554E-2,8.847461939E-1,9.920642853E0
4.019104556E0,-3.230310604E-2,9.864411354E-1,9.872187614E0
4.021337893E0,-8.015955985E-2,9.924231768E-1,9.819545746E0
4.023566104E0,-1.088734269E-1,9.876375198E-1,9.847661972E0
4.025813845E0,-9.212367237E-2,8.105686903E-1,9.824331284E0
4.028047549E0,-1.453639716E-1,7.920243144E-1,9.890732765E0
4.030278872E0,-1.268195957E-1,7.674978375E-1,9.909874916E0
4.032523867E0,-2.249253243E-1,9.080761671E-1,9.856036186E0
4.034759463E0,-1.956132501E-1,9.224331379E-1,9.794421196E0
4.036998537E0,-2.333002090E-1,9.756734371E-1,9.769894600E0
4.039232181E0,-1.956132501E-1,9.128618240E-1,9.746564865E0
4.041468692E0,-2.494517565E-1,8.512466550E-1,9.803394318E0
4.043705081E0,-1.543370634E-1,7.974081635E-1,9.751948357E0
4.045941897E0,-1.645065546E-1,7.447660565E-1,9.771091461E0
4.048179385E0,-1.160518974E-1,7.968099117E-1,9.818947792E0
4.050415225E0,-8.195417374E-2,8.440681696E-1,9.833903313E0
4.052650576E0,-9.511470050E-2,9.254241586E-1,9.800403595E0
4.054886844E0,-3.230310604E-2,9.439685345E-1,9.781859398E0
4.057123233E0,-4.666004330E-2,9.445667267E-1,9.734002113E0
4.059359805E0,1.016949583E-2,8.668000102E-1,9.729815483E0
4.061596072E0,4.725824669E-2,8.279166222E-1,9.796813965E0
4.063832644E0,8.434699476E-2,8.171489239E-1,9.940383911E0
4.066070010E0,7.058826834E-2,8.841479421E-1,9.973284721E0
4.068306277E0,9.092725813E-2,8.985049129E-1,9.887741089E0
4.070541385E0,3.409772366E-2,9.517452121E-1,9.853643417E0
4.072777591E0,4.366901144E-2,9.613165259E-1,9.877572060E0
4.075014285E0,5.383851007E-3,9.427721500E-1,9.834501266E0
4.077250735E0,3.409772366E-2,8.997012973E-1,9.748957634E0
4.079487307E0,-2.931207791E-2,8.147560954E-1,9.777072906E0
4.081723757E0,8.374879137E-3,8.470591903E-1,9.877572060E0
4.083961123E0,-1.974078640E-2,8.949156404E-1,9.929615974E0
4.086197146E0,-4.666004330E-2,9.631111026E-1,9.829116821E0
4.088432498E0,-6.879365444E-2,1.049850941E0,9.699904442E0
4.090668582E0,-5.862415582E-2,1.012163997E0,9.566504478E0
4.092905032E0,-7.597211748E-2,8.398807645E-1,9.633503914E0
4.095142092E0,-3.050848842E-2,7.621139884E-1,9.786644936E0
4.097378360E0,-7.896314561E-2,7.531409264E-1,9.838688850E0
4.099614749E0,-6.699903309E-2,8.584251404E-1,9.776474953E0
4.101852175E0,-6.520441920E-2,9.260223508E-1,9.657432556E0
4.104088260E0,-6.460621208E-2,9.547362328E-1,9.619147301E0
4.106324221E0,-4.127619043E-2,9.631111026E-1,9.719645500E0
4.108561953E0,-1.142572835E-1,9.116654396E-1,9.780662537E0
4.110793276E0,-1.010967568E-1,8.159525394E-1,9.752547264E0
4.113020694E0,-1.022931710E-1,7.537391186E-1,9.795618057E0
4.115268680E0,-2.165504545E-1,8.075776696E-1,9.799206734E0
4.117505862E0,-2.147558331E-1,7.902296782E-1,9.503693581E0
4.119746646E0,-2.135594189E-1,7.950153351E-1,9.422337532E0
4.121979434E0,-2.428714931E-1,8.380861282E-1,9.570094109E0
4.124214785E0,-1.770688742E-1,9.122636318E-1,9.851848602E0
4.126450809E0,-1.447657645E-1,9.864411354E-1,1.016650486E1
4.128687442E0,-8.255238086E-2,9.577272534E-1,1.006720352E1
4.130924014E0,-6.520441920E-2,9.637092948E-1,9.709476471E0
4.133160342E0,-3.708875179E-2,9.439685345E-1,9.753145218E0
4.135396975E0,-2.991028316E-2,8.949156404E-1,9.953543663E0
4.137634707E0,6.520441920E-2,9.074779749E-1,1.012582684E1
4.139870547E0,8.614161611E-2,1.022333503E0,1.004985523E1
4.142105838E0,1.268195957E-1,1.037288666E0,9.773484230E0
4.144341678E0,5.204389244E-2,1.081555843E0,9.662816048E0
4.146575625E0,1.118644550E-1,8.943174481E-1,9.635298729E0
4.148803286E0,8.973085135E-2,8.171489239E-1,9.854242325E0
4.151048098E0,1.686939895E-1,7.956135273E-1,1.009830952E1
4.153273379E0,5.264209956E-2,9.559326172E-1,9.982855797E0
4.155516788E0,1.734796353E-2,1.067797065E0,9.748359680E0
4.157761782E0,-4.845465720E-2,1.092921734E0,9.675976753E0
4.160000002E0,-5.503492057E-2,9.589236975E-1,9.647860527E0
4.162236269E0,-1.268195957E-1,7.298108935E-1,9.809376717E0
4.164469668E0,9.272187948E-2,5.904290080E-1,1.030289650E1
4.166703493E0,-2.069791555E-1,7.082754970E-1,9.622735977E0
4.168928469E0,-1.764706671E-1,8.446664214E-1,9.007781029E0
4.171166934E0,-2.470589429E-1,9.505487680E-1,9.059824944E0
4.173416629E0,-1.848455518E-1,8.805587292E-1,9.541978836E0
4.175655276E0,-2.416750938E-1,7.836494446E-1,9.937392235E0
4.177887575E0,-3.469592929E-1,7.238288522E-1,9.788438797E0
4.180109743E0,-3.302095234E-1,7.010970116E-1,9.460023880E0
4.182360537E0,-3.481557071E-1,7.310073376E-1,9.345169067E0
4.184597110E0,-2.817548811E-1,8.291130662E-1,9.579067230E0
4.186834292E0,-1.381855011E-1,9.260223508E-1,9.799804688E0
4.189058352E0,-6.101697683E-2,9.493523836E-1,9.781260490E0
4.191307803E0,8.913264424E-2,1.009172916E0,9.696913719E0
4.193543643E0,3.541377485E-1,1.101296663E0,9.680164337E0
4.195782230E0,3.152543902E-1,8.901300430E-1,9.923035622E0
4.198012332E0,3.505485058E-1,8.165507317E-1,1.020957565E1
4.200239932E0,2.805584669E-1,8.853443861E-1,1.008036327E1
4.202488223E0,2.117647976E-1,9.828519225E-1,9.893723488E0
4.204724734E0,1.280160099E-1,1.156331539E0,9.878170013E0
4.206964114E0,1.034895778E-1,1.089930773E0,9.854242325E0
4.209195986E0,9.690931439E-2,9.415757060E-1,9.792626381E0
4.211423037E0,1.854437590E-2,8.141579032E-1,9.753743172E0
4.213670413E0,1.794617064E-2,7.238288522E-1,9.672985077E0
4.215906375E0,-4.426721856E-2,7.106683254E-1,9.619745255E0
4.218142764E0,-9.631111473E-2,7.543373108E-1,9.609575272E0
4.220364565E0,-2.063809484E-1,7.178468108E-1,9.570692062E0
4.222600893E0,-2.141576260E-1,8.949156404E-1,9.627521515E0
4.224838198E0,-3.481557071E-1,8.638089895E-1,9.554540634E0
4.227071779E0,-3.661018610E-1,7.932206988E-1,9.321240425E0
4.229310793E0,-4.109672904E-1,7.268198729E-1,9.411569595E0
4.231550601E0,-4.133601189E-1,7.202396393E-1,9.687940598E0
4.233795413E0,-3.858426511E-1,6.245267391E-1,9.683753014E0
4.236036929E0,-3.798605800E-1,7.106683254E-1,9.678967476E0
4.238273746E0,-3.726821244E-1,8.590233326E-1,9.630513191E0
4.240508060E0,-3.661018610E-1,9.026923180E-1,9.463613510E0
4.242743350E0,-3.032902777E-1,9.397810698E-1,9.488140106E0
4.244980838E0,-2.907279432E-1,9.050851464E-1,9.655637741E0
4.247216983E0,-2.111666054E-1,8.458628058E-1,9.784850121E0
4.249452334E0,-2.015953064E-1,8.841479421E-1,9.856635094E0
4.251688479E0,-1.292124242E-1,8.973084688E-1,9.833304405E0
4.253925235E0,-9.032905847E-2,9.493523836E-1,9.814760208E0
4.256161563E0,2.392822644E-3,1.057627559E0,9.862616539E0
4.258397891E0,2.093719877E-2,1.014556766E0,9.810572624E0
4.260634341E0,2.572284266E-2,9.714859724E-1,9.777671814E0
4.262871707E0,9.631111473E-2,9.511470199E-1,9.849455833E0
4.265107852E0,1.435693651E-1,8.739784956E-1,9.850054741E0
4.267343508E0,1.674975902E-1,8.261220455E-1,9.745368004E0
4.269579837E0,1.531406492E-1,8.261220455E-1,9.759725571E0
4.271816165E0,1.974078715E-1,9.732806087E-1,9.869196892E0
4.274050173E0,1.501496136E-1,9.840483069E-1,9.787840843E0
4.276278872E0,1.316052526E-1,9.373882413E-1,9.601799011E0
4.278525332E0,1.166501045E-1,8.422735929E-1,9.506684303E0
4.280763125E0,1.238285750E-1,7.842476368E-1,9.697511673E0
4.283001650E0,1.232303679E-1,7.316055298E-1,9.673583984E0
4.285234317E0,3.888336942E-2,7.429714203E-1,9.510871887E0
4.287470340E0,1.136590727E-2,8.536394835E-1,9.500701904E0
4.289706973E0,-5.024927482E-2,9.355936646E-1,9.609575272E0
4.291943850E0,-1.130608693E-1,9.074779749E-1,9.613762856E0
4.294180117E0,-1.854437590E-1,8.560323119E-1,9.622735977E0
4.296416506E0,-1.722832322E-1,8.267202377E-1,9.665806770E0
4.298654238E0,-2.398804724E-1,7.471588850E-1,9.622735977E0
4.300890200E0,-2.584248483E-1,7.902296782E-1,9.622735977E0
4.303125247E0,-2.829512656E-1,8.045865893E-1,9.717850685E0
4.305361697E0,-3.014956415E-1,9.236295223E-1,9.841081619E0
4.307598025E0,-3.098705411E-1,9.906286001E-1,9.841081619E0
4.309831911E0,-3.702892959E-1,1.045065284E0,9.702297211E0
4.312056765E0,-3.517449200E-1,9.828519225E-1,9.649655342E0
4.314292849E0,-3.343969584E-1,9.343972206E-1,9.759725571E0
4.316533145E0,-2.979064286E-1,8.703892231E-1,9.917651176E0
4.318784060E0,-2.691925466E-1,8.656035662E-1,9.870393753E0
4.321019716E0,-2.398804724E-1,9.080761671E-1,9.875179291E0
4.323255617E0,-2.081755698E-1,1.066002488E0,9.851250648E0
4.325489200E0,-1.507478207E-1,1.031904817E0,9.737591743E0
4.327723025E0,-1.501496136E-1,1.013360381E0,9.670592308E0
4.329951419E0,-1.316052489E-2,9.104689956E-1,9.743574142E0
4.332198977E0,-5.982056609E-4,8.189435601E-1,9.805787086E0
4.334436465E0,6.999006122E-2,7.316055298E-1,9.806983948E0
4.336674990E0,8.015955985E-2,7.746763229E-1,9.763913155E0
4.338907656E0,1.208375469E-1,9.128618240E-1,9.739984512E0
4.341143863E0,1.076770201E-1,9.373882413E-1,9.640084267E0
4.343380008E0,7.058826834E-2,9.672985673E-1,9.530014038E0
4.345616641E0,9.272187948E-2,8.901300430E-1,9.634700775E0
4.347850161E0,7.956135273E-2,7.411768436E-1,9.768698692E0
4.350077944E0,9.332008660E-2,7.220342159E-1,9.816555023E0
4.352326540E0,3.708875179E-2,7.184450030E-1,9.682557106E0
4.354555972E0,7.178467698E-3,8.775677085E-1,9.467203140E0
4.356789554E0,-1.974078640E-2,9.882357717E-1,9.495318413E0
4.359034793E0,-7.357929647E-2,9.882357717E-1,9.647860527E0
4.361272524E0,-8.554340899E-2,8.919246197E-1,9.762118340E0
4.363511111E0,-1.214357466E-1,8.063812256E-1,9.857233047E0
4.365744510E0,-1.393819153E-1,7.830511928E-1,9.719047546E0
4.367977663E0,-2.297109663E-1,7.800601721E-1,9.598808289E0
4.370206423E0,-2.195414752E-1,8.757730722E-1,9.665806770E0
4.372451296E0,-2.685943544E-1,9.278169870E-1,9.903294563E0
4.374675295E0,-2.590230405E-1,1.027119160E0,1.008933640E1
4.376914248E0,-3.206382394E-1,1.061815023E0,1.006959629E1
4.379147647E0,-2.997010350E-1,1.033699393E0,9.807581902E0
4.381387149E0,-2.751746178E-1,9.720842242E-1,9.626923561E0
4.383623721E0,-2.620140910E-1,9.098708034E-1,9.660423279E0
4.385860293E0,-2.063809484E-1,8.506484628E-1,9.837491989E0
4.388097598E0,-1.692921966E-1,8.775677085E-1,1.001874828E1
4.390333682E0,-1.537388563E-1,9.020941257E-1,9.899705887E0
4.392569278E0,-1.411765367E-1,9.750752449E-1,9.623334885E0
4.394805484E0,-1.208375469E-1,9.373882413E-1,9.470791817E0
4.397042239E0,-1.166501045E-1,9.320043921E-1,9.537791252E0
4.399278323E0,-8.135596663E-2,8.063812256E-1,9.667003632E0
4.401514102E0,-6.520441920E-2,6.909275651E-1,9.815358162E0
4.403751406E0,5.982056726E-3,6.747759581E-1,9.901499748E0
4.405989382E0,2.392822644E-3,7.609176040E-1,9.915857315E0
4.408225955E0,-3.589233849E-3,9.194421172E-1,9.757930756E0
4.410462283E0,-2.632104978E-2,8.925228715E-1,9.519247055E0
4.412707766E0,1.196411345E-2,9.056833982E-1,9.586245537E0
4.414948000E0,5.144568533E-2,7.800601721E-1,9.801599503E0
4.417169619E0,8.255238086E-2,6.735795736E-1,9.887741089E0
4.419403994E0,2.991028316E-2,6.604190469E-1,9.849455833E0
4.421638491E0,3.290131316E-2,8.231309652E-1,9.792028427E0
4.423880068E0,-1.256231871E-2,9.864411354E-1,9.786644936E0
4.426116092E0,-8.793623000E-2,1.088136077E0,9.828518867E0
4.428351260E0,-6.939185411E-2,1.130010486E0,9.914660454E0
4.430587283E0,-1.525424421E-1,9.978070259E-1,9.904491425E0
4.432824038E0,-1.585244983E-1,8.691928387E-1,9.837491989E0
4.435061465E0,-1.794617027E-1,7.974081635E-1,9.914062500E0
4.437300784E0,-1.938186288E-1,8.063812256E-1,9.975677490E0
4.439546145E0,-2.201396823E-1,9.505487680E-1,9.923035622E0
4.441776796E0,-2.703889608E-1,1.095314622E0,9.831509590E0
4.444021181E0,-3.134597540E-1,1.029511929E0,9.702297211E0
4.446254092E0,-2.961117923E-1,8.859425783E-1,9.678967476E0
4.448492556E0,-3.278166950E-1,8.656035662E-1,1.000319481E1
4.450726809E0,-2.811566591E-1,7.507480979E-1,9.946365356E0
4.452963382E0,-3.314059377E-1,7.860422134E-1,9.702896118E0
4.455199832E0,-3.056831062E-1,8.673982024E-1,9.669396400E0
4.457436221E0,-2.865405083E-1,9.002995491E-1,9.698110580E0
4.459673770E0,-2.159522474E-1,8.506484628E-1,9.818349838E0
4.461909732E0,-2.219343036E-1,8.596215248E-1,9.970891953E0
4.464144961E0,-1.447657645E-1,7.974081635E-1,9.799804688E0
4.466381289E0,-1.375873089E-1,8.225327730E-1,9.518648148E0
4.468617801E0,-9.990034252E-2,7.268198729E-1,9.404391289E0
4.470854251E0,-3.469592705E-2,7.573283911E-1,9.753145218E0
4.473090762E0,2.452643216E-2,8.213363886E-1,1.020658493E1
4.475327334E0,6.580262445E-3,8.177471161E-1,1.007318497E1
4.477564883E0,1.196411345E-2,9.912267923E-1,9.681958199E0
4.479800662E0,4.666004330E-2,1.034297585E0,9.653244972E0
4.482036074E0,6.879365444E-2,9.044869542E-1,9.672985077E0
4.484272403E0,1.124626622E-1,7.734799385E-1,9.921240807E0
4.486509036E0,1.387837082E-1,7.477570772E-1,1.020299530E1
4.488745547E0,1.010967568E-1,7.441678643E-1,1.010728264E1
4.490981570E0,7.178468257E-2,9.320043921E-1,9.878170013E0
4.493218203E0,-2.093719877E-2,1.106082320E0,9.814760208E0
4.495455996E0,-4.965107143E-2,1.101894855E0,9.824331284E0
4.497692141E0,-4.606183618E-2,1.048654556E0,9.905089378E0
4.499926394E0,-1.022931710E-1,9.098708034E-1,1.009113121E1
4.502159060E0,-1.040877849E-1,7.381857634E-1,1.001037312E1
4.504399844E0,-1.746760458E-1,7.830511928E-1,9.875777245E0
4.506635012E0,-1.830509305E-1,8.452646136E-1,9.870991707E0
4.508867496E0,-2.572284341E-1,9.619147182E-1,9.750752449E0
4.511109622E0,-3.188436031E-1,9.912267923E-1,9.740582466E0
4.513347048E0,-2.817548811E-1,9.475577474E-1,9.831509590E0
4.515584597E0,-3.511467278E-1,7.429714203E-1,9.769296646E0
4.517814089E0,-3.571287692E-1,6.664010882E-1,9.764511108E0
4.520032595E0,-3.678964674E-1,6.424728632E-1,9.826724052E0
4.522264528E0,-3.900300860E-1,8.003991842E-1,9.931410789E0
4.524496461E0,-3.690928817E-1,8.626125455E-1,9.826126099E0
4.526728394E0,-3.667000830E-1,9.966106415E-1,9.763913155E0
4.528960327E0,-3.110669553E-1,9.284151793E-1,9.826724052E0
4.531221255E0,-2.691925466E-1,8.374879360E-1,9.812965393E0
4.533460391E0,-1.974078715E-1,8.171489239E-1,9.832706451E0
4.535707827E0,-1.507478207E-1,7.489534616E-1,9.857233047E0
4.537945437E0,-1.010967568E-1,7.968099117E-1,9.752547264E0
4.540173037E0,-2.033899166E-2,8.757730722E-1,9.987043381E0
4.542418582E0,-5.982056726E-3,9.607182741E-1,1.011565781E1
4.544655032E0,3.768695518E-2,9.511470199E-1,1.000139999E1
4.546892031E0,9.212367237E-2,1.012762189E0,9.925428391E0
4.549118045E0,7.298108935E-2,9.990034699E-1,9.849455833E0
4.551364993E0,1.154536903E-1,8.889335990E-1,9.797411919E0
4.553600772E0,1.268195957E-1,7.824530005E-1,9.973882675E0
