"Time (s)","Gyroscope x (rad/s)","Gyroscope y (rad/s)","Gyroscope z (rad/s)"
1.822562800E-2,-2.901609987E-3,3.817907767E-3,-1.007927675E-2
2.045048000E-2,-7.941247895E-3,3.054326226E-4,-1.145372353E-2
2.268789500E-2,-6.719517522E-3,3.054326226E-4,-1.007927675E-2
2.492274300E-2,-1.832595794E-3,1.527163113E-4,-1.007927675E-2
2.715912100E-2,4.428773187E-3,4.886921961E-3,-1.130100712E-2
2.939532800E-2,3.207042580E-3,2.443460980E-3,-1.130100712E-2
3.163165600E-2,-1.832595794E-3,1.374446787E-3,-1.130100712E-2
3.386767900E-2,-4.276056774E-3,1.374446787E-3,-1.252273750E-2
3.610498300E-2,-7.941247895E-3,3.054326226E-4,-1.023199316E-2
3.834173800E-2,-6.566801574E-3,5.039638374E-3,-1.007927675E-2
4.057855500E-2,-6.566801574E-3,5.039638374E-3,-1.130100712E-2
4.281402900E-2,-6.719517522E-3,1.527163084E-3,-1.007927675E-2
4.504992900E-2,-1.679879380E-3,3.817907767E-3,-1.252273750E-2
4.728674600E-2,1.985311974E-3,6.108652335E-3,-1.130100712E-2
4.952307400E-2,1.985311974E-3,6.108652335E-3,-1.130100712E-2
5.176220900E-2,1.985311974E-3,6.108652335E-3,-1.252273750E-2
5.401062200E-2,-1.679879380E-3,3.817907767E-3,-1.130100712E-2
5.624713400E-2,7.635815418E-4,1.374446787E-3,-1.130100712E-2
5.848425500E-2,-1.679879380E-3,3.817907767E-3,-8.857546374E-3
6.071637200E-2,1.832595794E-3,1.221730490E-3,-8.857546374E-3
6.295282200E-2,8.093964309E-3,2.443460980E-3,-1.007927675E-2
6.518909000E-2,9.315694682E-3,-1.221730490E-3,-1.007927675E-2
6.742480700E-2,1.832595794E-3,-1.069014193E-3,-1.130100712E-2
6.965838900E-2,-1.832595794E-3,1.527163113E-4,-1.007927675E-2
7.189831800E-2,-4.123340361E-3,2.596177394E-3,-1.374446787E-2
7.413495100E-2,-1.679879380E-3,6.261368748E-3,-1.252273750E-2
7.637341500E-2,-4.581489484E-4,2.596177394E-3,-1.252273750E-2
7.860858400E-2,3.207042580E-3,4.886921961E-3,-1.130100712E-2
8.084393600E-2,5.650503561E-3,2.443460980E-3,-1.007927675E-2
8.308002000E-2,5.497787148E-3,-1.221730490E-3,-7.635815535E-3
8.531659200E-2,5.497787148E-3,-2.443460980E-3,-1.252273750E-2
8.755316400E-2,1.832595794E-3,-2.290744567E-3,-1.252273750E-2
8.978949200E-2,-3.054326167E-3,-1.069014193E-3,-1.007927675E-2
9.202606500E-2,-5.497787148E-3,2.596177394E-3,-8.857546374E-3
9.426355200E-2,-1.832595794E-3,1.374446787E-3,-8.857546374E-3
9.649945300E-2,5.650503561E-3,6.108652335E-3,-1.007927675E-2
9.873498800E-2,7.024950348E-3,7.330383174E-3,-1.114829071E-2
1.009708280E-1,3.207042580E-3,4.886921961E-3,-1.130100712E-2
1.032074610E-1,-4.123340361E-3,5.039638374E-3,-1.130100712E-2
1.054439720E-1,-4.276056774E-3,1.527163113E-4,-1.007927675E-2
1.076803620E-1,-3.054326167E-3,1.374446787E-3,-1.252273750E-2
1.099140040E-1,1.985311974E-3,2.443460980E-3,-1.130100712E-2
1.121398340E-1,5.650503561E-3,2.443460980E-3,-8.857546374E-3
1.143759180E-1,1.832595794E-3,-1.069014193E-3,-1.007927675E-2
1.166112690E-1,3.054326167E-3,0.000000000E0,-1.007927675E-2
1.188531520E-1,3.207042580E-3,2.443460980E-3,-1.130100712E-2
1.211011980E-1,-1.679879380E-3,5.039638374E-3,-1.007927675E-2
1.233378330E-1,-1.679879380E-3,2.596177394E-3,-1.130100712E-2
1.255743430E-1,-6.108652451E-4,1.374446787E-3,-1.130100712E-2
1.278076810E-1,5.650503561E-3,1.221730490E-3,-1.252273750E-2
1.300448630E-1,4.428773187E-3,4.886921961E-3,-1.130100712E-2
1.322813750E-1,1.985311974E-3,4.886921961E-3,-8.857546374E-3
1.345167870E-1,7.635815418E-4,3.817907767E-3,-1.007927675E-2
1.367529930E-1,-4.581489484E-4,5.039638374E-3,-1.130100712E-2
1.389893830E-1,-6.108652451E-4,1.527163113E-4,-1.252273750E-2
1.412257720E-1,-5.497787148E-3,1.374446787E-3,-1.007927675E-2
1.434623440E-1,-6.108652451E-4,-2.290744567E-3,-8.857546374E-3
1.456962300E-1,4.276056774E-3,-2.443460980E-3,-1.007927675E-2
1.479227930E-1,9.315694682E-3,2.290744567E-3,-1.007927675E-2
1.501605860E-1,8.093964309E-3,0.000000000E0,-1.252273750E-2
1.524079010E-1,3.207042580E-3,2.443460980E-3,-1.252273750E-2
1.546466090E-1,-6.566801574E-3,3.817907767E-3,-1.374446787E-2
1.568832420E-1,-7.941247895E-3,2.748893574E-3,-1.252273750E-2
1.591168240E-1,-6.566801574E-3,5.039638374E-3,-1.007927675E-2
1.613531520E-1,1.985311974E-3,2.443460980E-3,-1.130100712E-2
1.635897850E-1,6.872233935E-3,2.443460980E-3,-8.857546374E-3
1.658273340E-1,8.093964309E-3,4.734205548E-3,-1.007927675E-2
1.680634180E-1,4.428773187E-3,0.000000000E0,-1.130100712E-2
1.702987700E-1,-3.054326167E-3,-2.290744567E-3,-1.130100712E-2
1.725348540E-1,-7.941247895E-3,-2.138028387E-3,-1.023199316E-2
1.747713650E-1,-5.497787148E-3,1.527163113E-4,-1.007927675E-2
1.770077540E-1,7.635815418E-4,4.886921961E-3,-1.252273750E-2
1.792443260E-1,5.650503561E-3,4.886921961E-3,-1.252273750E-2
1.814808380E-1,5.650503561E-3,0.000000000E0,-1.374446787E-2
1.837182030E-1,4.428773187E-3,2.443460980E-3,-1.130100712E-2
1.859542870E-1,1.985311974E-3,7.330383174E-3,-1.252273750E-2
1.881898830E-1,-4.123340361E-3,3.817907767E-3,-1.130100712E-2
1.904259060E-1,-5.497787148E-3,-9.162978968E-4,-1.252273750E-2
1.926621120E-1,-9.162978269E-3,-2.138028387E-3,-1.145372353E-2
1.948991120E-1,-6.872233935E-3,-3.359758761E-3,-9.010262787E-3
1.971353790E-1,-1.832595794E-3,-2.290744567E-3,-1.252273750E-2
1.993718290E-1,-6.108652451E-4,1.527163113E-4,-1.252273750E-2
2.016092550E-1,-4.581489484E-4,2.596177394E-3,-1.252273750E-2
2.038453400E-1,-4.276056774E-3,2.596177394E-3,-1.130100712E-2
2.060808130E-1,-9.162978269E-3,1.527163084E-3,-1.389718428E-2
2.083170190E-1,-1.298088674E-2,-4.428773187E-3,-1.023199316E-2
2.105531030E-1,-9.162978269E-3,-2.138028387E-3,-1.267545391E-2
2.127897370E-1,-6.108652451E-4,1.374446787E-3,-1.007927675E-2
2.150261870E-1,3.207042580E-3,1.221730490E-3,-1.007927675E-2
2.172597070E-1,3.207042580E-3,1.221730490E-3,-1.130100712E-2
2.194884670E-1,-3.054326167E-3,1.374446787E-3,-1.007927675E-2
2.217362700E-1,-4.428773187E-3,-5.803219974E-3,-1.267545391E-2
2.239719260E-1,-1.832595794E-3,-1.069014193E-3,-1.374446787E-2
2.262108790E-1,-2.901609987E-3,3.817907767E-3,-1.252273750E-2
2.284442780E-1,-1.679879380E-3,3.817907767E-3,-1.374446787E-2
2.306807890E-1,3.207042580E-3,1.221730490E-3,-8.857546374E-3
2.329171170E-1,4.276056774E-3,0.000000000E0,-7.635815535E-3
2.351537500E-1,5.497787148E-3,-3.665191587E-3,-7.635815535E-3
2.373912990E-1,6.108652451E-4,-2.290744567E-3,-1.007927675E-2
2.396273830E-1,-1.832595794E-3,-1.069014193E-3,-1.130100712E-2
2.418627350E-1,-4.276056774E-3,1.527163113E-4,-1.130100712E-2
2.440988190E-1,-1.679879380E-3,3.817907767E-3,-1.374446787E-2
2.463353910E-1,3.207042580E-3,2.443460980E-3,-1.496619824E-2
2.485719630E-1,4.428773187E-3,2.443460980E-3,-1.252273750E-2
2.508082300E-1,5.650503561E-3,2.443460980E-3,-1.252273750E-2
2.530446190E-1,3.207042580E-3,3.665191587E-3,-1.130100712E-2
2.552823510E-1,7.635815418E-4,1.374446787E-3,-1.130100712E-2
2.575181300E-1,-1.985311974E-3,-8.399397135E-3,-8.857546374E-3
2.597534210E-1,-3.207042580E-3,-5.955935922E-3,-7.635815535E-3
2.619899320E-1,6.108652451E-4,-4.734205548E-3,-8.857546374E-3
2.642265040E-1,4.276056774E-3,0.000000000E0,-1.007927675E-2
2.664628930E-1,8.093964309E-3,0.000000000E0,-1.130100712E-2
2.686990990E-1,5.650503561E-3,4.886921961E-3,-1.252273750E-2
2.709356720E-1,7.635815418E-4,6.108652335E-3,-1.374446787E-2
2.731732810E-1,-5.497787148E-3,2.596177394E-3,-1.252273750E-2
2.754093650E-1,-4.276056774E-3,1.527163113E-4,-1.252273750E-2
2.776446560E-1,-1.832595794E-3,-1.069014193E-3,-1.130100712E-2
2.798804350E-1,1.985311974E-3,2.443460980E-3,-1.007927675E-2
2.821168850E-1,-6.108652451E-4,-1.069014193E-3,-1.007927675E-2
2.843539460E-1,6.108652451E-4,-1.069014193E-3,-1.007927675E-2
2.865902740E-1,-1.832595794E-3,1.527163113E-4,-1.130100712E-2
2.888267240E-1,-4.276056774E-3,1.374446787E-3,-1.007927675E-2
2.910643340E-1,-9.162978269E-3,1.527163084E-3,-1.267545391E-2
2.933001740E-1,-4.276056774E-3,2.596177394E-3,-1.252273750E-2
2.955359520E-1,-1.679879380E-3,5.039638374E-3,-1.007927675E-2
2.977730120E-1,1.985311974E-3,4.886921961E-3,-1.130100712E-2
3.000079980E-1,3.054326167E-3,-1.221730490E-3,-1.007927675E-2
3.022448760E-1,7.635815418E-4,1.374446787E-3,-1.252273750E-2
3.044809600E-1,-4.581489484E-4,1.374446787E-3,-1.252273750E-2
3.067144800E-1,-4.276056774E-3,-3.512475174E-3,-1.252273750E-2
3.089429960E-1,-8.093964309E-3,-3.359758761E-3,-1.023199316E-2
3.111910430E-1,-3.054326167E-3,1.527163113E-4,-1.007927675E-2
3.134266990E-1,-6.108652451E-4,1.527163113E-4,-1.130100712E-2
3.156655290E-1,1.985311974E-3,1.221730490E-3,-1.007927675E-2
3.178980130E-1,5.650503561E-3,2.443460980E-3,-1.130100712E-2
3.201282980E-1,4.276056774E-3,-1.221730490E-3,-1.374446787E-2
3.223573630E-1,1.832595794E-3,-1.069014193E-3,-1.130100712E-2
3.245969260E-1,-6.108652451E-4,-4.734205548E-3,-1.007927675E-2
3.268444850E-1,-4.276056774E-3,-1.069014193E-3,-8.857546374E-3
3.290731840E-1,-5.497787148E-3,-9.162978968E-4,-7.635815535E-3
3.313204990E-1,-1.832595794E-3,1.374446787E-3,-1.007927675E-2
3.335535310E-1,5.497787148E-3,-2.443460980E-3,-1.007927675E-2
3.357929710E-1,6.719517522E-3,-1.221730490E-3,-1.130100712E-2
3.380239890E-1,6.872233935E-3,1.221730490E-3,-1.252273750E-2
3.402523830E-1,1.985311974E-3,2.443460980E-3,-1.252273750E-2
3.425016500E-1,-1.832595794E-3,-2.290744567E-3,-1.130100712E-2
3.447370020E-1,-1.832595794E-3,1.527163113E-4,-1.130100712E-2
3.469760760E-1,-6.108652451E-4,-2.290744567E-3,-1.007927675E-2
3.492078890E-1,6.108652451E-4,-3.512475174E-3,-1.252273750E-2
3.514445220E-1,4.276056774E-3,-2.443460980E-3,-1.007927675E-2
3.536810330E-1,4.428773187E-3,1.221730490E-3,-1.130100712E-2
3.559176660E-1,-4.581489484E-4,3.817907767E-3,-7.635815535E-3
3.581539940E-1,-5.497787148E-3,-9.162978968E-4,-1.007927675E-2
3.603905660E-1,-6.872233935E-3,-4.581489135E-3,-1.267545391E-2
3.626281150E-1,-3.207042580E-3,-5.955935922E-3,-1.252273750E-2
3.648641990E-1,1.832595794E-3,-5.955935922E-3,-1.007927675E-2
3.670974760E-1,3.054326167E-3,-4.734205548E-3,-1.130100712E-2
3.693272120E-1,3.207042580E-3,2.443460980E-3,-1.130100712E-2
3.715716580E-1,1.832595794E-3,-1.069014193E-3,-1.130100712E-2
3.738085350E-1,-3.054326167E-3,-4.734205548E-3,-1.252273750E-2
3.760471220E-1,-4.276056774E-3,-3.512475174E-3,-1.374446787E-2
3.782814970E-1,-3.054326167E-3,-1.069014193E-3,-1.130100712E-2
3.805189840E-1,-6.108652451E-4,1.374446787E-3,-1.130100712E-2
3.827550080E-1,-6.108652451E-4,-4.734205548E-3,-1.252273750E-2
3.849904810E-1,6.108652451E-4,1.527163113E-4,-1.007927675E-2
3.872267480E-1,-4.581489484E-4,3.817907767E-3,-8.857546374E-3
3.894631380E-1,-1.832595794E-3,-1.069014193E-3,-1.007927675E-2
3.916998930E-1,-6.872233935E-3,-3.359758761E-3,-9.010262787E-3
3.939358550E-1,-5.650503561E-3,-4.581489135E-3,-1.267545391E-2
3.961723050E-1,-4.428773187E-3,-5.803219974E-3,-1.267545391E-2
3.984099760E-1,-6.108652451E-4,-3.512475174E-3,-1.130100712E-2
4.006459380E-1,3.207042580E-3,2.443460980E-3,-1.252273750E-2
4.028815940E-1,4.428773187E-3,2.443460980E-3,-1.374446787E-2
4.051145050E-1,4.428773187E-3,3.665191587E-3,-1.130100712E-2
4.073419220E-1,7.635815418E-4,4.886921961E-3,-1.252273750E-2
4.095912500E-1,-1.832595794E-3,-1.069014193E-3,-1.130100712E-2
4.118270290E-1,-4.276056774E-3,-3.512475174E-3,-1.130100712E-2
4.140665310E-1,-3.207042580E-3,-5.955935922E-3,-1.007927675E-2
4.163010280E-1,4.276056774E-3,-7.177666761E-3,-1.007927675E-2
4.185369290E-1,6.719517522E-3,-3.665191587E-3,-1.007927675E-2
4.207720970E-1,3.054326167E-3,0.000000000E0,-1.007927675E-2
4.230081210E-1,-1.832595794E-3,1.374446787E-3,-1.252273750E-2
4.252448150E-1,-1.832595794E-3,-4.734205548E-3,-1.496619824E-2
4.274816920E-1,-5.497787148E-3,-2.138028387E-3,-1.374446787E-2
4.297180200E-1,-5.497787148E-3,1.374446787E-3,-1.252273750E-2
4.319545920E-1,1.985311974E-3,3.665191587E-3,-1.252273750E-2
4.341920190E-1,1.175915636E-2,-1.527163113E-4,-1.237002108E-2
4.364279200E-1,9.162978269E-3,-6.108652335E-3,-1.007927675E-2
4.386634550E-1,4.276056774E-3,-3.665191587E-3,-1.007927675E-2
4.408992950E-1,-3.207042580E-3,-4.734205548E-3,-8.857546374E-3
4.431359280E-1,-4.428773187E-3,-7.024950348E-3,-1.023199316E-2
4.453695090E-1,-4.276056774E-3,-2.290744567E-3,-8.857546374E-3
4.475939970E-1,-3.054326167E-3,-2.290744567E-3,-8.857546374E-3
4.498330100E-1,3.054326167E-3,-3.512475174E-3,-1.374446787E-2
4.520831930E-1,8.093964309E-3,-1.221730490E-3,-1.374446787E-2
4.543219620E-1,5.650503561E-3,0.000000000E0,-1.496619824E-2
4.565574980E-1,-4.276056774E-3,-2.290744567E-3,-1.130100712E-2
4.587903470E-1,-6.872233935E-3,-8.246680722E-3,-1.267545391E-2
4.610267970E-1,-8.093964309E-3,-7.024950348E-3,-1.267545391E-2
4.632636140E-1,-1.832595794E-3,1.374446787E-3,-1.007927675E-2
4.654999420E-1,3.207042580E-3,2.443460980E-3,-1.130100712E-2
4.677365750E-1,4.276056774E-3,-3.665191587E-3,-1.007927675E-2
4.699740020E-1,-3.207042580E-3,-9.468411095E-3,-8.857546374E-3
4.722098420E-1,-9.315694682E-3,-8.246680722E-3,-9.010262787E-3
4.744452540E-1,-8.093964309E-3,-4.581489135E-3,-1.145372353E-2
4.766815210E-1,-5.497787148E-3,-3.359758761E-3,-1.252273750E-2
4.789179110E-1,-6.719517522E-3,3.054326226E-4,-1.496619824E-2
4.811545440E-1,-6.719517522E-3,-9.162978968E-4,-1.511891466E-2
4.833909940E-1,-3.054326167E-3,-2.290744567E-3,-1.374446787E-2
4.856273830E-1,-3.054326167E-3,-2.290744567E-3,-1.374446787E-2
4.878619410E-1,6.108652451E-4,-3.512475174E-3,-1.252273750E-2
4.900859400E-1,6.108652451E-4,-3.512475174E-3,-1.130100712E-2
4.923240990E-1,-3.054326167E-3,-2.290744567E-3,-1.007927675E-2
4.945722070E-1,-6.872233935E-3,-5.803219974E-3,-1.145372353E-2
4.968119530E-1,-6.872233935E-3,-3.359758761E-3,-1.023199316E-2
4.990483430E-1,-5.650503561E-3,-4.581489135E-3,-1.023199316E-2
5.012816800E-1,-6.108652451E-4,-1.069014193E-3,-1.252273750E-2
5.035182520E-1,6.872233935E-3,0.000000000E0,-1.130100712E-2
5.057560450E-1,5.650503561E-3,0.000000000E0,-1.130100712E-2
5.079890160E-1,3.207042580E-3,1.221730490E-3,-1.130100712E-2
5.102158230E-1,-4.276056774E-3,-4.581489135E-3,-1.252273750E-2
5.124605740E-1,-6.872233935E-3,-1.069014147E-2,-1.267545391E-2
5.146852440E-1,-8.093964309E-3,-7.024950348E-3,-1.145372353E-2
5.169276750E-1,3.054326167E-3,-3.512475174E-3,-1.130100712E-2
5.191729760E-1,6.719517522E-3,-2.443460980E-3,-1.007927675E-2
5.214122950E-1,9.162978269E-3,-6.108652335E-3,-1.130100712E-2
5.236497830E-1,1.832595794E-3,-5.955935922E-3,-1.252273750E-2
5.258826930E-1,6.108652451E-4,-2.290744567E-3,-1.007927675E-2
5.281183500E-1,-4.581489484E-4,1.374446787E-3,-1.252273750E-2
5.303543730E-1,-3.054326167E-3,-2.290744567E-3,-1.252273750E-2
5.325877710E-1,6.108652451E-4,-4.734205548E-3,-1.007927675E-2
5.348153100E-1,3.054326167E-3,-4.734205548E-3,-8.857546374E-3
5.370636010E-1,4.276056774E-3,-3.665191587E-3,-1.007927675E-2
5.393002950E-1,2.901609987E-3,-7.177666761E-3,-8.857546374E-3
5.415410180E-1,5.497787148E-3,-4.886921961E-3,-1.007927675E-2
5.437739280E-1,1.832595794E-3,-2.290744567E-3,-1.252273750E-2
5.460095240E-1,-3.054326167E-3,-2.290744567E-3,-1.007927675E-2
5.482454250E-1,-4.276056774E-3,-3.512475174E-3,-1.130100712E-2
5.504816310E-1,-6.108652451E-4,-4.734205548E-3,-1.252273750E-2
5.527184470E-1,6.719517522E-3,-2.443460980E-3,-1.130100712E-2
5.549548980E-1,4.276056774E-3,-2.443460980E-3,-8.857546374E-3
5.571911650E-1,6.108652451E-4,-3.512475174E-3,-6.414085161E-3
5.594288360E-1,-3.054326167E-3,-3.512475174E-3,-8.857546374E-3
5.616646150E-1,-4.428773187E-3,-5.803219974E-3,-1.007927675E-2
5.639000880E-1,-8.093964309E-3,-7.024950348E-3,-1.145372353E-2
5.661361110E-1,-1.985311974E-3,-1.084285788E-2,-1.374446787E-2
5.683726830E-1,-6.108652451E-4,-7.177666761E-3,-1.618792862E-2
5.706091330E-1,5.497787148E-3,-3.665191587E-3,-1.252273750E-2
5.728428980E-1,5.650503561E-3,1.221730490E-3,-1.252273750E-2
5.750703150E-1,6.872233935E-3,-1.221730490E-3,-1.252273750E-2
5.773201930E-1,3.054326167E-3,-3.512475174E-3,-1.496619824E-2
5.795562770E-1,-6.108652451E-4,-4.734205548E-3,-1.252273750E-2
5.817942530E-1,-1.985311974E-3,-1.084285788E-2,-8.857546374E-3
5.840275300E-1,4.581489484E-4,-1.084285788E-2,-8.857546374E-3
5.862639800E-1,1.679879380E-3,-8.399397135E-3,-1.007927675E-2
5.885004300E-1,4.276056774E-3,-7.177666761E-3,-1.007927675E-2
5.907367580E-1,4.276056774E-3,-6.108652335E-3,-1.252273750E-2
5.929735740E-1,4.428773187E-3,0.000000000E0,-1.252273750E-2
5.952111230E-1,7.635815418E-4,4.886921961E-3,-1.374446787E-2
5.974469630E-1,-5.345070735E-3,3.817907767E-3,-1.374446787E-2
5.996821930E-1,-5.497787148E-3,1.374446787E-3,-1.374446787E-2
6.019179720E-1,-6.108652451E-4,-3.512475174E-3,-1.252273750E-2
6.041544220E-1,6.108652451E-4,-4.734205548E-3,-1.007927675E-2
6.063912380E-1,5.497787148E-3,-7.330383174E-3,-1.007927675E-2
6.086276880E-1,1.679879380E-3,-5.955935922E-3,-8.857546374E-3
6.108634660E-1,-3.207042580E-3,-4.734205548E-3,-1.007927675E-2
6.130975980E-1,-3.207042580E-3,-7.177666761E-3,-1.374446787E-2
6.153378320E-1,-1.832595794E-3,-5.955935922E-3,-1.374446787E-2
6.175731230E-1,-1.679879380E-3,2.596177394E-3,-1.374446787E-2
6.198102440E-1,4.428773187E-3,3.665191587E-3,-1.374446787E-2
6.220455350E-1,5.650503561E-3,0.000000000E0,-1.252273750E-2
6.242821680E-1,1.038470957E-2,-3.665191587E-3,-1.374446787E-2
6.265186790E-1,6.719517522E-3,-3.665191587E-3,-1.130100712E-2
6.287550680E-1,-1.985311974E-3,-5.955935922E-3,-1.007927675E-2
6.309926780E-1,-8.093964309E-3,-9.468411095E-3,-1.023199316E-2
6.332288850E-1,-4.428773187E-3,-8.246680722E-3,-1.145372353E-2
6.354640530E-1,4.276056774E-3,-7.177666761E-3,-1.252273750E-2
6.377001370E-1,9.162978269E-3,-6.108652335E-3,-1.130100712E-2
6.399337180E-1,6.719517522E-3,-2.443460980E-3,-1.252273750E-2
6.421616240E-1,6.872233935E-3,-1.221730490E-3,-1.252273750E-2
6.444098540E-1,1.832595794E-3,-1.069014193E-3,-1.130100712E-2
6.466418490E-1,1.832595794E-3,-2.290744567E-3,-1.130100712E-2
6.488693270E-1,1.832595794E-3,-3.512475174E-3,-1.252273750E-2
6.511197540E-1,4.123340361E-3,-1.084285788E-2,-1.130100712E-2
6.533551660E-1,4.276056774E-3,-6.108652335E-3,-8.857546374E-3
6.555955220E-1,6.719517522E-3,-7.330383174E-3,-8.857546374E-3
6.578300190E-1,3.054326167E-3,-7.177666761E-3,-1.130100712E-2
6.600733660E-1,-1.832595794E-3,-1.069014193E-3,-1.252273750E-2
6.622974880E-1,-3.054326167E-3,-3.512475174E-3,-1.374446787E-2
6.645371120E-1,-1.832595794E-3,-2.290744567E-3,-1.252273750E-2
6.667694120E-1,-6.108652451E-4,-5.955935922E-3,-1.252273750E-2
6.689997580E-1,1.832595794E-3,-2.290744567E-3,-1.130100712E-2
6.712462800E-1,4.276056774E-3,-2.443460980E-3,-1.007927675E-2
6.734821200E-1,3.054326167E-3,-4.734205548E-3,-1.007927675E-2
6.757219260E-1,5.497787148E-3,-6.108652335E-3,-1.007927675E-2
6.779524560E-1,3.054326167E-3,-5.955935922E-3,-8.857546374E-3
6.801796290E-1,-9.162978968E-4,-1.328631863E-2,-1.007927675E-2
6.824251120E-1,-5.650503561E-3,-4.581489135E-3,-1.145372353E-2
6.846536890E-1,-5.650503561E-3,-5.803219974E-3,-1.267545391E-2
6.869017970E-1,1.832595794E-3,-3.512475174E-3,-1.130100712E-2
6.891251860E-1,4.276056774E-3,-6.108652335E-3,-1.007927675E-2
6.913762230E-1,6.719517522E-3,-6.108652335E-3,-1.007927675E-2
6.936098050E-1,4.581489484E-4,-7.177666761E-3,-8.857546374E-3
6.958493670E-1,-4.428773187E-3,-1.069014147E-2,-1.267545391E-2
6.980826440E-1,-6.872233935E-3,-1.069014147E-2,-1.267545391E-2
7.003189720E-1,-4.428773187E-3,-8.246680722E-3,-8.857546374E-3
7.025565210E-1,4.581489484E-4,-1.084285788E-2,-1.130100712E-2
7.047926660E-1,1.832595794E-3,-4.734205548E-3,-1.007927675E-2
7.070283230E-1,1.832595794E-3,-2.290744567E-3,-1.130100712E-2
7.092643460E-1,-1.832595794E-3,-3.512475174E-3,-1.374446787E-2
7.115006740E-1,-1.832595794E-3,-3.512475174E-3,-1.252273750E-2
7.137372460E-1,-4.428773187E-3,-7.024950348E-3,-1.511891466E-2
7.159737580E-1,-4.428773187E-3,-8.246680722E-3,-1.389718428E-2
7.182101470E-1,-1.985311974E-3,-7.177666761E-3,-1.130100712E-2
7.204476950E-1,4.581489484E-4,-8.399397135E-3,-1.130100712E-2
7.226807280E-1,6.108652451E-4,-5.955935922E-3,-1.252273750E-2
7.249071680E-1,-1.832595794E-3,-4.734205548E-3,-1.007927675E-2
7.271551540E-1,-4.276056774E-3,-1.069014193E-3,-1.252273750E-2
7.293915430E-1,-4.276056774E-3,-1.069014193E-3,-1.496619824E-2
7.316313510E-1,-6.719517522E-3,-2.138028387E-3,-1.511891466E-2
7.338646880E-1,-3.054326167E-3,-2.290744567E-3,-1.252273750E-2
7.361013210E-1,-3.207042580E-3,-8.246680722E-3,-1.007927675E-2
7.383387480E-1,4.581489484E-4,-8.399397135E-3,-1.007927675E-2
7.405745880E-1,2.901609987E-3,-7.177666761E-3,-8.857546374E-3
7.428099390E-1,1.832595794E-3,-3.512475174E-3,-1.130100712E-2
7.450459610E-1,3.054326167E-3,-1.221730490E-3,-1.130100712E-2
7.472823510E-1,-1.832595794E-3,1.374446787E-3,-1.252273750E-2
7.495189850E-1,-6.719517522E-3,-3.359758761E-3,-1.389718428E-2
7.517555570E-1,-5.650503561E-3,-4.581489135E-3,-1.145372353E-2
7.539922510E-1,-4.276056774E-3,-3.512475174E-3,-1.130100712E-2
7.562299830E-1,-6.108652451E-4,-1.069014193E-3,-1.252273750E-2
7.584657010E-1,1.832595794E-3,-3.512475174E-3,-1.130100712E-2
7.606975730E-1,4.581489484E-4,-7.177666761E-3,-1.130100712E-2
7.629238310E-1,-4.428773187E-3,-5.803219974E-3,-1.252273750E-2
7.651732210E-1,-6.872233935E-3,-8.246680722E-3,-1.389718428E-2
7.674101590E-1,-6.872233935E-3,-7.024950348E-3,-1.267545391E-2
7.696499660E-1,-6.108652451E-4,-2.290744567E-3,-1.130100712E-2
7.718833640E-1,1.832595794E-3,1.527163113E-4,-1.007927675E-2
7.741207910E-1,1.985311974E-3,3.665191587E-3,-1.130100712E-2
7.763566310E-1,5.650503561E-3,0.000000000E0,-1.496619824E-2
7.785922270E-1,6.872233935E-3,-1.221730490E-3,-1.374446787E-2
7.808282500E-1,3.054326167E-3,-2.443460980E-3,-1.252273750E-2
7.830647000E-1,6.108652451E-4,-5.955935922E-3,-1.130100712E-2
7.853013940E-1,4.581489484E-4,-9.621127509E-3,-1.252273750E-2
7.875374780E-1,2.901609987E-3,-8.399397135E-3,-1.007927675E-2
7.897741110E-1,4.276056774E-3,-4.886921961E-3,-1.007927675E-2
7.920115380E-1,9.162978269E-3,-3.665191587E-3,-8.857546374E-3
7.942475610E-1,3.054326167E-3,-2.443460980E-3,-1.007927675E-2
7.964833400E-1,1.832595794E-3,-2.290744567E-3,-1.007927675E-2
7.987191190E-1,6.108652451E-4,-5.955935922E-3,-1.130100712E-2
8.009555080E-1,3.054326167E-3,-5.955935922E-3,-1.496619824E-2
8.031920190E-1,4.276056774E-3,-3.665191587E-3,-1.252273750E-2
8.054271880E-1,5.497787148E-3,-2.443460980E-3,-1.130100712E-2
8.076593650E-1,5.497787148E-3,-2.443460980E-3,-7.635815535E-3
8.099025290E-1,5.650503561E-3,1.221730490E-3,-8.857546374E-3
8.121385530E-1,-6.108652451E-4,-1.069014193E-3,-1.007927675E-2
8.143753690E-1,-4.428773187E-3,-8.246680722E-3,-8.857546374E-3
8.166100490E-1,-6.872233935E-3,-8.246680722E-3,-1.145372353E-2
8.188436910E-1,-3.207042580E-3,-7.177666761E-3,-1.007927675E-2
8.210685450E-1,3.054326167E-3,-4.734205548E-3,-1.130100712E-2
8.233078640E-1,5.497787148E-3,-1.221730490E-3,-1.130100712E-2
8.255563990E-1,5.650503561E-3,2.443460980E-3,-1.252273750E-2
8.277968170E-1,7.635815418E-4,6.108652335E-3,-1.252273750E-2
8.300326560E-1,-3.054326167E-3,1.374446787E-3,-1.374446787E-2
8.322621480E-1,-6.872233935E-3,-8.246680722E-3,-1.267545391E-2
8.344896270E-1,-8.093964309E-3,-7.024950348E-3,-1.267545391E-2
8.367377350E-1,-4.428773187E-3,-8.246680722E-3,-1.267545391E-2
8.389742460E-1,2.901609987E-3,-9.621127509E-3,-1.007927675E-2
8.412132590E-1,6.719517522E-3,-3.665191587E-3,-1.007927675E-2
8.434471460E-1,8.093964309E-3,-1.221730490E-3,-1.130100712E-2
8.456844510E-1,8.093964309E-3,-1.221730490E-3,-1.252273750E-2
8.479176050E-1,1.832595794E-3,-3.512475174E-3,-1.374446787E-2
8.501439240E-1,-6.108652451E-4,-2.290744567E-3,-1.252273750E-2
8.523920320E-1,6.108652451E-4,-5.955935922E-3,-1.252273750E-2
8.546286040E-1,4.276056774E-3,-4.886921961E-3,-1.496619824E-2
8.568681660E-1,9.162978269E-3,-4.886921961E-3,-1.252273750E-2
8.591015650E-1,1.175915636E-2,-1.374446787E-3,-9.926560335E-3
8.613383200E-1,6.719517522E-3,-1.221730490E-3,-1.130100712E-2
8.635756250E-1,1.832595794E-3,-3.512475174E-3,-1.252273750E-2
8.658117090E-1,-3.054326167E-3,-4.734205548E-3,-1.374446787E-2
8.680440090E-1,-1.832595794E-3,-2.290744567E-3,-1.252273750E-2
8.702711820E-1,-1.832595794E-3,-4.734205548E-3,-1.130100712E-2
8.725197170E-1,4.276056774E-3,-4.886921961E-3,-1.130100712E-2
8.747562280E-1,1.175915636E-2,-1.527163113E-4,-9.926560335E-3
8.769953020E-1,1.175915636E-2,1.069014193E-3,-1.114829071E-2
8.792289450E-1,6.872233935E-3,0.000000000E0,-1.007927675E-2
8.814666770E-1,3.207042580E-3,0.000000000E0,-1.252273750E-2
8.837026390E-1,-1.832595794E-3,-2.290744567E-3,-1.374446787E-2
8.859381740E-1,6.108652451E-4,-1.069014193E-3,-1.252273750E-2
8.881739530E-1,9.162978269E-3,-4.886921961E-3,-1.252273750E-2
8.904105860E-1,1.420261711E-2,-2.596177394E-3,-1.237002108E-2
8.926471580E-1,1.053742506E-2,1.069014193E-3,-1.114829071E-2
8.948837920E-1,5.650503561E-3,0.000000000E0,-1.252273750E-2
8.971203640E-1,6.108652451E-4,-2.290744567E-3,-1.007927675E-2
8.993579130E-1,-1.832595794E-3,-2.290744567E-3,-1.130100712E-2
9.015938750E-1,1.832595794E-3,-4.734205548E-3,-1.374446787E-2
9.038289820E-1,4.276056774E-3,-7.177666761E-3,-1.374446787E-2
9.060650660E-1,5.497787148E-3,-6.108652335E-3,-1.130100712E-2
9.083015780E-1,6.719517522E-3,-2.443460980E-3,-1.374446787E-2
9.105344270E-1,5.650503561E-3,0.000000000E0,-1.374446787E-2
9.127601960E-1,1.985311974E-3,1.527163113E-4,-1.374446787E-2
9.150111720E-1,6.108652451E-4,-1.069014193E-3,-1.252273750E-2
9.172487210E-1,-1.832595794E-3,-3.512475174E-3,-1.374446787E-2
9.194881620E-1,-6.872233935E-3,-5.803219974E-3,-1.145372353E-2
9.217200950E-1,-3.207042580E-3,-5.955935922E-3,-1.252273750E-2
9.239559960E-1,7.635815418E-4,1.374446787E-3,-1.374446787E-2
9.261928130E-1,7.635815418E-4,3.817907767E-3,-1.374446787E-2
9.284290800E-1,-1.679879380E-3,2.596177394E-3,-1.374446787E-2
9.306654690E-1,-4.276056774E-3,-1.069014193E-3,-1.252273750E-2
9.329020410E-1,-9.162978269E-3,-9.162978968E-4,-1.145372353E-2
9.351398340E-1,-9.315694682E-3,-5.803219974E-3,-1.267545391E-2
9.373756740E-1,-5.650503561E-3,-7.024950348E-3,-1.023199316E-2
9.396110260E-1,1.679879380E-3,-7.177666761E-3,-8.857546374E-3
9.418469880E-1,4.276056774E-3,-4.886921961E-3,-1.007927675E-2
9.440834380E-1,4.276056774E-3,-3.665191587E-3,-8.857546374E-3
9.463202540E-1,3.054326167E-3,-2.443460980E-3,-1.007927675E-2
9.485565820E-1,1.832595794E-3,-3.512475174E-3,-1.252273750E-2
9.507932150E-1,3.054326167E-3,-4.734205548E-3,-1.252273750E-2
9.530306420E-1,5.497787148E-3,-2.443460980E-3,-1.252273750E-2
9.552664820E-1,6.872233935E-3,1.221730490E-3,-1.252273750E-2
9.575018340E-1,1.053742506E-2,-2.443460980E-3,-1.374446787E-2
9.597379180E-1,8.093964309E-3,-1.221730490E-3,-1.130100712E-2
9.619745510E-1,6.719517522E-3,-3.665191587E-3,-1.007927675E-2
9.642111840E-1,6.872233935E-3,0.000000000E0,-1.130100712E-2
9.664476350E-1,6.108652451E-4,-2.290744567E-3,-1.374446787E-2
9.686837180E-1,-7.635815418E-4,-5.955935922E-3,-1.130100712E-2
9.709213280E-1,-7.635815418E-4,-7.177666761E-3,-1.252273750E-2
9.731575950E-1,1.832595794E-3,-3.512475174E-3,-1.130100712E-2
9.753931300E-1,4.276056774E-3,-1.221730490E-3,-1.007927675E-2
9.776293360E-1,4.428773187E-3,4.886921961E-3,-1.374446787E-2
9.798654200E-1,4.428773187E-3,2.443460980E-3,-1.374446787E-2
9.820993070E-1,-4.581489484E-4,1.374446787E-3,-1.496619824E-2
9.843267240E-1,-4.276056774E-3,-1.069014193E-3,-1.496619824E-2
9.865748930E-1,-5.650503561E-3,-5.803219974E-3,-1.145372353E-2
9.888124410E-1,-3.054326167E-3,-1.069014193E-3,-1.130100712E-2
9.910516380E-1,7.635815418E-4,1.374446787E-3,-1.130100712E-2
9.932838770E-1,-6.108652451E-4,1.527163113E-4,-1.130100712E-2
9.955199610E-1,-4.276056774E-3,-1.069014193E-3,-1.130100712E-2
9.977564730E-1,-7.941247895E-3,-2.138028387E-3,-1.267545391E-2
9.999931060E-1,-9.162978269E-3,-2.138028387E-3,-1.267545391E-2
1.002229434E0,-6.872233935E-3,-5.803219974E-3,-1.145372353E-2
1.004466006E0,-3.054326167E-3,-3.512475174E-3,-1.496619824E-2
1.006702395E0,3.054326167E-3,-3.512475174E-3,-1.374446787E-2
1.008932192E0,5.497787148E-3,-1.221730490E-3,-1.130100712E-2
1.011160891E0,1.832595794E-3,-1.069014193E-3,-1.252273750E-2
1.013396609E0,7.635815418E-4,2.596177394E-3,-1.130100712E-2
1.015636843E0,-6.108652451E-4,-1.069014193E-3,-1.007927675E-2
1.017884524E0,1.832595794E-3,-4.734205548E-3,-1.130100712E-2
1.020110415E0,1.832595794E-3,-4.734205548E-3,-1.252273750E-2
1.022348086E0,4.276056774E-3,-2.443460980E-3,-1.130100712E-2
1.024594424E0,6.108652451E-4,-3.512475174E-3,-1.374446787E-2
1.026830264E0,6.108652451E-4,-2.290744567E-3,-1.252273750E-2
1.029057071E0,1.832595794E-3,-2.290744567E-3,-8.857546374E-3
1.031301944E0,4.276056774E-3,-3.665191587E-3,-1.130100712E-2
1.033538455E0,4.276056774E-3,-2.443460980E-3,-1.252273750E-2
1.035778017E0,1.832595794E-3,-1.069014193E-3,-1.252273750E-2
1.038008547E0,-6.108652451E-4,1.527163113E-4,-1.130100712E-2
1.040236514E0,-1.832595794E-3,-3.512475174E-3,-1.130100712E-2
1.042485537E0,1.832595794E-3,-3.512475174E-3,-1.130100712E-2
1.044721621E0,3.054326167E-3,-1.221730490E-3,-1.130100712E-2
1.046959841E0,9.162978269E-3,-3.665191587E-3,-1.130100712E-2
1.049193057E0,1.038470957E-2,-2.443460980E-3,-9.926560335E-3
1.051429629E0,5.650503561E-3,2.443460980E-3,-1.007927675E-2
1.053666201E0,-3.054326167E-3,-4.734205548E-3,-1.252273750E-2
1.055902530E0,-3.054326167E-3,-3.512475174E-3,-1.374446787E-2
1.058139041E0,-6.108652451E-4,1.527163113E-4,-1.130100712E-2
1.060373354E0,3.207042580E-3,3.665191587E-3,-1.130100712E-2
1.062600467E0,6.872233935E-3,4.886921961E-3,-1.374446787E-2
1.064847781E0,3.207042580E-3,1.221730490E-3,-1.252273750E-2
1.067082766E0,-6.108652451E-4,-2.290744567E-3,-1.130100712E-2
1.069318850E0,-6.872233935E-3,-5.803219974E-3,-1.389718428E-2
1.071557193E0,-6.872233935E-3,-7.024950348E-3,-1.145372353E-2
1.073793887E0,-3.054326167E-3,-4.734205548E-3,-1.130100712E-2
1.076031131E0,-6.108652451E-4,-2.290744567E-3,-1.007927675E-2
1.078267520E0,5.650503561E-3,2.443460980E-3,-1.007927675E-2
1.080503482E0,3.054326167E-3,-1.221730490E-3,-1.374446787E-2
1.082738955E0,1.985311974E-3,2.443460980E-3,-1.130100712E-2
1.084975100E0,1.985311974E-3,1.221730490E-3,-1.374446787E-2
1.087211856E0,-6.108652451E-4,1.527163113E-4,-1.374446787E-2
1.089448184E0,-4.123340361E-3,3.817907767E-3,-1.496619824E-2
1.091684451E0,-3.054326167E-3,-2.290744567E-3,-1.252273750E-2
1.093920718E0,6.108652451E-4,-1.069014193E-3,-1.252273750E-2
1.096158328E0,4.428773187E-3,3.665191587E-3,-8.857546374E-3
1.098394412E0,4.276056774E-3,-1.221730490E-3,-1.130100712E-2
1.100629824E0,-1.832595794E-3,-1.069014193E-3,-1.130100712E-2
1.102865909E0,-7.941247895E-3,3.054326226E-4,-1.130100712E-2
1.105102481E0,-8.093964309E-3,-3.359758761E-3,-1.252273750E-2
1.107339053E0,6.108652451E-4,1.374446787E-3,-1.130100712E-2
1.109575381E0,4.276056774E-3,-2.443460980E-3,-1.130100712E-2
1.111811953E0,3.207042580E-3,1.221730490E-3,-1.252273750E-2
1.114049502E0,1.832595794E-3,-2.290744567E-3,-1.252273750E-2
1.116285586E0,-1.832595794E-3,-2.290744567E-3,-1.252273750E-2
1.118520938E0,-4.276056774E-3,1.374446787E-3,-1.252273750E-2
1.120756961E0,-1.832595794E-3,1.374446787E-3,-1.130100712E-2
1.122993350E0,1.985311974E-3,3.665191587E-3,-1.252273750E-2
1.125230166E0,5.497787148E-3,-2.443460980E-3,-1.252273750E-2
1.127466494E0,5.650503561E-3,0.000000000E0,-1.252273750E-2
1.129703127E0,5.650503561E-3,0.000000000E0,-1.007927675E-2
1.131940554E0,5.650503561E-3,6.108652335E-3,-1.130100712E-2
1.134176394E0,-1.832595794E-3,1.374446787E-3,-1.007927675E-2
1.136411746E0,-4.276056774E-3,-2.290744567E-3,-1.252273750E-2
1.138647769E0,-8.093964309E-3,-3.359758761E-3,-1.267545391E-2
1.140884219E0,-3.054326167E-3,-1.069014193E-3,-1.374446787E-2
1.143121096E0,1.832595794E-3,1.527163113E-4,-1.130100712E-2
1.145357669E0,8.093964309E-3,3.665191587E-3,-1.114829071E-2
1.147592959E0,4.428773187E-3,4.886921961E-3,-1.252273750E-2
1.149823123E0,7.635815418E-4,4.886921961E-3,-1.252273750E-2
1.152054568E0,-4.276056774E-3,2.596177394E-3,-1.252273750E-2
1.154302920E0,-1.832595794E-3,1.527163113E-4,-1.252273750E-2
1.156537661E0,1.832595794E-3,1.527163113E-4,-1.252273750E-2
1.158762515E0,-6.108652451E-4,-1.069014193E-3,-1.130100712E-2
1.161000308E0,3.207042580E-3,4.886921961E-3,-1.130100712E-2
1.163233706E0,1.985311974E-3,1.221730490E-3,-1.374446787E-2
1.165470461E0,7.635815418E-4,2.596177394E-3,-1.130100712E-2
1.167710696E0,6.108652451E-4,1.374446787E-3,-1.007927675E-2
1.169946047E0,-1.832595794E-3,1.527163113E-4,-1.252273750E-2
1.172178469E0,-4.276056774E-3,2.596177394E-3,-1.252273750E-2
1.174418643E0,-5.497787148E-3,2.596177394E-3,-1.374446787E-2
1.176654727E0,-6.108652451E-4,-1.069014193E-3,-1.130100712E-2
1.178892519E0,3.054326167E-3,-1.221730490E-3,-1.130100712E-2
1.181127810E0,5.650503561E-3,1.221730490E-3,-8.857546374E-3
1.183365725E0,5.650503561E-3,0.000000000E0,-1.130100712E-2
1.185607241E0,7.635815418E-4,4.886921961E-3,-1.374446787E-2
1.187839419E0,-5.345070735E-3,3.817907767E-3,-1.496619824E-2
1.190072879E0,-4.123340361E-3,3.817907767E-3,-1.374446787E-2
1.192308169E0,-5.497787148E-3,1.374446787E-3,-1.496619824E-2
1.194546573E0,-6.108652451E-4,-3.512475174E-3,-8.857546374E-3
1.196784121E0,1.832595794E-3,-1.069014193E-3,-1.007927675E-2
1.199018496E0,4.428773187E-3,3.665191587E-3,-1.130100712E-2
1.201255069E0,3.207042580E-3,3.665191587E-3,-1.252273750E-2
1.203492251E0,-4.276056774E-3,-1.069014193E-3,-1.374446787E-2
1.205729373E0,-9.162978269E-3,-9.162978968E-4,-1.511891466E-2
1.207964785E0,-5.497787148E-3,-2.138028387E-3,-1.252273750E-2
1.210200320E0,7.635815418E-4,1.374446787E-3,-1.374446787E-2
1.212439272E0,5.650503561E-3,3.665191587E-3,-1.374446787E-2
1.214687807E0,4.428773187E-3,4.886921961E-3,-1.130100712E-2
1.216924440E0,3.359758761E-3,8.552113548E-3,-1.374446787E-2
1.219160952E0,-4.276056774E-3,1.374446787E-3,-1.252273750E-2
1.221395693E0,-5.497787148E-3,-9.162978968E-4,-1.374446787E-2
1.223631533E0,-6.719517522E-3,-9.162978968E-4,-1.252273750E-2
1.225866580E0,-4.581489484E-4,1.374446787E-3,-1.374446787E-2
1.228097720E0,4.428773187E-3,2.443460980E-3,-1.252273750E-2
1.230327517E0,3.207042580E-3,3.665191587E-3,-1.252273750E-2
1.232575808E0,6.108652451E-4,-2.290744567E-3,-1.252273750E-2
1.234812991E0,-4.276056774E-3,-2.290744567E-3,-1.252273750E-2
1.237052005E0,-1.832595794E-3,1.527163113E-4,-1.130100712E-2
1.239286685E0,-1.679879380E-3,5.039638374E-3,-1.130100712E-2
1.241522891E0,3.207042580E-3,2.443460980E-3,-1.007927675E-2
1.243757937E0,6.108652451E-4,-3.512475174E-3,-1.130100712E-2
1.245993838E0,6.108652451E-4,-5.955935922E-3,-1.130100712E-2
1.248230533E0,4.428773187E-3,4.886921961E-3,-1.130100712E-2
1.250466983E0,3.207042580E-3,3.665191587E-3,-1.130100712E-2
1.252703555E0,4.428773187E-3,6.108652335E-3,-1.007927675E-2
1.254939883E0,7.635815418E-4,4.886921961E-3,-1.252273750E-2
1.257177676E0,1.985311974E-3,1.527163113E-4,-1.496619824E-2
1.259413455E0,-1.832595794E-3,-3.512475174E-3,-1.130100712E-2
1.261648867E0,4.276056774E-3,-2.443460980E-3,-1.007927675E-2
1.263884891E0,4.276056774E-3,0.000000000E0,-1.007927675E-2
1.266121463E0,3.207042580E-3,6.108652335E-3,-1.007927675E-2
1.268357852E0,4.428773187E-3,4.886921961E-3,-1.007927675E-2
1.270594363E0,-1.679879380E-3,3.817907767E-3,-1.252273750E-2
1.272830691E0,-6.719517522E-3,-3.359758761E-3,-1.389718428E-2
1.275068362E0,-5.650503561E-3,-4.581489135E-3,-1.007927675E-2
1.277304568E0,-4.276056774E-3,1.527163113E-4,-1.252273750E-2
1.279539798E0,1.985311974E-3,3.665191587E-3,-1.374446787E-2
1.281776065E0,3.207042580E-3,3.665191587E-3,-1.130100712E-2
1.284012332E0,7.635815418E-4,3.817907767E-3,-1.252273750E-2
1.286249026E0,-1.679879380E-3,3.817907767E-3,-1.374446787E-2
1.288485476E0,-4.276056774E-3,1.527163113E-4,-1.374446787E-2
1.290721926E0,-1.832595794E-3,-1.069014193E-3,-1.252273750E-2
1.292959658E0,-1.832595794E-3,1.527163113E-4,-1.007927675E-2
1.295195498E0,-6.108652451E-4,1.374446787E-3,-1.007927675E-2
1.297428164E0,4.428773187E-3,4.886921961E-3,-1.130100712E-2
1.299655032E0,1.985311974E-3,4.886921961E-3,-1.374446787E-2
1.301903018E0,-2.901609987E-3,5.039638374E-3,-1.374446787E-2
1.304140017E0,-4.123340361E-3,3.817907767E-3,-1.374446787E-2
1.306379336E0,-1.832595794E-3,1.527163113E-4,-1.252273750E-2
1.308613040E0,6.108652451E-4,-1.069014193E-3,-1.252273750E-2
1.310850283E0,1.832595794E-3,-2.290744567E-3,-1.252273750E-2
1.313086612E0,3.207042580E-3,1.221730490E-3,-1.007927675E-2
1.315321963E0,5.650503561E-3,0.000000000E0,-1.252273750E-2
1.317555178E0,3.207042580E-3,1.221730490E-3,-1.007927675E-2
1.319779971E0,-6.108652451E-4,-1.069014193E-3,-1.007927675E-2
1.322019534E0,4.276056774E-3,-3.665191587E-3,-1.007927675E-2
1.324267764E0,1.832595794E-3,1.527163113E-4,-1.007927675E-2
1.326507022E0,7.635815418E-4,2.596177394E-3,-1.252273750E-2
1.328744571E0,-4.581489484E-4,2.596177394E-3,-1.496619824E-2
1.330977664E0,7.635815418E-4,3.817907767E-3,-1.374446787E-2
1.333213076E0,3.207042580E-3,3.665191587E-3,-1.374446787E-2
1.335449100E0,1.985311974E-3,4.886921961E-3,-1.252273750E-2
1.337685428E0,-4.123340361E-3,5.039638374E-3,-1.252273750E-2
1.339922305E0,-1.038470957E-2,2.748893574E-3,-1.130100712E-2
1.342159549E0,-7.941247895E-3,1.527163084E-3,-1.007927675E-2
1.344394961E0,-7.941247895E-3,1.527163084E-3,-1.252273750E-2
1.346631961E0,-1.832595794E-3,-1.069014193E-3,-1.007927675E-2
1.348866153E0,6.108652451E-4,1.527163113E-4,-1.007927675E-2
1.351104251E0,4.428773187E-3,2.443460980E-3,-1.374446787E-2
1.353340274E0,7.635815418E-4,6.108652335E-3,-1.252273750E-2
1.355577151E0,-5.345070735E-3,3.817907767E-3,-1.374446787E-2
1.357811892E0,-4.581489484E-4,3.817907767E-3,-1.496619824E-2
1.360042238E0,3.207042580E-3,1.221730490E-3,-1.130100712E-2
1.362276858E0,5.650503561E-3,3.665191587E-3,-1.374446787E-2
1.364523867E0,5.650503561E-3,6.108652335E-3,-1.252273750E-2
1.366757876E0,1.985311974E-3,2.443460980E-3,-1.130100712E-2
1.368985110E0,6.108652451E-4,-1.069014193E-3,-1.007927675E-2
1.371230777E0,-4.581489484E-4,2.596177394E-3,-1.252273750E-2
1.373467410E0,-1.832595794E-3,-1.069014193E-3,-1.252273750E-2
1.375702456E0,3.054326167E-3,-1.221730490E-3,-1.374446787E-2
1.377919070E0,3.054326167E-3,-1.221730490E-3,-1.374446787E-2
1.380164981E0,5.650503561E-3,-1.221730490E-3,-1.374446787E-2
1.382414492E0,5.650503561E-3,0.000000000E0,-1.252273750E-2
1.384655214E0,6.872233935E-3,1.221730490E-3,-1.007927675E-2
1.386886172E0,1.985311974E-3,2.443460980E-3,-1.252273750E-2
1.389109988E0,1.985311974E-3,3.665191587E-3,-1.130100712E-2
1.391358340E0,-1.832595794E-3,1.527163113E-4,-1.130100712E-2
1.393595095E0,-4.276056774E-3,1.527163113E-4,-1.130100712E-2
1.395834476E0,-4.276056774E-3,1.527163113E-4,-1.252273750E-2
1.398065249E0,1.832595794E-3,1.527163113E-4,-1.374446787E-2
1.400294070E0,6.872233935E-3,3.665191587E-3,-1.130100712E-2
1.402541446E0,5.803219974E-3,7.330383174E-3,-1.252273750E-2
1.404777041E0,-1.679879380E-3,5.039638374E-3,-1.374446787E-2
1.407015871E0,-6.566801574E-3,6.261368748E-3,-1.374446787E-2
1.409249209E0,-7.941247895E-3,2.748893574E-3,-1.496619824E-2
1.411486026E0,-4.276056774E-3,1.374446787E-3,-1.252273750E-2
1.413722537E0,-4.581489484E-4,2.596177394E-3,-1.007927675E-2
1.415959048E0,4.428773187E-3,1.221730490E-3,-1.130100712E-2
1.418196719E0,1.985311974E-3,2.443460980E-3,-1.374446787E-2
1.420429446E0,-3.054326167E-3,1.527163113E-4,-1.374446787E-2
1.422655703E0,-7.941247895E-3,3.054326226E-4,-1.374446787E-2
1.424903995E0,-5.497787148E-3,2.596177394E-3,-1.130100712E-2
1.427140811E0,-5.345070735E-3,5.039638374E-3,-1.252273750E-2
1.429380191E0,-4.581489484E-4,2.596177394E-3,-1.252273750E-2
1.431613467E0,7.635815418E-4,3.817907767E-3,-1.374446787E-2
1.433849978E0,3.207042580E-3,7.330383174E-3,-1.252273750E-2
1.436087588E0,-1.679879380E-3,2.596177394E-3,-1.252273750E-2
1.438323733E0,-4.276056774E-3,2.596177394E-3,-1.252273750E-2
1.440559268E0,-4.276056774E-3,-3.512475174E-3,-1.130100712E-2
1.442795108E0,-3.054326167E-3,1.527163113E-4,-1.007927675E-2
1.445031619E0,-1.679879380E-3,6.261368748E-3,-1.007927675E-2
1.447267886E0,4.581489135E-3,7.330383174E-3,-1.252273750E-2
1.449504275E0,5.650503561E-3,2.443460980E-3,-1.252273750E-2
1.451740908E0,7.635815418E-4,2.596177394E-3,-1.252273750E-2
1.453978701E0,7.635815418E-4,4.886921961E-3,-1.130100712E-2
1.456214602E0,-4.123340361E-3,8.704829961E-3,-1.130100712E-2
1.458450198E0,-4.581489484E-4,3.817907767E-3,-1.130100712E-2
1.460686160E0,-4.581489484E-4,2.596177394E-3,-1.130100712E-2
1.462922549E0,-4.581489484E-4,1.374446787E-3,-1.252273750E-2
1.465158999E0,1.985311974E-3,1.221730490E-3,-1.374446787E-2
1.467395144E0,1.832595794E-3,-1.069014193E-3,-1.252273750E-2
1.469632022E0,6.108652451E-4,-2.290744567E-3,-1.007927675E-2
1.471869570E0,3.207042580E-3,3.665191587E-3,-1.130100712E-2
1.474105716E0,-4.581489484E-4,3.817907767E-3,-1.374446787E-2
1.476341006E0,-2.901609987E-3,7.483099122E-3,-1.252273750E-2
1.478577090E0,-4.276056774E-3,2.596177394E-3,-1.252273750E-2
1.480813600E0,-1.832595794E-3,-2.290744567E-3,-1.374446787E-2
1.483049990E0,1.985311974E-3,1.527163113E-4,-1.496619824E-2
1.485286502E0,6.872233935E-3,3.665191587E-3,-1.130100712E-2
1.487522830E0,7.024950348E-3,7.330383174E-3,-1.114829071E-2
1.489760501E0,2.138028387E-3,7.330383174E-3,-1.496619824E-2
1.491996768E0,-2.901609987E-3,3.817907767E-3,-1.130100712E-2
1.494232119E0,-7.941247895E-3,-9.162978968E-4,-1.389718428E-2
1.496467959E0,-4.428773187E-3,-5.803219974E-3,-1.252273750E-2
1.498704471E0,-6.108652451E-4,-1.069014193E-3,-1.130100712E-2
1.500940982E0,4.428773187E-3,1.221730490E-3,-1.130100712E-2
1.503174197E0,5.650503561E-3,2.443460980E-3,-8.857546374E-3
1.505402041E0,1.985311974E-3,3.665191587E-3,-1.252273750E-2
1.507651614E0,-7.788531948E-3,3.970623948E-3,-1.374446787E-2
1.509887942E0,-1.160643995E-2,1.527163084E-3,-1.267545391E-2
1.512125980E0,-9.162978269E-3,-9.162978968E-4,-1.267545391E-2
1.514359073E0,-1.679879380E-3,1.374446787E-3,-1.496619824E-2
1.516595584E0,3.207042580E-3,4.886921961E-3,-1.252273750E-2
1.518832217E0,5.650503561E-3,2.443460980E-3,-1.130100712E-2
1.521068484E0,7.635815418E-4,4.886921961E-3,-1.252273750E-2
1.523304873E0,-3.054326167E-3,1.374446787E-3,-1.374446787E-2
1.525542605E0,-6.719517522E-3,-9.162978968E-4,-1.130100712E-2
1.527778445E0,-1.832595794E-3,1.527163113E-4,-1.130100712E-2
1.530013919E0,6.719517522E-3,-2.443460980E-3,-1.252273750E-2
1.532250186E0,8.093964309E-3,2.443460980E-3,-1.114829071E-2
1.534486758E0,3.207042580E-3,2.443460980E-3,-8.857546374E-3
1.536723086E0,-4.276056774E-3,2.596177394E-3,-1.007927675E-2
1.538959475E0,-4.123340361E-3,3.817907767E-3,-1.374446787E-2
1.541196414E0,-2.901609987E-3,6.261368748E-3,-1.496619824E-2
1.543430605E0,-1.832595794E-3,1.374446787E-3,-1.252273750E-2
1.545657046E0,-4.581489484E-4,2.596177394E-3,-1.374446787E-2
1.547898928E0,6.108652451E-4,1.374446787E-3,-1.130100712E-2
1.550131045E0,3.054326167E-3,-1.221730490E-3,-1.252273750E-2
1.552380556E0,4.428773187E-3,3.665191587E-3,-1.130100712E-2
1.554615053E0,5.650503561E-3,0.000000000E0,-1.130100712E-2
1.556852969E0,-1.832595794E-3,-2.290744567E-3,-1.130100712E-2
1.559086917E0,-5.497787148E-3,-2.138028387E-3,-1.130100712E-2
1.561324832E0,-4.276056774E-3,-2.290744567E-3,-1.130100712E-2
1.563560489E0,1.832595794E-3,-1.069014193E-3,-1.252273750E-2
1.565796145E0,6.872233935E-3,-1.221730490E-3,-1.374446787E-2
1.568029116E0,8.093964309E-3,1.221730490E-3,-1.496619824E-2
1.570256778E0,5.803219974E-3,6.108652335E-3,-1.618792862E-2
1.572505069E0,1.985311974E-3,4.886921961E-3,-1.374446787E-2
1.574741580E0,-1.679879380E-3,5.039638374E-3,-1.252273750E-2
1.576980899E0,-4.581489484E-4,3.817907767E-3,-1.740965992E-2
1.579215518E0,6.108652451E-4,1.527163113E-4,-1.496619824E-2
1.581451541E0,4.428773187E-3,2.443460980E-3,-1.252273750E-2
1.583686953E0,4.276056774E-3,0.000000000E0,-1.007927675E-2
1.585919252E0,1.985311974E-3,1.221730490E-3,-1.130100712E-2
1.588143923E0,7.635815418E-4,2.596177394E-3,-1.130100712E-2
1.590393985E0,-4.581489484E-4,3.817907767E-3,-1.252273750E-2
1.592632510E0,-1.832595794E-3,1.374446787E-3,-1.374446787E-2
1.594872866E0,-2.901609987E-3,3.817907767E-3,-1.496619824E-2
1.597107180E0,7.635815418E-4,1.374446787E-3,-1.496619824E-2
1.599342715E0,7.635815418E-4,1.374446787E-3,-1.374446787E-2
1.601578067E0,1.832595794E-3,-1.069014193E-3,-1.130100712E-2
1.603814151E0,3.054326167E-3,-2.443460980E-3,-1.252273750E-2
1.606050723E0,1.985311974E-3,3.665191587E-3,-1.007927675E-2
1.608287234E0,-6.108652451E-4,1.374446787E-3,-1.130100712E-2
1.610523318E0,-5.497787148E-3,-9.162978968E-4,-1.252273750E-2
1.612759951E0,-5.345070735E-3,2.596177394E-3,-1.496619824E-2
1.614997683E0,4.428773187E-3,1.221730490E-3,-1.496619824E-2
1.617233645E0,4.276056774E-3,-1.221730490E-3,-1.252273750E-2
1.619469241E0,6.872233935E-3,1.221730490E-3,-1.007927675E-2
1.621705203E0,8.093964309E-3,4.886921961E-3,-1.237002108E-2
1.623941592E0,3.207042580E-3,6.108652335E-3,-1.374446787E-2
1.626178103E0,7.635815418E-4,3.817907767E-3,-1.130100712E-2
1.628414492E0,-1.832595794E-3,1.527163113E-4,-1.252273750E-2
1.630648318E0,-4.276056774E-3,-2.290744567E-3,-1.252273750E-2
1.632876650E0,-1.832595794E-3,1.527163113E-4,-1.007927675E-2
1.635124758E0,3.054326167E-3,0.000000000E0,-1.007927675E-2
1.637360232E0,7.941247895E-3,-2.443460980E-3,-8.857546374E-3
1.639599123E0,7.941247895E-3,-3.665191587E-3,-8.857546374E-3
1.641832705E0,3.054326167E-3,-3.512475174E-3,-1.130100712E-2
1.644069278E0,7.635815418E-4,2.596177394E-3,-1.130100712E-2
1.646305789E0,-6.108652451E-4,1.374446787E-3,-1.252273750E-2
1.648541873E0,-1.832595794E-3,1.527163113E-4,-1.130100712E-2
1.650779483E0,4.276056774E-3,-1.221730490E-3,-1.252273750E-2
1.653015750E0,5.650503561E-3,1.221730490E-3,-1.007927675E-2
1.655251223E0,4.428773187E-3,0.000000000E0,-1.252273750E-2
1.657484316E0,3.054326167E-3,-2.443460980E-3,-1.252273750E-2
1.659708926E0,1.832595794E-3,-1.069014193E-3,-1.374446787E-2
1.661948672E0,-5.497787148E-3,1.374446787E-3,-1.374446787E-2
1.664196658E0,-3.054326167E-3,-1.069014193E-3,-1.252273750E-2
1.666436038E0,-1.832595794E-3,-4.734205548E-3,-1.252273750E-2
1.668670779E0,6.108652451E-4,-3.512475174E-3,-1.252273750E-2
1.670894839E0,5.650503561E-3,2.443460980E-3,-1.007927675E-2
1.673141787E0,4.428773187E-3,2.443460980E-3,-1.252273750E-2
1.675378055E0,-1.832595794E-3,1.374446787E-3,-1.374446787E-2
1.677617617E0,-5.345070735E-3,2.596177394E-3,-1.496619824E-2
1.679851321E0,-6.719517522E-3,-9.162978968E-4,-1.496619824E-2
1.682087527E0,-6.719517522E-3,-2.138028387E-3,-1.496619824E-2
1.684323916E0,-6.719517522E-3,-3.359758761E-3,-1.252273750E-2
1.686561648E0,-6.108652451E-4,-4.734205548E-3,-1.130100712E-2
1.688797549E0,6.108652451E-4,-1.069014193E-3,-1.007927675E-2
1.691034610E0,5.650503561E-3,1.221730490E-3,-1.130100712E-2
1.693274783E0,-1.832595794E-3,-1.069014193E-3,-1.130100712E-2
1.695505618E0,-5.497787148E-3,-9.162978968E-4,-1.130100712E-2
1.697742373E0,-1.985311974E-3,-7.177666761E-3,-1.252273750E-2
1.699977846E0,1.832595794E-3,-5.955935922E-3,-1.252273750E-2
1.702217532E0,6.872233935E-3,1.221730490E-3,-1.374446787E-2
1.704452761E0,9.315694682E-3,0.000000000E0,-1.237002108E-2
1.706686159E0,6.872233935E-3,0.000000000E0,-1.130100712E-2
1.708911135E0,1.985311974E-3,2.443460980E-3,-1.007927675E-2
1.711149966E0,-1.832595794E-3,1.527163113E-4,-1.130100712E-2
1.713396426E0,-5.497787148E-3,-2.138028387E-3,-1.374446787E-2
1.715635744E0,-1.985311974E-3,-7.177666761E-3,-1.252273750E-2
1.717869143E0,3.054326167E-3,-4.734205548E-3,-1.252273750E-2
1.720090822E0,3.207042580E-3,1.221730490E-3,-1.374446787E-2
1.722332888E0,-4.581489484E-4,2.596177394E-3,-1.374446787E-2
1.724579470E0,-6.108652451E-4,1.527163113E-4,-1.374446787E-2
1.726815310E0,-5.497787148E-3,1.374446787E-3,-1.496619824E-2
1.729041872E0,-3.054326167E-3,1.374446787E-3,-1.374446787E-2
1.731287600E0,-4.276056774E-3,1.374446787E-3,-1.374446787E-2
1.733524356E0,6.108652451E-4,-2.290744567E-3,-1.252273750E-2
1.735763736E0,-6.108652451E-4,-2.290744567E-3,-1.496619824E-2
1.737994753E0,-6.108652451E-4,-3.512475174E-3,-1.252273750E-2
1.740223513E0,3.054326167E-3,-5.955935922E-3,-1.130100712E-2
1.742470584E0,6.108652451E-4,-1.069014193E-3,-1.007927675E-2
1.744705874E0,7.635815418E-4,1.374446787E-3,-1.252273750E-2
1.746944826E0,-4.581489484E-4,2.596177394E-3,-1.374446787E-2
1.749178653E0,-2.901609987E-3,1.374446787E-3,-1.618792862E-2
1.751415286E0,-1.832595794E-3,-2.290744567E-3,-1.618792862E-2
1.753651736E0,4.276056774E-3,-1.221730490E-3,-1.252273750E-2
1.755887942E0,7.635815418E-4,1.374446787E-3,-1.618792862E-2
1.758122988E0,3.207042580E-3,2.443460980E-3,-1.130100712E-2
1.760349978E0,-4.581489484E-4,2.596177394E-3,-1.130100712E-2
1.762597232E0,6.108652451E-4,-1.069014193E-3,-1.252273750E-2
1.764833377E0,-3.054326167E-3,-1.069014193E-3,-1.252273750E-2
1.767072695E0,-6.108652451E-4,-4.734205548E-3,-1.252273750E-2
1.769306338E0,3.054326167E-3,-2.443460980E-3,-1.618792862E-2
1.771542605E0,4.428773187E-3,1.221730490E-3,-1.374446787E-2
1.773779238E0,1.832595794E-3,1.527163113E-4,-1.252273750E-2
1.776016726E0,-6.108652451E-4,-1.069014193E-3,-1.130100712E-2
1.778252627E0,-4.276056774E-3,-2.290744567E-3,-1.252273750E-2
1.780485293E0,-4.276056774E-3,1.527163113E-4,-1.374446787E-2
1.782712466E0,-1.832595794E-3,-1.069014193E-3,-1.252273750E-2
1.784960391E0,-4.581489484E-4,1.374446787E-3,-1.374446787E-2
1.787194155E0,3.207042580E-3,1.221730490E-3,-1.252273750E-2
1.789424502E0,5.650503561E-3,1.221730490E-3,-1.130100712E-2
1.791670474E0,6.108652451E-4,-5.955935922E-3,-1.130100712E-2
1.793907900E0,1.985311974E-3,1.221730490E-3,-1.252273750E-2
1.796146792E0,-6.108652451E-4,1.527163113E-4,-1.252273750E-2
1.798379336E0,6.108652451E-4,1.527163113E-4,-1.496619824E-2
1.800615298E0,-6.108652451E-4,1.527163113E-4,-1.374446787E-2
1.802851504E0,-1.832595794E-3,-4.734205548E-3,-1.252273750E-2
1.805088260E0,3.054326167E-3,-5.955935922E-3,-1.252273750E-2
1.807324588E0,6.872233935E-3,0.000000000E0,-1.130100712E-2
1.809561343E0,5.650503561E-3,3.665191587E-3,-1.252273750E-2
1.811799014E0,4.428773187E-3,1.221730490E-3,-1.496619824E-2
1.814034854E0,6.108652451E-4,1.527163113E-4,-1.374446787E-2
1.816267275E0,-6.108652451E-4,-3.512475174E-3,-1.252273750E-2
1.818491519E0,1.832595794E-3,-5.955935922E-3,-1.252273750E-2
1.820727847E0,5.497787148E-3,-4.886921961E-3,-1.252273750E-2
1.822967227E0,1.160643995E-2,-3.817907767E-3,-9.926560335E-3
1.825218630E0,1.038470957E-2,-6.108652335E-3,-1.007927675E-2
1.827455142E0,5.497787148E-3,-2.443460980E-3,-1.252273750E-2
1.829693118E0,6.108652451E-4,1.527163113E-4,-1.374446787E-2
1.831925723E0,-3.054326167E-3,-4.734205548E-3,-1.252273750E-2
1.834161380E0,-1.832595794E-3,-3.512475174E-3,-1.252273750E-2
1.836397342E0,3.054326167E-3,-4.734205548E-3,-1.618792862E-2
1.838633975E0,4.428773187E-3,1.221730490E-3,-1.374446787E-2
1.840870242E0,3.207042580E-3,1.221730490E-3,-1.252273750E-2
1.843106570E0,-6.108652451E-4,1.374446787E-3,-1.252273750E-2
1.845343203E0,-4.276056774E-3,1.527163113E-4,-1.252273750E-2
1.847580996E0,-5.497787148E-3,-2.138028387E-3,-1.252273750E-2
1.849816897E0,-5.650503561E-3,-5.803219974E-3,-1.252273750E-2
1.852052432E0,3.054326167E-3,-1.221730490E-3,-1.130100712E-2
1.854288211E0,5.650503561E-3,1.221730490E-3,-1.007927675E-2
1.856524844E0,3.054326167E-3,-1.221730490E-3,-1.252273750E-2
1.858759585E0,1.832595794E-3,-3.512475174E-3,-1.374446787E-2
1.860990603E0,-3.054326167E-3,-2.290744567E-3,-1.374446787E-2
1.863234072E0,-4.276056774E-3,1.374446787E-3,-1.130100712E-2
1.865471865E0,-1.832595794E-3,1.527163113E-4,-1.130100712E-2
1.867709719E0,7.635815418E-4,1.527163113E-4,-1.618792862E-2
1.869943301E0,1.832595794E-3,-3.512475174E-3,-1.618792862E-2
1.872179141E0,4.276056774E-3,-4.886921961E-3,-1.374446787E-2
1.874415957E0,4.276056774E-3,-3.665191587E-3,-1.374446787E-2
1.876652530E0,3.207042580E-3,1.221730490E-3,-1.130100712E-2
1.878888919E0,1.832595794E-3,1.527163113E-4,-1.252273750E-2
1.881125369E0,-3.054326167E-3,-2.290744567E-3,-1.130100712E-2
1.883362673E0,-4.276056774E-3,-2.290744567E-3,-1.252273750E-2
1.885598758E0,-3.054326167E-3,-1.069014193E-3,-1.252273750E-2
1.887835146E0,-6.108652451E-4,-1.069014193E-3,-1.374446787E-2
1.890074405E0,1.985311974E-3,1.221730490E-3,-1.496619824E-2
1.892306827E0,3.207042580E-3,3.665191587E-3,-1.374446787E-2
1.894543399E0,3.207042580E-3,1.221730490E-3,-1.374446787E-2
1.896778689E0,7.635815418E-4,2.596177394E-3,-1.252273750E-2
1.899016299E0,-4.276056774E-3,1.527163113E-4,-1.374446787E-2
1.901253848E0,-1.985311974E-3,-5.955935922E-3,-1.007927675E-2
1.903486880E0,6.108652451E-4,-4.734205548E-3,-1.007927675E-2
1.905713137E0,1.985311974E-3,1.527163113E-4,-1.496619824E-2
1.907958621E0,9.162978269E-3,-3.665191587E-3,-1.130100712E-2
1.910185977E0,3.054326167E-3,-2.443460980E-3,-1.252273750E-2
1.912437564E0,3.207042580E-3,0.000000000E0,-1.374446787E-2
1.914670718E0,-1.832595794E-3,-3.512475174E-3,-1.496619824E-2
1.916910159E0,-6.108652451E-4,-2.290744567E-3,-1.252273750E-2
1.919144961E0,3.207042580E-3,2.443460980E-3,-1.252273750E-2
1.921380984E0,5.650503561E-3,0.000000000E0,-1.374446787E-2
1.923616275E0,4.276056774E-3,-2.443460980E-3,-1.374446787E-2
1.925852664E0,3.054326167E-3,-5.955935922E-3,-1.374446787E-2
1.928085818E0,1.832595794E-3,-2.290744567E-3,-1.252273750E-2
1.930313723E0,6.108652451E-4,-4.734205548E-3,-1.252273750E-2
1.932561831E0,1.832595794E-3,-2.290744567E-3,-1.130100712E-2
1.934798342E0,-6.108652451E-4,-2.290744567E-3,-1.252273750E-2
1.937039004E0,-6.108652451E-4,-2.290744567E-3,-1.496619824E-2
1.939271853E0,3.054326167E-3,-1.221730490E-3,-1.374446787E-2
1.941507266E0,3.207042580E-3,1.221730490E-3,-1.374446787E-2
1.943743350E0,3.054326167E-3,0.000000000E0,-1.252273750E-2
1.945976870E0,8.093964309E-3,1.221730490E-3,-1.114829071E-2
1.948202822E0,4.428773187E-3,1.221730490E-3,-1.374446787E-2
1.950450869E0,-3.054326167E-3,-2.290744567E-3,-1.252273750E-2
1.952689334E0,-4.428773187E-3,-7.024950348E-3,-1.130100712E-2
1.954930178E0,1.832595794E-3,-1.069014193E-3,-1.252273750E-2
1.957163271E0,6.108652451E-4,-3.512475174E-3,-1.252273750E-2
1.959398379E0,7.941247895E-3,-3.665191587E-3,-1.252273750E-2
1.961634402E0,6.872233935E-3,0.000000000E0,-1.374446787E-2
1.963870791E0,1.832595794E-3,1.527163113E-4,-1.252273750E-2
1.966107364E0,-3.054326167E-3,-4.734205548E-3,-1.252273750E-2
1.968343936E0,-4.276056774E-3,-4.581489135E-3,-1.374446787E-2
1.970580569E0,-3.054326167E-3,-1.069014193E-3,-1.252273750E-2
1.972818057E0,-1.832595794E-3,-1.069014193E-3,-1.374446787E-2
1.975053897E0,4.276056774E-3,-4.886921961E-3,-1.252273750E-2
1.977289492E0,4.276056774E-3,-4.886921961E-3,-1.374446787E-2
1.979525516E0,6.108652451E-4,-1.069014193E-3,-1.130100712E-2
1.981761966E0,-5.497787148E-3,-9.162978968E-4,-1.130100712E-2
1.983998721E0,-6.719517522E-3,-9.162978968E-4,-1.496619824E-2
1.986231997E0,-4.276056774E-3,-1.069014193E-3,-1.496619824E-2
1.988459414E0,6.108652451E-4,-1.069014193E-3,-1.618792862E-2
1.990708865E0,1.832595794E-3,-1.069014193E-3,-1.252273750E-2
1.992945010E0,1.832595794E-3,-3.512475174E-3,-1.252273750E-2
1.995183597E0,1.832595794E-3,1.527163113E-4,-1.252273750E-2
1.997416446E0,-6.108652451E-4,-3.512475174E-3,-1.374446787E-2
1.999653018E0,-6.108652451E-4,-3.512475174E-3,-1.374446787E-2
2.001889529E0,6.108652451E-4,-5.955935922E-3,-1.252273750E-2
2.004125918E0,1.832595794E-3,-1.069014193E-3,-1.374446787E-2
2.006362490E0,1.832595794E-3,-1.069014193E-3,-1.252273750E-2
2.008599978E0,3.207042580E-3,4.886921961E-3,-1.618792862E-2
2.010835879E0,5.650503561E-3,2.443460980E-3,-1.496619824E-2
2.013071475E0,3.054326167E-3,0.000000000E0,-1.130100712E-2
2.015307498E0,-1.832595794E-3,-3.512475174E-3,-1.007927675E-2
2.017543887E0,-3.054326167E-3,-3.512475174E-3,-1.130100712E-2
2.019780459E0,-6.108652451E-4,-4.734205548E-3,-1.252273750E-2
2.022016970E0,6.108652451E-4,-5.955935922E-3,-1.252273750E-2
2.024253359E0,3.054326167E-3,-5.955935922E-3,-1.130100712E-2
2.026490908E0,4.276056774E-3,-4.886921961E-3,-1.252273750E-2
2.028726992E0,3.054326167E-3,-1.221730490E-3,-1.374446787E-2
2.030962588E0,4.428773187E-3,1.221730490E-3,-1.252273750E-2
2.033198428E0,5.497787148E-3,-1.221730490E-3,-1.374446787E-2
2.035435000E0,6.108652451E-4,1.527163113E-4,-1.252273750E-2
2.037671572E0,-4.276056774E-3,-2.290744567E-3,-1.252273750E-2
2.039904727E0,-6.108652451E-4,-5.955935922E-3,-1.252273750E-2
2.042130801E0,1.679879380E-3,-7.177666761E-3,-1.130100712E-2
2.044382022E0,7.941247895E-3,-7.330383174E-3,-1.130100712E-2
2.046618045E0,8.093964309E-3,0.000000000E0,-9.926560335E-3
2.048856875E0,-1.832595794E-3,-1.069014193E-3,-1.130100712E-2
2.051089480E0,-4.276056774E-3,-1.069014193E-3,-1.496619824E-2
2.053325870E0,-5.497787148E-3,-2.138028387E-3,-1.252273750E-2
2.055562686E0,6.108652451E-4,-5.955935922E-3,-1.252273750E-2
2.057799014E0,7.941247895E-3,-2.443460980E-3,-1.130100712E-2
2.060035647E0,7.941247895E-3,-3.665191587E-3,-1.252273750E-2
2.062273074E0,1.832595794E-3,-3.512475174E-3,-1.130100712E-2
2.064508975E0,-3.054326167E-3,-3.512475174E-3,-1.007927675E-2
2.066741519E0,-6.872233935E-3,-5.803219974E-3,-1.252273750E-2
2.068965701E0,-6.719517522E-3,3.054326226E-4,-1.496619824E-2
2.071206241E0,-1.832595794E-3,-2.290744567E-3,-1.618792862E-2
2.073453494E0,3.054326167E-3,-1.221730490E-3,-1.374446787E-2
2.075692873E0,5.650503561E-3,2.443460980E-3,-1.374446787E-2
2.077926150E0,1.832595794E-3,1.527163113E-4,-1.252273750E-2
2.080152041E0,6.108652451E-4,1.527163113E-4,-1.130100712E-2
2.082400088E0,-4.276056774E-3,-3.512475174E-3,-1.130100712E-2
2.084635501E0,-7.941247895E-3,-3.359758761E-3,-1.389718428E-2
2.086871890E0,-9.315694682E-3,-8.246680722E-3,-1.145372353E-2
2.089096621E0,-8.093964309E-3,-8.246680722E-3,-1.267545391E-2
2.091344668E0,2.901609987E-3,-7.177666761E-3,-1.130100712E-2
2.093580874E0,5.497787148E-3,-1.221730490E-3,-1.130100712E-2
2.095820193E0,5.650503561E-3,-1.221730490E-3,-1.496619824E-2
2.098052187E0,1.985311974E-3,1.221730490E-3,-1.496619824E-2
2.100279422E0,-4.276056774E-3,1.374446787E-3,-1.374446787E-2
2.102526309E0,-6.719517522E-3,1.527163084E-3,-1.496619824E-2
2.104762393E0,-3.054326167E-3,-3.512475174E-3,-1.496619824E-2
2.107002077E0,3.054326167E-3,-3.512475174E-3,-1.252273750E-2
2.109235598E0,6.719517522E-3,-3.665191587E-3,-1.130100712E-2
2.111472110E0,6.719517522E-3,-6.108652335E-3,-1.130100712E-2
2.113708377E0,6.108652451E-4,-4.734205548E-3,-1.130100712E-2
2.115945986E0,-1.985311974E-3,-9.621127509E-3,-1.252273750E-2
2.118182071E0,-7.635815418E-4,-5.955935922E-3,-1.252273750E-2
2.120417666E0,1.832595794E-3,1.527163113E-4,-1.130100712E-2
2.122653506E0,7.635815418E-4,1.374446787E-3,-1.252273750E-2
2.124890078E0,-1.832595794E-3,-2.290744567E-3,-1.374446787E-2
2.127126590E0,1.832595794E-3,-3.512475174E-3,-1.130100712E-2
2.129362979E0,6.719517522E-3,-2.443460980E-3,-1.130100712E-2
2.131599551E0,4.276056774E-3,-4.886921961E-3,-1.252273750E-2
2.133837100E0,-6.108652451E-4,-2.290744567E-3,-1.374446787E-2
2.136073184E0,-4.428773187E-3,-9.468411095E-3,-1.252273750E-2
2.138308535E0,-6.872233935E-3,-5.803219974E-3,-1.267545391E-2
2.140544559E0,-6.108652451E-4,-4.734205548E-3,-1.374446787E-2
2.142780948E0,4.428773187E-3,-1.221730490E-3,-1.618792862E-2
2.145017703E0,1.832595794E-3,-2.290744567E-3,-1.618792862E-2
2.147253848E0,1.985311974E-3,1.527163113E-4,-1.496619824E-2
2.149490725E0,-4.581489484E-4,1.374446787E-3,-1.618792862E-2
2.151725344E0,-2.901609987E-3,3.817907767E-3,-1.618792862E-2
2.153952822E0,-3.054326167E-3,1.527163113E-4,-1.618792862E-2
2.156196475E0,-5.497787148E-3,-4.581489135E-3,-1.496619824E-2
2.158421023E0,-6.108652451E-4,-3.512475174E-3,-1.496619824E-2
2.160663210E0,4.276056774E-3,-2.443460980E-3,-1.496619824E-2
2.162908938E0,6.719517522E-3,-2.443460980E-3,-1.130100712E-2
2.165148073E0,6.108652451E-4,-1.069014193E-3,-1.252273750E-2
2.167384524E0,-4.276056774E-3,-1.069014193E-3,-1.252273750E-2
2.169619387E0,-7.941247895E-3,2.748893574E-3,-1.374446787E-2
2.171855594E0,-3.054326167E-3,-1.069014193E-3,-1.252273750E-2
2.174090518E0,3.054326167E-3,-4.734205548E-3,-1.252273750E-2
2.176326541E0,9.315694682E-3,0.000000000E0,-1.359175146E-2
2.178563051E0,6.719517522E-3,-2.443460980E-3,-1.496619824E-2
2.180799746E0,1.832595794E-3,-2.290744567E-3,-1.252273750E-2
2.183036074E0,-6.108652451E-4,1.374446787E-3,-1.130100712E-2
2.185272647E0,6.108652451E-4,1.527163113E-4,-1.252273750E-2
2.187510195E0,-5.497787148E-3,1.374446787E-3,-1.130100712E-2
2.189746341E0,-3.054326167E-3,-4.734205548E-3,-1.252273750E-2
2.191978945E0,1.832595794E-3,-5.955935922E-3,-1.496619824E-2
2.194205874E0,4.276056774E-3,-2.443460980E-3,-1.252273750E-2
2.196453799E0,5.650503561E-3,0.000000000E0,-1.496619824E-2
2.198690799E0,6.872233935E-3,2.443460980E-3,-1.374446787E-2
2.200930118E0,1.832595794E-3,1.527163113E-4,-1.252273750E-2
2.203163882E0,-5.497787148E-3,-2.138028387E-3,-1.496619824E-2
2.205401248E0,-1.832595794E-3,1.374446787E-3,-1.374446787E-2
2.207637149E0,1.832595794E-3,-1.069014193E-3,-1.252273750E-2
2.209872683E0,1.832595794E-3,-3.512475174E-3,-1.130100712E-2
2.212108584E0,1.832595794E-3,-1.069014193E-3,-1.130100712E-2
2.214345401E0,1.985311974E-3,1.221730490E-3,-1.252273750E-2
2.216581729E0,-3.054326167E-3,1.527163113E-4,-1.374446787E-2
2.218818362E0,-6.719517522E-3,-2.138028387E-3,-1.496619824E-2
2.221054812E0,-1.175915636E-2,-3.359758761E-3,-1.267545391E-2
2.223292178E0,-1.053742506E-2,-3.359758761E-3,-1.389718428E-2
2.225528201E0,-5.497787148E-3,-2.138028387E-3,-1.496619824E-2
2.227763553E0,1.985311974E-3,1.527163113E-4,-1.496619824E-2
2.229999698E0,1.985311974E-3,3.665191587E-3,-1.252273750E-2
2.232236270E0,-3.054326167E-3,1.527163113E-4,-1.374446787E-2
2.234468203E0,-7.941247895E-3,-2.138028387E-3,-1.756237634E-2
2.236690615E0,-5.650503561E-3,-4.581489135E-3,-1.252273750E-2
2.238945742E0,-3.054326167E-3,1.527163113E-4,-1.496619824E-2
2.241183291E0,7.635815418E-4,1.374446787E-3,-1.252273750E-2
2.243424014E0,-6.108652451E-4,-1.069014193E-3,-1.130100712E-2
2.245654727E0,3.054326167E-3,-5.955935922E-3,-1.374446787E-2
2.247886538E0,4.276056774E-3,-2.443460980E-3,-1.374446787E-2
2.250110293E0,5.497787148E-3,-1.221730490E-3,-1.374446787E-2
2.252363955E0,1.832595794E-3,-1.069014193E-3,-1.130100712E-2
2.254600222E0,6.108652451E-4,1.527163113E-4,-1.130100712E-2
2.256840822E0,-1.832595794E-3,-2.290744567E-3,-1.130100712E-2
2.259074160E0,6.108652451E-4,-3.512475174E-3,-1.374446787E-2
2.261310428E0,7.941247895E-3,-3.665191587E-3,-1.130100712E-2
2.263545657E0,9.162978269E-3,-3.665191587E-3,-1.130100712E-2
2.265781985E0,6.719517522E-3,-2.443460980E-3,-1.252273750E-2
2.268015505E0,1.832595794E-3,-1.069014193E-3,-1.252273750E-2
2.270243167E0,-6.108652451E-4,-1.069014193E-3,-1.374446787E-2
2.272491336E0,-4.276056774E-3,1.527163113E-4,-1.374446787E-2
2.274727725E0,3.054326167E-3,-2.443460980E-3,-1.374446787E-2
2.276968448E0,5.497787148E-3,-3.665191587E-3,-1.252273750E-2
2.279198916E0,5.650503561E-3,1.221730490E-3,-1.252273750E-2
2.281424136E0,6.872233935E-3,0.000000000E0,-1.252273750E-2
2.283660463E0,-5.497787148E-3,-2.138028387E-3,-1.130100712E-2
2.285909121E0,-7.941247895E-3,-9.162978968E-4,-1.252273750E-2
2.288148257E0,-7.941247895E-3,-2.138028387E-3,-1.130100712E-2
2.290385013E0,-5.497787148E-3,-9.162978968E-4,-1.374446787E-2
2.292618655E0,-3.054326167E-3,-3.512475174E-3,-1.496619824E-2
2.294856387E0,-3.207042580E-3,-5.955935922E-3,-1.374446787E-2
2.297092532E0,-4.581489484E-4,2.596177394E-3,-1.374446787E-2
2.299327883E0,-4.581489484E-4,1.374446787E-3,-1.496619824E-2
2.301563846E0,-3.054326167E-3,-2.290744567E-3,-1.496619824E-2
2.303800235E0,-7.941247895E-3,-3.359758761E-3,-1.511891466E-2
2.306036990E0,-4.428773187E-3,-4.581489135E-3,-1.252273750E-2
2.308273135E0,-7.635815418E-4,-7.177666761E-3,-1.252273750E-2
2.310510073E0,-6.108652451E-4,-1.069014193E-3,-1.130100712E-2
2.312747744E0,6.108652451E-4,-2.290744567E-3,-1.130100712E-2
2.314980715E0,6.108652451E-4,-1.069014193E-3,-1.252273750E-2
2.317204287E0,-1.832595794E-3,1.527163113E-4,-1.374446787E-2
2.319440188E0,-4.276056774E-3,1.527163113E-4,-1.374446787E-2
2.321679385E0,-3.054326167E-3,1.374446787E-3,-1.374446787E-2
2.323931093E0,-5.497787148E-3,2.596177394E-3,-1.374446787E-2
2.326167360E0,6.108652451E-4,1.527163113E-4,-1.374446787E-2
2.328403750E0,-1.679879380E-3,2.596177394E-3,-1.374446787E-2
2.330638064E0,3.054326167E-3,-1.221730490E-3,-1.130100712E-2
2.332874392E0,3.207042580E-3,0.000000000E0,-1.374446787E-2
2.335109866E0,6.108652451E-4,1.527163113E-4,-1.252273750E-2
2.337346194E0,-4.581489484E-4,1.374446787E-3,-1.496619824E-2
2.339580508E0,-1.832595794E-3,-2.290744567E-3,-1.496619824E-2
2.341811221E0,-1.832595794E-3,-3.512475174E-3,-1.496619824E-2
2.344055301E0,6.108652451E-4,-2.290744567E-3,-1.618792862E-2
2.346291934E0,3.054326167E-3,-1.221730490E-3,-1.618792862E-2
2.348531436E0,5.497787148E-3,-2.443460980E-3,-1.374446787E-2
2.350765567E0,3.054326167E-3,-7.177666761E-3,-1.374446787E-2
2.353000857E0,4.581489484E-4,-7.177666761E-3,-1.374446787E-2
2.355236758E0,-6.108652451E-4,-2.290744567E-3,-1.374446787E-2
2.357469912E0,-1.832595794E-3,-2.290744567E-3,-1.496619824E-2
2.359693728E0,-1.832595794E-3,1.527163113E-4,-1.496619824E-2
2.361939456E0,3.207042580E-3,0.000000000E0,-1.374446787E-2
2.364182986E0,5.650503561E-3,0.000000000E0,-1.374446787E-2
2.366423953E0,5.497787148E-3,-6.108652335E-3,-1.130100712E-2
2.368658145E0,-6.108652451E-4,1.527163113E-4,-1.130100712E-2
2.370891787E0,-4.428773187E-3,-5.803219974E-3,-1.252273750E-2
2.373128177E0,-1.985311974E-3,-5.955935922E-3,-1.252273750E-2
2.375364688E0,6.108652451E-4,-2.290744567E-3,-1.252273750E-2
2.377601077E0,6.108652451E-4,-1.069014193E-3,-1.374446787E-2
2.379837588E0,-6.108652451E-4,-3.512475174E-3,-1.374446787E-2
2.382074099E0,3.054326167E-3,-2.443460980E-3,-1.374446787E-2
2.384311465E0,3.207042580E-3,1.221730490E-3,-1.374446787E-2
2.386547488E0,7.635815418E-4,4.886921961E-3,-1.496619824E-2
2.388782840E0,-4.123340361E-3,2.596177394E-3,-1.374446787E-2
2.391018985E0,-6.719517522E-3,-3.359758761E-3,-1.374446787E-2
2.393255557E0,-4.428773187E-3,-7.024950348E-3,-1.130100712E-2
2.395492129E0,-6.108652451E-4,-4.734205548E-3,-1.130100712E-2
2.397728396E0,6.108652451E-4,-2.290744567E-3,-1.374446787E-2
2.399961855E0,-1.832595794E-3,1.527163113E-4,-1.252273750E-2
2.402188112E0,-4.123340361E-3,2.596177394E-3,-1.374446787E-2
2.404427676E0,-5.345070735E-3,2.596177394E-3,-1.618792862E-2
2.406670535E0,-3.054326167E-3,-3.512475174E-3,-1.374446787E-2
2.408898867E0,3.054326167E-3,-1.221730490E-3,-1.496619824E-2
2.411149355E0,3.054326167E-3,-2.443460980E-3,-1.374446787E-2
2.413382998E0,3.054326167E-3,-2.443460980E-3,-1.374446787E-2
2.415623050E0,1.832595794E-3,-2.290744567E-3,-1.374446787E-2
2.417852847E0,-3.054326167E-3,-2.290744567E-3,-1.252273750E-2
2.420079226E0,-1.832595794E-3,1.527163113E-4,-1.252273750E-2
2.422320437E0,-6.719517522E-3,-3.359758761E-3,-1.374446787E-2
2.424564883E0,-1.832595794E-3,-4.734205548E-3,-1.496619824E-2
2.426800967E0,6.108652451E-4,-2.290744567E-3,-1.374446787E-2
2.429027835E0,-4.581489484E-4,2.596177394E-3,-1.374446787E-2
2.431274173E0,6.108652451E-4,1.527163113E-4,-1.252273750E-2
2.433510684E0,6.108652451E-4,-2.290744567E-3,-1.374446787E-2
2.435750064E0,-6.108652451E-4,-4.734205548E-3,-1.374446787E-2
2.437981875E0,-6.108652451E-4,1.527163113E-4,-1.374446787E-2
2.440208865E0,-1.832595794E-3,1.527163113E-4,-1.374446787E-2
2.442455996E0,-4.428773187E-3,-5.803219974E-3,-1.252273750E-2
2.444689516E0,-1.985311974E-3,-4.734205548E-3,-1.007927675E-2
2.446917544E0,1.832595794E-3,-2.290744567E-3,-1.374446787E-2
2.449149112E0,6.719517522E-3,-2.443460980E-3,-1.374446787E-2
2.451401492E0,4.276056774E-3,0.000000000E0,-1.130100712E-2
2.453640383E0,-6.719517522E-3,1.527163084E-3,-1.374446787E-2
2.455879702E0,-9.162978269E-3,-9.162978968E-4,-1.389718428E-2
2.458108767E0,-6.566801574E-3,3.817907767E-3,-1.374446787E-2
2.460335147E0,-1.679879380E-3,3.817907767E-3,-1.374446787E-2
2.462582950E0,5.497787148E-3,-1.221730490E-3,-1.130100712E-2
2.464819705E0,6.872233935E-3,0.000000000E0,-1.007927675E-2
2.467059023E0,4.276056774E-3,-2.443460980E-3,-7.635815535E-3
2.469292483E0,-6.108652451E-4,-3.512475174E-3,-1.252273750E-2
2.471529238E0,-6.108652451E-4,-1.069014193E-3,-1.252273750E-2
2.473766787E0,-1.679879380E-3,6.261368748E-3,-1.252273750E-2
2.476002688E0,-3.054326167E-3,1.374446787E-3,-1.374446787E-2
2.478238284E0,-1.832595794E-3,-2.290744567E-3,-1.496619824E-2
2.480474490E0,-6.108652451E-4,-2.290744567E-3,-1.374446787E-2
2.482710635E0,1.832595794E-3,-1.069014193E-3,-1.496619824E-2
2.484947146E0,7.941247895E-3,-2.443460980E-3,-1.374446787E-2
2.487183413E0,5.650503561E-3,1.221730490E-3,-1.252273750E-2
2.489420169E0,-6.108652451E-4,1.527163113E-4,-1.374446787E-2
2.491657900E0,-1.038470957E-2,3.054326226E-4,-1.374446787E-2
2.493893740E0,-6.719517522E-3,-9.162978968E-4,-1.252273750E-2
2.496129092E0,-1.832595794E-3,-1.069014193E-3,-1.130100712E-2
2.498365054E0,3.207042580E-3,1.221730490E-3,-1.130100712E-2
2.500601504E0,3.207042580E-3,1.221730490E-3,-1.374446787E-2
2.502838382E0,1.985311974E-3,2.443460980E-3,-1.496619824E-2
2.505074954E0,-1.832595794E-3,1.374446787E-3,-1.374446787E-2
2.507311526E0,-6.719517522E-3,2.748893574E-3,-1.252273750E-2
2.509548770E0,-4.276056774E-3,1.527163113E-4,-1.618792862E-2
2.511784793E0,-4.276056774E-3,1.374446787E-3,-1.496619824E-2
2.514020205E0,7.635815418E-4,1.374446787E-3,-1.252273750E-2
2.516256534E0,4.428773187E-3,3.665191587E-3,-1.252273750E-2
2.518492801E0,5.497787148E-3,-3.665191587E-3,-1.252273750E-2
2.520729129E0,-7.635815418E-4,-5.955935922E-3,-1.130100712E-2
2.522965396E0,-3.054326167E-3,-1.069014193E-3,-1.007927675E-2
2.525202029E0,-3.054326167E-3,-2.290744567E-3,-1.252273750E-2
2.527439639E0,-1.832595794E-3,1.527163113E-4,-1.252273750E-2
2.529675784E0,6.108652451E-4,-2.290744567E-3,-1.374446787E-2
2.531911380E0,4.428773187E-3,2.443460980E-3,-1.374446787E-2
2.534147403E0,8.093964309E-3,-1.221730490E-3,-1.252273750E-2
2.536383731E0,3.207042580E-3,4.886921961E-3,-1.618792862E-2
2.538620303E0,-2.901609987E-3,2.596177394E-3,-1.374446787E-2
2.540856814E0,-4.276056774E-3,-2.290744567E-3,-1.618792862E-2
2.543093264E0,-1.832595794E-3,-5.955935922E-3,-1.496619824E-2
2.545330996E0,4.276056774E-3,-7.177666761E-3,-1.618792862E-2
2.547566775E0,5.497787148E-3,-7.330383174E-3,-1.130100712E-2
2.549802188E0,4.276056774E-3,-4.886921961E-3,-1.007927675E-2
2.552038211E0,1.985311974E-3,1.221730490E-3,-1.130100712E-2
2.554274844E0,7.635815418E-4,4.886921961E-3,-1.252273750E-2
2.556511416E0,-4.581489484E-4,5.039638374E-3,-1.496619824E-2
2.558747744E0,-4.276056774E-3,-2.290744567E-3,-1.618792862E-2
2.560984255E0,-6.719517522E-3,-3.359758761E-3,-1.618792862E-2
2.563221621E0,-1.832595794E-3,1.527163113E-4,-1.496619824E-2
2.565457949E0,3.207042580E-3,2.443460980E-3,-1.252273750E-2
2.567692385E0,6.872233935E-3,0.000000000E0,-1.130100712E-2
2.569925723E0,5.650503561E-3,2.443460980E-3,-1.252273750E-2
2.572165713E0,1.832595794E-3,-1.069014193E-3,-1.252273750E-2
2.574402530E0,-5.650503561E-3,-4.581489135E-3,-1.252273750E-2
2.576639712E0,-5.497787148E-3,-3.359758761E-3,-1.374446787E-2
2.578875247E0,-6.108652451E-4,-2.290744567E-3,-1.374446787E-2
2.581112918E0,3.054326167E-3,-2.443460980E-3,-1.252273750E-2
2.583348819E0,9.315694682E-3,1.221730490E-3,-1.237002108E-2
2.585584475E0,6.872233935E-3,-1.221730490E-3,-1.374446787E-2
2.587817324E0,4.428773187E-3,0.000000000E0,-1.496619824E-2
2.590044375E0,6.108652451E-4,-2.290744567E-3,-1.618792862E-2
2.592293399E0,-3.054326167E-3,-2.290744567E-3,-1.496619824E-2
2.594529910E0,1.832595794E-3,-5.955935922E-3,-1.374446787E-2
2.596769473E0,3.054326167E-3,-3.512475174E-3,-1.374446787E-2
2.599004153E0,5.497787148E-3,-2.443460980E-3,-1.252273750E-2
2.601240176E0,4.428773187E-3,1.221730490E-3,-1.130100712E-2
2.603475528E0,3.054326167E-3,-1.221730490E-3,-1.130100712E-2
2.605711307E0,1.832595794E-3,-5.955935922E-3,-1.374446787E-2
2.607944888E0,-6.108652451E-4,-4.734205548E-3,-1.374446787E-2
2.610170596E0,-4.276056774E-3,-4.581489135E-3,-1.496619824E-2
2.612413272E0,-5.497787148E-3,1.374446787E-3,-1.374446787E-2
2.614657412E0,-6.719517522E-3,-9.162978968E-4,-1.252273750E-2
2.616897952E0,5.497787148E-3,-3.665191587E-3,-1.252273750E-2
2.619132937E0,6.872233935E-3,2.443460980E-3,-1.481348183E-2
2.621366397E0,4.428773187E-3,3.665191587E-3,-1.618792862E-2
2.623602481E0,-6.108652451E-4,-1.069014193E-3,-1.374446787E-2
2.625838992E0,-6.872233935E-3,-4.581489135E-3,-1.496619824E-2
2.628075381E0,-4.276056774E-3,-3.512475174E-3,-1.374446787E-2
2.630311892E0,6.108652451E-4,-2.290744567E-3,-1.252273750E-2
2.632548220E0,5.497787148E-3,-3.665191587E-3,-1.252273750E-2
2.634785830E0,5.497787148E-3,-3.665191587E-3,-1.007927675E-2
2.637021914E0,1.832595794E-3,-2.290744567E-3,-8.857546374E-3
2.639257571E0,-6.108652451E-4,-1.069014193E-3,-1.007927675E-2
2.641493533E0,-1.679879380E-3,2.596177394E-3,-1.374446787E-2
2.643729678E0,-6.108652451E-4,-1.069014193E-3,-1.496619824E-2
2.645966433E0,1.832595794E-3,-1.069014193E-3,-1.496619824E-2
2.648202761E0,-6.108652451E-4,-3.512475174E-3,-1.618792862E-2
2.650439456E0,1.832595794E-3,-4.734205548E-3,-1.252273750E-2
2.652676943E0,6.719517522E-3,-3.665191587E-3,-1.374446787E-2
2.654910098E0,8.093964309E-3,0.000000000E0,-1.359175146E-2
2.657133730E0,5.650503561E-3,0.000000000E0,-1.374446787E-2
2.659372745E0,-3.054326167E-3,-3.512475174E-3,-1.130100712E-2
2.661621036E0,-4.428773187E-3,-5.803219974E-3,-1.374446787E-2
2.663860538E0,6.108652451E-4,-5.955935922E-3,-1.252273750E-2
2.666096865E0,3.054326167E-3,-2.443460980E-3,-1.374446787E-2
2.668330508E0,6.872233935E-3,0.000000000E0,-1.252273750E-2
2.670568057E0,6.872233935E-3,-1.221730490E-3,-1.374446787E-2
2.672804080E0,1.832595794E-3,-5.955935922E-3,-1.252273750E-2
2.675039248E0,6.108652451E-4,-2.290744567E-3,-1.374446787E-2
2.677275577E0,1.832595794E-3,-2.290744567E-3,-1.374446787E-2
2.679509158E0,-1.832595794E-3,-2.290744567E-3,-1.496619824E-2
2.681736819E0,3.054326167E-3,-1.221730490E-3,-1.374446787E-2
2.683984988E0,4.276056774E-3,-2.443460980E-3,-1.252273750E-2
2.686221377E0,5.497787148E-3,-1.221730490E-3,-1.252273750E-2
2.688462161E0,3.207042580E-3,1.221730490E-3,-1.130100712E-2
2.690692263E0,1.832595794E-3,-3.512475174E-3,-1.252273750E-2
2.692918643E0,-4.428773187E-3,-5.803219974E-3,-1.252273750E-2
2.695166385E0,-4.276056774E-3,-2.290744567E-3,-1.252273750E-2
2.697403018E0,-6.108652451E-4,-4.734205548E-3,-1.252273750E-2
2.699642824E0,5.497787148E-3,-3.665191587E-3,-1.130100712E-2
2.701876162E0,5.650503561E-3,1.221730490E-3,-1.130100712E-2
2.704112551E0,4.276056774E-3,-2.443460980E-3,-1.374446787E-2
2.706350222E0,5.497787148E-3,-1.221730490E-3,-1.252273750E-2
2.708586123E0,5.497787148E-3,-1.221730490E-3,-1.130100712E-2
2.710821719E0,-6.108652451E-4,-2.290744567E-3,-1.252273750E-2
2.713057498E0,-4.428773187E-3,-7.024950348E-3,-1.130100712E-2
2.715294131E0,4.581489484E-4,-7.177666761E-3,-1.130100712E-2
2.717530703E0,5.650503561E-3,0.000000000E0,-1.252273750E-2
2.719767276E0,7.941247895E-3,-2.443460980E-3,-1.007927675E-2
2.722003604E0,9.162978269E-3,-2.443460980E-3,-1.114829071E-2
2.724241152E0,3.054326167E-3,-1.221730490E-3,-1.374446787E-2
2.726477176E0,1.832595794E-3,-1.069014193E-3,-1.130100712E-2
2.728712649E0,-3.054326167E-3,-3.512475174E-3,-1.618792862E-2
2.730948916E0,-3.054326167E-3,-1.069014193E-3,-1.374446787E-2
2.733185183E0,6.108652451E-4,-5.955935922E-3,-1.130100712E-2
2.735421572E0,1.038470957E-2,-4.886921961E-3,-8.704829961E-3
2.737658084E0,1.420261711E-2,-1.374446787E-3,-8.704829961E-3
2.739894351E0,1.038470957E-2,-1.374446787E-3,-8.704829961E-3
2.742130862E0,4.123340361E-3,-8.399397135E-3,-1.130100712E-2
2.744368350E0,-5.803219974E-3,-1.679879427E-2,-1.023199316E-2
2.746603640E0,-1.847867295E-2,-3.222314268E-2,-1.160643995E-2
2.748839907E0,-1.221730467E-2,-2.748893574E-2,-1.145372353E-2
2.751076297E0,-7.635815418E-4,-1.084285788E-2,-1.007927675E-2
2.753312686E0,1.038470957E-2,-4.886921961E-3,-1.114829071E-2
2.755549258E0,1.282817032E-2,-3.817907767E-3,-1.114829071E-2
2.757785586E0,9.162978269E-3,-3.665191587E-3,-1.374446787E-2
2.760023440E0,1.679879380E-3,-5.955935922E-3,-1.007927675E-2
2.762259463E0,-7.635815418E-4,-9.621127509E-3,-1.007927675E-2
2.764494876E0,5.345070735E-3,-9.621127509E-3,-7.635815535E-3
2.766727847E0,6.566801574E-3,-8.552113548E-3,-8.857546374E-3
2.768955203E0,9.162978269E-3,-8.552113548E-3,-1.007927675E-2
2.771203738E0,5.497787148E-3,-1.221730490E-3,-1.130100712E-2
2.773440066E0,3.207042580E-3,3.665191587E-3,-1.496619824E-2
2.775679751E0,-1.832595794E-3,1.527163113E-4,-1.496619824E-2
2.777913943E0,7.635815418E-4,1.374446787E-3,-1.496619824E-2
2.780147830E0,7.635815418E-4,4.886921961E-3,-1.618792862E-2
2.782384463E0,1.985311974E-3,3.665191587E-3,-1.374446787E-2
2.784621707E0,7.635815418E-4,4.886921961E-3,-1.496619824E-2
2.786855898E0,-6.108652451E-4,1.374446787E-3,-1.130100712E-2
2.789083315E0,-4.581489484E-4,2.596177394E-3,-1.130100712E-2
2.791331485E0,-2.901609987E-3,5.039638374E-3,-1.007927675E-2
2.793567813E0,-4.123340361E-3,3.817907767E-3,-1.130100712E-2
2.795808352E0,-6.566801574E-3,3.817907767E-3,-1.374446787E-2
2.798038455E0,-6.719517522E-3,2.748893574E-3,-1.496619824E-2
2.800265078E0,-4.276056774E-3,-3.512475174E-3,-1.374446787E-2
2.802512881E0,-6.108652451E-4,1.527163113E-4,-1.130100712E-2
2.804749453E0,9.315694682E-3,4.734205548E-3,-1.114829071E-2
2.806988895E0,9.468411095E-3,9.621127509E-3,-1.359175146E-2
2.809222049E0,4.581489135E-3,8.552113548E-3,-1.359175146E-2
2.811458682E0,-4.276056774E-3,-2.290744567E-3,-1.496619824E-2
2.813693545E0,-5.650503561E-3,-7.024950348E-3,-1.496619824E-2
2.815917910E0,1.679879380E-3,-1.084285788E-2,-1.252273750E-2
2.818153017E0,9.162978269E-3,-2.443460980E-3,-1.130100712E-2
2.820391909E0,1.175915636E-2,-1.527163113E-4,-8.704829961E-3
2.822642946E0,1.175915636E-2,-1.374446787E-3,-1.114829071E-2
2.824879886E0,4.123340361E-3,-8.399397135E-3,-1.252273750E-2
2.827116457E0,6.108652451E-4,-5.955935922E-3,-1.252273750E-2
2.829350161E0,4.581489484E-4,-7.177666761E-3,-1.252273750E-2
2.831587588E0,6.108652451E-4,-1.069014193E-3,-1.252273750E-2
2.833823367E0,6.719517522E-3,-3.665191587E-3,-1.252273750E-2
2.836058719E0,9.315694682E-3,0.000000000E0,-1.359175146E-2
2.838294803E0,6.872233935E-3,0.000000000E0,-1.496619824E-2
2.840531436E0,6.719517522E-3,-3.665191587E-3,-1.374446787E-2
2.842768069E0,1.832595794E-3,-3.512475174E-3,-1.374446787E-2
2.845004580E0,-1.832595794E-3,-2.290744567E-3,-1.496619824E-2
2.847240908E0,-3.054326167E-3,-4.734205548E-3,-1.252273750E-2
2.849478457E0,-6.108652451E-4,-3.512475174E-3,-1.130100712E-2
2.851714480E0,6.108652451E-4,-3.512475174E-3,-1.374446787E-2
2.853949893E0,1.832595794E-3,-3.512475174E-3,-1.252273750E-2
2.856182925E0,-6.108652451E-4,-2.290744567E-3,-1.374446787E-2
2.858410281E0,-4.428773187E-3,-4.581489135E-3,-1.252273750E-2
2.860658816E0,-5.497787148E-3,-9.162978968E-4,-1.252273750E-2
2.862895144E0,-7.941247895E-3,-2.138028387E-3,-1.374446787E-2
2.865134829E0,-6.719517522E-3,-3.359758761E-3,-1.374446787E-2
2.867369631E0,-3.207042580E-3,-7.177666761E-3,-1.374446787E-2
2.869605716E0,6.108652451E-4,-1.069014193E-3,-1.374446787E-2
2.871841067E0,6.108652451E-4,-4.734205548E-3,-1.374446787E-2
2.874077090E0,1.832595794E-3,-4.734205548E-3,-1.252273750E-2
2.876313600E0,4.276056774E-3,-6.108652335E-3,-1.252273750E-2
2.878549990E0,1.985311974E-3,1.221730490E-3,-1.252273750E-2
2.880786502E0,-1.832595794E-3,-2.290744567E-3,-1.374446787E-2
2.883022891E0,-3.207042580E-3,-8.246680722E-3,-1.496619824E-2
2.885260745E0,-7.635815418E-4,-8.399397135E-3,-1.374446787E-2
2.887496707E0,4.123340361E-3,-8.399397135E-3,-1.252273750E-2
2.889731936E0,9.162978269E-3,-6.108652335E-3,-1.130100712E-2
2.891968142E0,7.941247895E-3,-2.443460980E-3,-1.130100712E-2
2.894204471E0,4.276056774E-3,-1.221730490E-3,-1.252273750E-2
2.896441104E0,1.832595794E-3,-1.069014193E-3,-1.252273750E-2
2.898677432E0,-4.276056774E-3,-2.290744567E-3,-1.374446787E-2
2.900914248E0,-4.428773187E-3,-5.803219974E-3,-1.374446787E-2
2.903151553E0,5.497787148E-3,-3.665191587E-3,-1.374446787E-2
2.905387698E0,1.038470957E-2,-6.108652335E-3,-1.374446787E-2
2.907623172E0,1.282817032E-2,-5.039638374E-3,-1.237002108E-2
2.909859073E0,1.832595794E-3,-2.290744567E-3,-1.374446787E-2
2.912095645E0,-4.428773187E-3,-5.803219974E-3,-1.130100712E-2
2.914332156E0,-9.315694682E-3,-8.246680722E-3,-1.389718428E-2
2.916568545E0,-8.093964309E-3,-8.246680722E-3,-1.267545391E-2
2.918805117E0,6.108652451E-4,-2.290744567E-3,-1.252273750E-2
2.921042605E0,9.315694682E-3,-1.221730490E-3,-1.359175146E-2
2.923278506E0,5.497787148E-3,-1.221730490E-3,-1.252273750E-2
2.925514102E0,-3.054326167E-3,-3.512475174E-3,-1.007927675E-2
2.927750125E0,-7.941247895E-3,-3.359758761E-3,-1.374446787E-2
2.929986575E0,-5.650503561E-3,-4.581489135E-3,-1.374446787E-2
2.932223330E0,-1.832595794E-3,-4.734205548E-3,-1.130100712E-2
2.934459597E0,4.276056774E-3,-4.886921961E-3,-1.130100712E-2
2.936696047E0,4.276056774E-3,-4.886921961E-3,-1.252273750E-2
2.938933718E0,3.054326167E-3,-4.734205548E-3,-1.130100712E-2
2.941169558E0,4.276056774E-3,-6.108652335E-3,-1.130100712E-2
2.943402041E0,6.108652451E-4,-1.069014193E-3,-1.130100712E-2
2.945629275E0,6.108652451E-4,-2.290744567E-3,-1.252273750E-2
2.947876711E0,1.832595794E-3,-2.290744567E-3,-1.374446787E-2
2.950110537E0,4.581489484E-4,-8.399397135E-3,-1.496619824E-2
2.952353458E0,1.679879380E-3,-7.177666761E-3,-1.374446787E-2
2.954587100E0,1.832595794E-3,-1.069014193E-3,-1.252273750E-2
2.956825565E0,1.832595794E-3,-3.512475174E-3,-1.130100712E-2
2.959060794E0,5.497787148E-3,-6.108652335E-3,-1.374446787E-2
2.961296328E0,6.108652451E-4,-5.955935922E-3,-1.374446787E-2
2.963532168E0,-6.108652451E-4,-4.734205548E-3,-1.252273750E-2
2.965768741E0,4.581489484E-4,-5.955935922E-3,-1.130100712E-2
2.968002261E0,-1.832595794E-3,-3.512475174E-3,-1.252273750E-2
2.970229678E0,-5.497787148E-3,-3.359758761E-3,-1.496619824E-2
2.972478213E0,-1.985311974E-3,-5.955935922E-3,-1.252273750E-2
2.974715762E0,6.108652451E-4,-3.512475174E-3,-1.252273750E-2
2.976954836E0,6.719517522E-3,-2.443460980E-3,-1.374446787E-2
2.979187258E0,7.941247895E-3,-4.886921961E-3,-1.496619824E-2
2.981423526E0,6.108652451E-4,-1.069014193E-3,-1.618792862E-2
2.983659793E0,-3.054326167E-3,-3.512475174E-3,-1.374446787E-2
2.985896182E0,-1.985311974E-3,-5.955935922E-3,-1.130100712E-2
2.988132632E0,6.108652451E-4,-2.290744567E-3,-1.252273750E-2
2.990369082E0,4.276056774E-3,-1.221730490E-3,-1.130100712E-2
2.992606875E0,4.276056774E-3,-6.108652335E-3,-1.252273750E-2
2.994842715E0,6.108652451E-4,-2.290744567E-3,-1.374446787E-2
2.997078372E0,-3.054326167E-3,-3.512475174E-3,-1.374446787E-2
2.999314395E0,-1.985311974E-3,-5.955935922E-3,-1.374446787E-2
3.001550967E0,-4.276056774E-3,-4.581489135E-3,-1.374446787E-2
3.003787295E0,-1.832595794E-3,-2.290744567E-3,-1.252273750E-2
3.006023867E0,1.832595794E-3,-1.069014193E-3,-1.374446787E-2
3.008260379E0,8.093964309E-3,2.443460980E-3,-1.237002108E-2
3.010497744E0,7.941247895E-3,-1.221730490E-3,-1.114829071E-2
3.012733828E0,4.581489484E-4,-5.955935922E-3,-1.130100712E-2
3.014969363E0,-4.428773187E-3,-5.803219974E-3,-1.130100712E-2
3.017205325E0,-6.872233935E-3,-5.803219974E-3,-1.007927675E-2
3.019442080E0,-5.650503561E-3,-4.581489135E-3,-1.007927675E-2
3.021674074E0,-7.635815418E-4,-5.955935922E-3,-1.252273750E-2
3.023895450E0,4.276056774E-3,-3.665191587E-3,-1.374446787E-2
3.026142459E0,5.650503561E-3,1.221730490E-3,-1.496619824E-2
3.028388797E0,1.832595794E-3,-2.290744567E-3,-1.374446787E-2
3.030628969E0,-1.985311974E-3,-5.955935922E-3,-1.252273750E-2
3.032862490E0,-3.054326167E-3,-3.512475174E-3,-1.374446787E-2
3.035096377E0,6.108652451E-4,-4.734205548E-3,-1.252273750E-2
3.037333011E0,3.054326167E-3,-5.955935922E-3,-1.007927675E-2
3.039569522E0,1.679879380E-3,-9.621127509E-3,-8.857546374E-3
3.041805850E0,5.345070735E-3,-1.084285788E-2,-7.635815535E-3
3.044042422E0,2.901609987E-3,-7.177666761E-3,-1.007927675E-2
3.046279910E0,3.054326167E-3,-2.443460980E-3,-1.130100712E-2
3.048515811E0,3.054326167E-3,0.000000000E0,-1.252273750E-2
3.050751406E0,1.832595794E-3,-1.069014193E-3,-1.374446787E-2
3.052987491E0,-6.108652451E-4,-2.290744567E-3,-1.496619824E-2
3.055224063E0,-3.054326167E-3,-3.512475174E-3,-1.374446787E-2
3.057460391E0,6.108652451E-4,-4.734205548E-3,-1.130100712E-2
3.059696963E0,4.276056774E-3,-6.108652335E-3,-1.007927675E-2
3.061933474E0,6.566801574E-3,-7.330383174E-3,-7.635815535E-3
3.064170840E0,4.123340361E-3,-7.177666761E-3,-8.857546374E-3
3.066406863E0,-3.207042580E-3,-7.177666761E-3,-1.007927675E-2
3.068642215E0,-6.872233935E-3,-9.468411095E-3,-1.023199316E-2
3.070878360E0,-6.872233935E-3,-4.581489135E-3,-1.130100712E-2
3.073114932E0,-6.108652451E-4,1.527163113E-4,-1.130100712E-2
3.075351565E0,1.053742506E-2,-1.527163113E-4,-1.481348183E-2
3.077588137E0,1.298088674E-2,2.290744567E-3,-1.359175146E-2
3.079824710E0,5.650503561E-3,0.000000000E0,-1.252273750E-2
3.082062258E0,-1.985311974E-3,-5.955935922E-3,-1.374446787E-2
3.084298220E0,-9.315694682E-3,-4.581489135E-3,-1.267545391E-2
3.086533328E0,-9.315694682E-3,-7.024950348E-3,-1.145372353E-2
3.088769412E0,3.054326167E-3,-5.955935922E-3,-1.007927675E-2
3.091005984E0,8.093964309E-3,0.000000000E0,-1.237002108E-2
3.093242556E0,6.719517522E-3,-3.665191587E-3,-1.496619824E-2
3.095478701E0,1.832595794E-3,-5.955935922E-3,-1.252273750E-2
3.097715518E0,-4.276056774E-3,-3.512475174E-3,-1.130100712E-2
3.099950075E0,1.832595794E-3,-3.512475174E-3,-1.130100712E-2
3.102177310E0,4.276056774E-3,-3.665191587E-3,-1.374446787E-2
3.104424685E0,3.054326167E-3,-3.512475174E-3,-1.374446787E-2
3.106656985E0,3.054326167E-3,-4.734205548E-3,-1.374446787E-2
3.108886721E0,3.054326167E-3,-2.443460980E-3,-1.374446787E-2
3.111130618E0,1.832595794E-3,-1.069014193E-3,-1.130100712E-2
3.113357852E0,5.650503561E-3,0.000000000E0,-1.374446787E-2
3.115609744E0,4.428773187E-3,0.000000000E0,-1.496619824E-2
3.117842654E0,-1.832595794E-3,-1.069014193E-3,-1.374446787E-2
3.120074160E0,-5.497787148E-3,-2.138028387E-3,-1.496619824E-2
3.122303469E0,-5.497787148E-3,1.527163113E-4,-1.496619824E-2
3.124551639E0,-3.054326167E-3,-3.512475174E-3,-1.130100712E-2
3.126786502E0,2.901609987E-3,-7.177666761E-3,-1.130100712E-2
3.129015689E0,6.719517522E-3,-3.665191587E-3,-1.130100712E-2
3.131261111E0,8.093964309E-3,-1.221730490E-3,-1.237002108E-2
3.133497500E0,-1.832595794E-3,-3.512475174E-3,-1.374446787E-2
3.135738040E0,-9.315694682E-3,-4.581489135E-3,-1.634064503E-2
3.137968142E0,-9.162978269E-3,3.054326226E-4,-1.496619824E-2
3.140194766E0,7.635815418E-4,1.374446787E-3,-1.252273750E-2
3.142442630E0,5.650503561E-3,1.221730490E-3,-1.130100712E-2
3.144679385E0,1.298088674E-2,1.069014193E-3,-1.114829071E-2
3.146915652E0,9.162978269E-3,-3.665191587E-3,-1.252273750E-2
3.149140139E0,-7.635815418E-4,-8.399397135E-3,-1.252273750E-2
3.151388797E0,-9.315694682E-3,-8.246680722E-3,-1.389718428E-2
3.153623232E0,-6.872233935E-3,-5.803219974E-3,-1.374446787E-2
3.155850589E0,-6.108652451E-4,-3.512475174E-3,-1.252273750E-2
3.158082888E0,5.497787148E-3,-4.886921961E-3,-1.130100712E-2
3.160321902E0,7.941247895E-3,-2.443460980E-3,-1.252273750E-2
3.162572939E0,7.635815418E-4,3.817907767E-3,-1.496619824E-2
3.164809756E0,-1.832595794E-3,1.527163113E-4,-1.496619824E-2
3.167046085E0,-6.108652451E-4,-1.069014193E-3,-1.374446787E-2
3.169279788E0,6.108652451E-4,-2.290744567E-3,-1.496619824E-2
3.171517214E0,3.054326167E-3,-5.955935922E-3,-1.374446787E-2
3.173753176E0,6.108652451E-4,-4.734205548E-3,-1.252273750E-2
3.175988955E0,2.901609987E-3,-7.177666761E-3,-1.130100712E-2
3.178224795E0,7.941247895E-3,-6.108652335E-3,-1.374446787E-2
3.180461368E0,3.054326167E-3,-3.512475174E-3,-1.252273750E-2
3.182697635E0,-1.832595794E-3,-1.069014193E-3,-1.007927675E-2
3.184934268E0,-3.054326167E-3,-1.069014193E-3,-1.130100712E-2
3.187170840E0,-4.276056774E-3,-3.512475174E-3,-1.496619824E-2
3.189405398E0,-1.832595794E-3,-3.512475174E-3,-1.374446787E-2
3.191629214E0,-6.108652451E-4,1.527163113E-4,-1.374446787E-2
3.193867556E0,-1.679879380E-3,2.596177394E-3,-1.130100712E-2
3.196115603E0,7.635815418E-4,2.596177394E-3,-1.252273750E-2
3.198355288E0,-1.832595794E-3,-1.069014193E-3,-1.252273750E-2
3.200592044E0,6.108652451E-4,-1.069014193E-3,-1.496619824E-2
3.202825137E0,-3.054326167E-3,-2.290744567E-3,-1.374446787E-2
3.205061770E0,-6.872233935E-3,-5.803219974E-3,-1.374446787E-2
3.207299441E0,-8.093964309E-3,-5.803219974E-3,-1.389718428E-2
3.209535342E0,-5.497787148E-3,-2.138028387E-3,-1.130100712E-2
3.211770694E0,1.832595794E-3,-3.512475174E-3,-1.007927675E-2
3.214006717E0,4.428773187E-3,2.443460980E-3,-1.374446787E-2
3.216243350E0,6.108652451E-4,-1.069014193E-3,-1.374446787E-2
3.218479922E0,-5.497787148E-3,-9.162978968E-4,-1.740965992E-2
3.220716250E0,-1.282817032E-2,-1.985311974E-3,-1.756237634E-2
3.222952883E0,-1.160643995E-2,-9.162978968E-4,-1.511891466E-2
3.225190615E0,-5.650503561E-3,-4.581489135E-3,-1.374446787E-2
3.227426455E0,3.054326167E-3,-3.512475174E-3,-1.252273750E-2
3.229661868E0,6.872233935E-3,-1.221730490E-3,-1.374446787E-2
3.231897707E0,-6.108652451E-4,-3.512475174E-3,-1.374446787E-2
3.234132998E0,-9.315694682E-3,-5.803219974E-3,-1.389718428E-2
3.236371096E0,-1.053742506E-2,-3.359758761E-3,-1.389718428E-2
3.238607608E0,-6.872233935E-3,-4.581489135E-3,-1.130100712E-2
3.240844485E0,6.108652451E-4,-2.290744567E-3,-1.374446787E-2
3.243081240E0,5.497787148E-3,-2.443460980E-3,-1.374446787E-2
3.245317508E0,3.207042580E-3,1.221730490E-3,-1.496619824E-2
3.247552859E0,-4.581489484E-4,3.817907767E-3,-1.374446787E-2
3.249789004E0,-5.497787148E-3,-9.162978968E-4,-1.496619824E-2
3.252025271E0,-1.053742506E-2,-3.359758761E-3,-1.389718428E-2
3.254261905E0,-4.276056774E-3,-1.069014193E-3,-1.374446787E-2
3.256498416E0,4.276056774E-3,-1.221730490E-3,-1.374446787E-2
3.258734866E0,1.832595794E-3,-1.069014193E-3,-1.374446787E-2
3.260972598E0,6.108652451E-4,-2.290744567E-3,-1.374446787E-2
3.263208438E0,-3.054326167E-3,-4.734205548E-3,-1.374446787E-2
3.265444094E0,-3.054326167E-3,1.527163113E-4,-1.130100712E-2
3.267680057E0,-3.054326167E-3,1.374446787E-3,-1.374446787E-2
3.269916507E0,-3.054326167E-3,1.374446787E-3,-1.252273750E-2
3.272153323E0,-1.832595794E-3,-3.512475174E-3,-1.252273750E-2
3.274389834E0,-6.108652451E-4,-3.512475174E-3,-1.130100712E-2
3.276623171E0,-6.108652451E-4,-3.512475174E-3,-1.007927675E-2
3.278849368E0,-6.108652451E-4,-3.512475174E-3,-1.252273750E-2
3.281091128E0,6.872233935E-3,2.443460980E-3,-1.237002108E-2
3.283334842E0,6.872233935E-3,1.221730490E-3,-1.114829071E-2
3.285573977E0,6.108652451E-4,-1.069014193E-3,-1.252273750E-2
3.287809634E0,-6.108652451E-4,-2.290744567E-3,-1.252273750E-2
3.290044131E0,-3.207042580E-3,-5.955935922E-3,-1.007927675E-2
3.292280459E0,-4.428773187E-3,-5.803219974E-3,-1.130100712E-2
3.294517031E0,1.832595794E-3,-3.512475174E-3,-1.130100712E-2
3.296754580E0,3.207042580E-3,1.221730490E-3,-1.130100712E-2
3.298990664E0,5.650503561E-3,1.221730490E-3,-1.130100712E-2
3.301226016E0,3.054326167E-3,-3.512475174E-3,-1.252273750E-2
3.303462100E0,-5.497787148E-3,1.527163113E-4,-1.252273750E-2
3.305698672E0,-5.497787148E-3,-9.162978968E-4,-1.252273750E-2
3.307932253E0,-1.832595794E-3,-3.512475174E-3,-1.252273750E-2
3.310159610E0,4.428773187E-3,2.443460980E-3,-1.252273750E-2
3.312405215E0,8.093964309E-3,4.886921961E-3,-1.114829071E-2
3.314630984E0,6.719517522E-3,-1.221730490E-3,-1.130100712E-2
3.316870669E0,1.832595794E-3,-3.512475174E-3,-1.130100712E-2
3.319108584E0,-5.497787148E-3,-2.138028387E-3,-1.374446787E-2
3.321356081E0,-6.719517522E-3,-2.138028387E-3,-1.252273750E-2
3.323592470E0,-1.832595794E-3,1.374446787E-3,-1.252273750E-2
3.325828250E0,3.054326167E-3,1.221730490E-3,-1.007927675E-2
3.328062686E0,4.276056774E-3,0.000000000E0,-1.007927675E-2
3.330299319E0,6.108652451E-4,-3.512475174E-3,-1.252273750E-2
3.332536807E0,-1.832595794E-3,1.527163113E-4,-1.007927675E-2
3.334772647E0,-6.108652451E-4,-3.512475174E-3,-1.252273750E-2
3.337008242E0,4.276056774E-3,-3.665191587E-3,-1.252273750E-2
3.339244205E0,5.497787148E-3,-2.443460980E-3,-1.496619824E-2
3.341480411E0,6.872233935E-3,0.000000000E0,-1.130100712E-2
3.343717227E0,1.832595794E-3,-1.069014193E-3,-1.130100712E-2
3.345953738E0,4.581489484E-4,-5.955935922E-3,-1.007927675E-2
3.348190188E0,2.901609987E-3,-7.177666761E-3,-1.007927675E-2
3.350427676E0,9.162978269E-3,-3.665191587E-3,-9.926560335E-3
3.352663699E0,1.175915636E-2,2.290744567E-3,-9.926560335E-3
3.354894717E0,4.276056774E-3,-1.221730490E-3,-1.252273750E-2
3.357116763E0,-3.207042580E-3,-5.955935922E-3,-1.130100712E-2
3.359368350E0,-4.276056774E-3,-3.512475174E-3,-1.007927675E-2
3.361608279E0,6.108652451E-4,1.374446787E-3,-1.130100712E-2
3.363848818E0,8.093964309E-3,4.886921961E-3,-1.237002108E-2
3.366082155E0,1.175915636E-2,1.069014193E-3,-1.114829071E-2
3.368319033E0,6.872233935E-3,0.000000000E0,-1.007927675E-2
3.370554995E0,-4.428773187E-3,-4.581489135E-3,-1.130100712E-2
3.372790530E0,-1.053742506E-2,-2.138028387E-3,-1.145372353E-2
3.375026492E0,-5.650503561E-3,-4.581489135E-3,-8.857546374E-3
3.377262820E0,3.054326167E-3,-2.443460980E-3,-1.007927675E-2
3.379499148E0,9.162978269E-3,-2.443460980E-3,-1.114829071E-2
3.381735659E0,9.315694682E-3,2.290744567E-3,-1.114829071E-2
3.383972109E0,4.428773187E-3,2.443460980E-3,-1.252273750E-2
3.386209963E0,-1.832595794E-3,-2.290744567E-3,-1.252273750E-2
3.388445987E0,-6.719517522E-3,-9.162978968E-4,-1.130100712E-2
3.390681399E0,-4.276056774E-3,1.527163113E-4,-1.007927675E-2
3.392917361E0,1.985311974E-3,2.443460980E-3,-1.130100712E-2
3.395153750E0,1.832595794E-3,1.527163113E-4,-1.130100712E-2
3.397390567E0,1.832595794E-3,-1.069014193E-3,-1.252273750E-2
3.399627139E0,6.108652451E-4,1.374446787E-3,-1.130100712E-2
3.401864443E0,-4.276056774E-3,1.374446787E-3,-1.007927675E-2
3.404100711E0,-5.497787148E-3,3.817907767E-3,-1.130100712E-2
3.406336795E0,-3.054326167E-3,1.374446787E-3,-1.130100712E-2
3.408571963E0,6.108652451E-4,1.374446787E-3,-1.130100712E-2
3.410808536E0,3.207042580E-3,2.443460980E-3,-1.374446787E-2
3.413044864E0,4.276056774E-3,-2.443460980E-3,-1.374446787E-2
3.415281436E0,1.832595794E-3,-4.734205548E-3,-1.007927675E-2
3.417517703E0,4.276056774E-3,-4.886921961E-3,-1.130100712E-2
3.419754336E0,6.719517522E-3,0.000000000E0,-8.704829961E-3
3.421991885E0,5.650503561E-3,3.665191587E-3,-1.114829071E-2
3.424228030E0,1.832595794E-3,-3.512475174E-3,-1.130100712E-2
3.426463565E0,-6.108652451E-4,-4.734205548E-3,-1.252273750E-2
3.428699405E0,-6.108652451E-4,-4.734205548E-3,-1.007927675E-2
3.430935977E0,5.497787148E-3,-2.443460980E-3,-8.857546374E-3
3.433172488E0,1.175915636E-2,1.069014193E-3,-8.704829961E-3
3.435408877E0,8.093964309E-3,1.221730490E-3,-9.926560335E-3
3.437645510E0,3.054326167E-3,-2.443460980E-3,-1.252273750E-2
3.439883242E0,-1.832595794E-3,-4.734205548E-3,-1.374446787E-2
3.442116030E0,-5.650503561E-3,-4.581489135E-3,-1.007927675E-2
3.444342227E0,-3.054326167E-3,-3.512475174E-3,-8.857546374E-3
3.446590396E0,6.872233935E-3,2.443460980E-3,-7.483099122E-3
3.448826846E0,1.420261711E-2,3.512475174E-3,-8.704829961E-3
3.451066713E0,6.872233935E-3,1.221730490E-3,-8.704829961E-3
3.453299990E0,6.108652451E-4,-4.734205548E-3,-1.130100712E-2
3.455536624E0,-1.985311974E-3,-8.399397135E-3,-1.374446787E-2
3.457774050E0,-5.650503561E-3,-4.581489135E-3,-1.374446787E-2
3.460009951E0,-1.832595794E-3,-1.069014193E-3,-1.130100712E-2
3.462245608E0,7.635815418E-4,1.374446787E-3,-1.374446787E-2
3.464481875E0,1.985311974E-3,2.443460980E-3,-1.252273750E-2
3.466715273E0,6.108652451E-4,1.374446787E-3,-1.252273750E-2
3.468942813E0,-5.497787148E-3,1.527163113E-4,-1.130100712E-2
3.471191043E0,-1.038470957E-2,-2.138028387E-3,-1.389718428E-2
3.473427676E0,-1.160643995E-2,-9.162978968E-4,-1.145372353E-2
3.475668216E0,-3.054326167E-3,-3.512475174E-3,-1.130100712E-2
3.477900027E0,1.832595794E-3,1.221730490E-3,-1.130100712E-2
3.480131533E0,4.428773187E-3,4.886921961E-3,-1.252273750E-2
3.482372684E0,4.428773187E-3,1.221730490E-3,-1.130100712E-2
3.484609012E0,-1.832595794E-3,-1.069014193E-3,-1.130100712E-2
3.486843936E0,-4.581489484E-4,3.817907767E-3,-1.130100712E-2
3.489070254E0,1.985311974E-3,2.443460980E-3,-1.374446787E-2
3.491318850E0,6.108652451E-4,-1.069014193E-3,-1.252273750E-2
3.493556338E0,3.054326167E-3,-5.955935922E-3,-1.130100712E-2
3.495795108E0,6.108652451E-4,-1.069014193E-3,-1.130100712E-2
3.498024600E0,1.832595794E-3,-1.069014193E-3,-1.130100712E-2
3.500252078E0,4.428773187E-3,0.000000000E0,-1.252273750E-2
3.502500186E0,8.093964309E-3,5.955935922E-3,-1.114829071E-2
3.504736819E0,6.872233935E-3,3.665191587E-3,-9.926560335E-3
3.506976198E0,6.108652451E-4,1.374446787E-3,-1.130100712E-2
3.509209719E0,-3.054326167E-3,-1.069014193E-3,-1.374446787E-2
3.511447451E0,-6.719517522E-3,-9.162978968E-4,-1.252273750E-2
3.513683230E0,-6.108652451E-4,-2.290744567E-3,-1.007927675E-2
3.515918643E0,9.315694682E-3,2.290744567E-3,-9.926560335E-3
3.518154605E0,1.175915636E-2,2.290744567E-3,-8.704829961E-3
3.520388003E0,4.276056774E-3,0.000000000E0,-1.130100712E-2
3.522612673E0,-1.832595794E-3,-1.069014193E-3,-1.618792862E-2
3.524852237E0,-8.093964309E-3,-3.359758761E-3,-1.252273750E-2
3.527100833E0,-5.497787148E-3,-9.162978968E-4,-1.007927675E-2
3.529341372E0,1.832595794E-3,1.527163113E-4,-1.374446787E-2
3.531577395E0,1.053742506E-2,1.069014193E-3,-1.237002108E-2
3.533809756E0,9.315694682E-3,2.290744567E-3,-1.237002108E-2
3.536045840E0,1.985311974E-3,2.443460980E-3,-1.007927675E-2
3.538282412E0,-5.497787148E-3,-9.162978968E-4,-1.252273750E-2
3.540518985E0,-8.093964309E-3,-4.581489135E-3,-1.130100712E-2
3.542755252E0,-3.054326167E-3,-4.734205548E-3,-1.252273750E-2
3.544991641E0,3.054326167E-3,-1.221730490E-3,-1.130100712E-2
3.547229373E0,6.872233935E-3,0.000000000E0,-1.252273750E-2
3.549465274E0,4.276056774E-3,-1.221730490E-3,-1.496619824E-2
3.551700930E0,-5.497787148E-3,1.374446787E-3,-1.496619824E-2
3.553936953E0,-5.345070735E-3,3.817907767E-3,-1.374446787E-2
3.556173526E0,-4.581489484E-4,6.261368748E-3,-1.374446787E-2
3.558406924E0,1.985311974E-3,4.886921961E-3,-1.374446787E-2
3.560634646E0,1.985311974E-3,2.443460980E-3,-1.252273750E-2
3.562882754E0,6.108652451E-4,-1.069014193E-3,-1.252273750E-2
3.565119204E0,-3.207042580E-3,-5.955935922E-3,-1.130100712E-2
3.567353946E0,-6.108652451E-4,-2.290744567E-3,-1.130100712E-2
3.569591983E0,-6.108652451E-4,-1.069014193E-3,-1.130100712E-2
3.571827762E0,3.054326167E-3,-1.221730490E-3,-1.252273750E-2
3.574065737E0,3.054326167E-3,-2.443460980E-3,-1.252273750E-2
3.576300967E0,7.635815418E-4,3.817907767E-3,-1.374446787E-2
3.578537600E0,-4.276056774E-3,2.596177394E-3,-1.252273750E-2
3.580774111E0,-4.581489484E-4,2.596177394E-3,-1.130100712E-2
3.583011416E0,7.635815418E-4,4.886921961E-3,-1.252273750E-2
3.585247439E0,4.428773187E-3,7.330383174E-3,-1.114829071E-2
3.587482852E0,6.872233935E-3,2.443460980E-3,-1.237002108E-2
3.589719180E0,9.162978269E-3,-2.443460980E-3,-1.359175146E-2
3.591955508E0,4.276056774E-3,-2.443460980E-3,-1.374446787E-2
3.594192141E0,6.108652451E-4,1.527163113E-4,-1.252273750E-2
3.596428592E0,6.108652451E-4,1.374446787E-3,-1.252273750E-2
3.598664981E0,4.428773187E-3,0.000000000E0,-1.252273750E-2
3.600902529E0,5.650503561E-3,1.221730490E-3,-1.130100712E-2
3.603138553E0,6.872233935E-3,1.221730490E-3,-9.926560335E-3
3.605373904E0,3.054326167E-3,0.000000000E0,-1.130100712E-2
3.607609744E0,-6.108652451E-4,-1.069014193E-3,-1.252273750E-2
3.609843508E0,-4.276056774E-3,1.527163113E-4,-1.374446787E-2
3.612071658E0,-4.276056774E-3,-3.512475174E-3,-1.374446787E-2
3.614319339E0,6.108652451E-4,1.527163113E-4,-1.252273750E-2
3.616556155E0,5.650503561E-3,1.221730490E-3,-1.130100712E-2
3.618796512E0,9.315694682E-3,0.000000000E0,-1.237002108E-2
3.621029727E0,4.276056774E-3,-1.221730490E-3,-1.130100712E-2
3.623264834E0,-4.276056774E-3,1.527163113E-4,-1.252273750E-2
3.625501223E0,-5.497787148E-3,-2.138028387E-3,-1.252273750E-2
3.627737979E0,-4.428773187E-3,-4.581489135E-3,-1.007927675E-2
3.629974368E0,-1.832595794E-3,-2.290744567E-3,-1.130100712E-2
3.632210574E0,6.108652451E-4,-3.512475174E-3,-1.130100712E-2
3.634446902E0,1.832595794E-3,-3.512475174E-3,-1.130100712E-2
3.636684695E0,3.054326167E-3,-1.221730490E-3,-1.252273750E-2
3.638920596E0,3.207042580E-3,3.665191587E-3,-1.374446787E-2
3.641156253E0,-4.581489484E-4,7.483099122E-3,-1.374446787E-2
3.643392215E0,-7.941247895E-3,3.970623948E-3,-1.130100712E-2
3.645628665E0,-3.054326167E-3,-2.290744567E-3,-1.130100712E-2
3.647864565E0,6.108652451E-4,1.527163113E-4,-1.252273750E-2
3.650098269E0,4.428773187E-3,0.000000000E0,-1.374446787E-2
3.652335207E0,6.719517522E-3,-3.665191587E-3,-1.007927675E-2
3.654561159E0,1.832595794E-3,1.527163113E-4,-1.007927675E-2
3.656797915E0,1.832595794E-3,-1.069014193E-3,-1.252273750E-2
3.659035647E0,-6.108652451E-4,1.527163113E-4,-1.374446787E-2
3.661286257E0,-1.832595794E-3,-2.290744567E-3,-1.252273750E-2
3.663522646E0,-6.108652451E-4,1.374446787E-3,-1.130100712E-2
3.665759157E0,6.108652451E-4,1.374446787E-3,-1.252273750E-2
3.667989626E0,1.985311974E-3,1.221730490E-3,-1.252273750E-2
3.670217471E0,3.054326167E-3,-1.221730490E-3,-1.130100712E-2
3.672466738E0,6.108652451E-4,-1.069014193E-3,-1.130100712E-2
3.674702883E0,-6.108652451E-4,-4.734205548E-3,-1.130100712E-2
3.676941347E0,-1.985311974E-3,-4.734205548E-3,-1.007927675E-2
3.679174258E0,-3.207042580E-3,-5.955935922E-3,-1.007927675E-2
3.681410830E0,-1.832595794E-3,-3.512475174E-3,-8.857546374E-3
3.683647342E0,7.941247895E-3,-2.443460980E-3,-1.130100712E-2
3.685883731E0,6.872233935E-3,3.665191587E-3,-1.237002108E-2
3.688120303E0,8.093964309E-3,2.443460980E-3,-1.237002108E-2
3.690357791E0,3.054326167E-3,-3.512475174E-3,-1.252273750E-2
3.692593692E0,-6.108652451E-4,1.527163113E-4,-1.007927675E-2
3.694829287E0,-6.108652451E-4,1.374446787E-3,-1.252273750E-2
3.697065371E0,1.832595794E-3,-4.734205548E-3,-1.130100712E-2
3.699299014E0,3.054326167E-3,-3.512475174E-3,-1.130100712E-2
3.701526553E0,1.832595794E-3,1.527163113E-4,-1.130100712E-2
3.703774783E0,6.108652451E-4,1.527163113E-4,-1.007927675E-2
3.706011172E0,-6.108652451E-4,-1.069014193E-3,-8.857546374E-3
3.708251956E0,-5.497787148E-3,1.527163113E-4,-1.007927675E-2
3.710485110E0,-6.719517522E-3,1.527163084E-3,-1.130100712E-2
3.712720645E0,-5.650503561E-3,-4.581489135E-3,-1.252273750E-2
3.714956241E0,1.832595794E-3,-4.734205548E-3,-1.252273750E-2
3.717192996E0,6.108652451E-4,-4.734205548E-3,-1.374446787E-2
3.719429324E0,6.108652451E-4,1.374446787E-3,-1.007927675E-2
3.721665957E0,6.108652451E-4,1.527163113E-4,-1.007927675E-2
3.723902224E0,-3.054326167E-3,-1.069014193E-3,-1.130100712E-2
3.726139834E0,-7.941247895E-3,3.054326226E-4,-1.252273750E-2
3.728375857E0,-7.941247895E-3,-9.162978968E-4,-1.130100712E-2
3.730611270E0,-1.832595794E-3,-3.512475174E-3,-1.252273750E-2
3.732847293E0,1.832595794E-3,-2.290744567E-3,-1.252273750E-2
3.735083682E0,6.719517522E-3,-2.443460980E-3,-8.857546374E-3
3.737320498E0,5.650503561E-3,1.221730490E-3,-1.252273750E-2
3.739556826E0,1.985311974E-3,1.221730490E-3,-1.374446787E-2
3.741793460E0,-5.497787148E-3,1.374446787E-3,-1.130100712E-2
3.744030947E0,-5.497787148E-3,-9.162978968E-4,-1.007927675E-2
3.746267092E0,-3.054326167E-3,-3.512475174E-3,-1.130100712E-2
3.748502627E0,1.832595794E-3,-3.512475174E-3,-1.130100712E-2
3.750738467E0,4.276056774E-3,-3.665191587E-3,-1.130100712E-2
3.752975039E0,4.276056774E-3,-3.665191587E-3,-1.007927675E-2
3.755211612E0,4.428773187E-3,0.000000000E0,-1.252273750E-2
3.757446353E0,-6.108652451E-4,1.527163113E-4,-1.252273750E-2
3.759677188E0,-4.276056774E-3,-1.069014193E-3,-1.252273750E-2
3.761922061E0,-4.276056774E-3,-1.069014193E-3,-1.374446787E-2
3.764158084E0,-1.832595794E-3,-1.069014193E-3,-1.496619824E-2
3.766395388E0,4.276056774E-3,-4.886921961E-3,-1.252273750E-2
3.768629764E0,5.497787148E-3,-2.443460980E-3,-1.007927675E-2
3.770865909E0,-6.108652451E-4,-2.290744567E-3,-1.007927675E-2
3.773102786E0,-4.276056774E-3,-2.290744567E-3,-1.007927675E-2
3.775336245E0,-1.832595794E-3,1.374446787E-3,-1.130100712E-2
3.777563723E0,-3.054326167E-3,-2.290744567E-3,-1.130100712E-2
3.779813174E0,-5.650503561E-3,-4.581489135E-3,-1.130100712E-2
3.782049136E0,6.108652451E-4,1.527163113E-4,-1.007927675E-2
3.784287356E0,4.276056774E-3,-1.221730490E-3,-1.130100712E-2
3.786520694E0,8.093964309E-3,3.665191587E-3,-1.237002108E-2
3.788757266E0,6.872233935E-3,3.665191587E-3,-1.237002108E-2
3.790993899E0,3.054326167E-3,-1.221730490E-3,-1.130100712E-2
3.793230166E0,-6.108652451E-4,-2.290744567E-3,-1.130100712E-2
3.795466738E0,-3.054326167E-3,-2.290744567E-3,-1.252273750E-2
3.797704226E0,-3.054326167E-3,-3.512475174E-3,-1.374446787E-2
3.799937075E0,-6.108652451E-4,-2.290744567E-3,-1.007927675E-2
3.802163516E0,3.054326167E-3,-1.221730490E-3,-1.007927675E-2
3.804411746E0,-6.108652451E-4,1.527163113E-4,-1.130100712E-2
3.806643679E0,-1.832595794E-3,-2.290744567E-3,-1.130100712E-2
3.808869875E0,-6.719517522E-3,-2.138028387E-3,-1.252273750E-2
3.811118105E0,-4.276056774E-3,-2.290744567E-3,-1.252273750E-2
3.813344546E0,-1.832595794E-3,-1.069014193E-3,-1.130100712E-2
3.815590274E0,1.832595794E-3,-2.290744567E-3,-1.252273750E-2
3.817821109E0,1.832595794E-3,-3.512475174E-3,-1.007927675E-2
3.820075442E0,3.054326167E-3,-2.443460980E-3,-1.007927675E-2
3.822298891E0,1.832595794E-3,-2.290744567E-3,-1.130100712E-2
3.824542238E0,4.276056774E-3,-2.443460980E-3,-1.130100712E-2
3.826771060E0,6.108652451E-4,-3.512475174E-3,-1.007927675E-2
3.829001773E0,-1.832595794E-3,1.527163113E-4,-1.374446787E-2
3.831248721E0,-6.108652451E-4,-1.069014193E-3,-1.252273750E-2
3.833486270E0,-1.832595794E-3,-2.290744567E-3,-1.252273750E-2
3.835725344E0,6.108652451E-4,-2.290744567E-3,-1.007927675E-2
3.837955019E0,5.497787148E-3,-1.221730490E-3,-8.857546374E-3
3.840182010E0,4.276056774E-3,1.221730490E-3,-8.857546374E-3
3.842430057E0,-1.832595794E-3,-1.069014193E-3,-1.130100712E-2
3.844666690E0,-8.093964309E-3,-3.359758761E-3,-1.252273750E-2
3.846903445E0,-1.053742506E-2,-4.581489135E-3,-1.145372353E-2
3.849127993E0,-3.207042580E-3,-5.955935922E-3,-1.252273750E-2
3.851377749E0,3.054326167E-3,-3.512475174E-3,-1.130100712E-2
3.853613833E0,5.650503561E-3,2.443460980E-3,-9.926560335E-3
3.855848574E0,6.719517522E-3,-1.221730490E-3,-1.007927675E-2
3.858065921E0,3.054326167E-3,-3.512475174E-3,-1.007927675E-2
3.860309207E0,-1.832595794E-3,1.374446787E-3,-8.857546374E-3
3.862557864E0,-3.054326167E-3,1.527163113E-4,-1.252273750E-2
3.864798342E0,-1.985311974E-3,-5.955935922E-3,-1.007927675E-2
3.867033999E0,1.832595794E-3,-4.734205548E-3,-1.130100712E-2
3.869268435E0,5.497787148E-3,-2.443460980E-3,-1.252273750E-2
3.871504336E0,4.276056774E-3,-2.443460980E-3,-8.857546374E-3
3.873739932E0,3.054326167E-3,-2.443460980E-3,-8.857546374E-3
3.875976016E0,7.635815418E-4,3.817907767E-3,-1.007927675E-2
3.878212649E0,6.108652451E-4,1.527163113E-4,-1.252273750E-2
3.880449160E0,-6.108652451E-4,-2.290744567E-3,-1.007927675E-2
3.882685489E0,6.108652451E-4,-2.290744567E-3,-1.007927675E-2
3.884922061E0,3.054326167E-3,-3.512475174E-3,-1.130100712E-2
3.887159609E0,6.719517522E-3,-2.443460980E-3,-1.007927675E-2
3.889395694E0,4.276056774E-3,-6.108652335E-3,-1.007927675E-2
3.891630984E0,3.054326167E-3,-3.512475174E-3,-1.130100712E-2
3.893866824E0,-3.054326167E-3,-1.069014193E-3,-1.007927675E-2
3.896103396E0,-6.719517522E-3,-3.359758761E-3,-1.252273750E-2
3.898336978E0,-5.497787148E-3,-3.359758761E-3,-1.496619824E-2
3.900564395E0,-4.428773187E-3,-7.024950348E-3,-1.374446787E-2
3.902812991E0,4.581489484E-4,-5.955935922E-3,-1.130100712E-2
3.905050723E0,3.054326167E-3,0.000000000E0,-1.130100712E-2
3.907289553E0,6.108652451E-4,1.374446787E-3,-1.130100712E-2
3.909521975E0,-6.108652451E-4,1.374446787E-3,-1.252273750E-2
3.911758182E0,-6.872233935E-3,-3.359758761E-3,-1.252273750E-2
3.913994571E0,-9.315694682E-3,-7.024950348E-3,-1.145372353E-2
3.916231204E0,-4.428773187E-3,-5.803219974E-3,-1.130100712E-2
3.918467715E0,-1.832595794E-3,-1.069014193E-3,-1.252273750E-2
3.920704287E0,3.207042580E-3,1.221730490E-3,-1.130100712E-2
3.922941592E0,6.719517522E-3,-2.443460980E-3,-1.007927675E-2
3.925177615E0,3.054326167E-3,-2.443460980E-3,-1.130100712E-2
3.927413028E0,-6.108652451E-4,-2.290744567E-3,-1.252273750E-2
3.929649356E0,-4.276056774E-3,1.527163113E-4,-1.252273750E-2
3.931885623E0,-7.941247895E-3,1.527163084E-3,-1.130100712E-2
3.934122012E0,-5.497787148E-3,-9.162978968E-4,-1.130100712E-2
3.936358523E0,-3.207042580E-3,-5.955935922E-3,-1.130100712E-2
3.938595156E0,-6.108652451E-4,-2.290744567E-3,-7.635815535E-3
3.940830874E0,6.108652451E-4,1.374446787E-3,-8.857546374E-3
3.943058230E0,6.108652451E-4,1.374446787E-3,-1.007927675E-2
3.945292178E0,-4.276056774E-3,-1.069014193E-3,-1.130100712E-2
3.947540225E0,-6.719517522E-3,3.054326226E-4,-1.130100712E-2
3.949778689E0,-6.719517522E-3,-9.162978968E-4,-8.857546374E-3
3.952016359E0,-5.497787148E-3,1.374446787E-3,-8.857546374E-3
3.954249697E0,1.985311974E-3,3.665191587E-3,-8.857546374E-3
3.956486270E0,5.497787148E-3,-1.221730490E-3,-1.007927675E-2
3.958723818E0,4.276056774E-3,-4.886921961E-3,-8.857546374E-3
3.960959842E0,-3.054326167E-3,-1.069014193E-3,-8.857546374E-3
3.963194949E0,-5.497787148E-3,-2.138028387E-3,-1.007927675E-2
3.965431094E0,-4.276056774E-3,-2.290744567E-3,-8.857546374E-3
3.967667911E0,-1.832595794E-3,-3.512475174E-3,-1.130100712E-2
3.969904544E0,1.832595794E-3,-3.512475174E-3,-1.130100712E-2
3.972140933E0,3.207042580E-3,4.886921961E-3,-1.007927675E-2
3.974377627E0,1.832595794E-3,1.221730490E-3,-1.130100712E-2
3.976614871E0,6.108652451E-4,-4.734205548E-3,-1.130100712E-2
3.978850772E0,-6.566801574E-3,6.261368748E-3,-1.007927675E-2
3.981083315E0,-7.941247895E-3,1.527163084E-3,-1.007927675E-2
3.983310428E0,-2.138028387E-3,-1.313360315E-2,-1.007927675E-2
3.985558841E0,-7.635815418E-4,-9.621127509E-3,-1.007927675E-2
3.987795596E0,3.207042580E-3,3.665191587E-3,-1.130100712E-2
3.990034914E0,6.872233935E-3,4.886921961E-3,-1.114829071E-2
3.992268557E0,-1.679879380E-3,6.261368748E-3,-1.007927675E-2
3.994506045E0,-4.276056774E-3,1.374446787E-3,-1.007927675E-2
3.996742068E0,-5.497787148E-3,-9.162978968E-4,-1.130100712E-2
3.998977237E0,-3.054326167E-3,-1.069014193E-3,-1.130100712E-2
4.001213504E0,6.108652451E-4,1.374446787E-3,-7.635815535E-3
4.003449832E0,3.054326167E-3,-2.443460980E-3,-1.007927675E-2
4.005686526E0,5.497787148E-3,-3.665191587E-3,-1.252273750E-2
4.007919985E0,3.207042580E-3,3.665191587E-3,-1.007927675E-2
4.010147463E0,3.207042580E-3,7.330383174E-3,-7.635815535E-3
4.012397158E0,-4.581489484E-4,6.261368748E-3,-1.007927675E-2
4.014632937E0,-5.497787148E-3,1.374446787E-3,-8.857546374E-3
4.016871402E0,-7.941247895E-3,1.527163084E-3,-1.130100712E-2
4.019104556E0,-2.901609987E-3,7.483099122E-3,-1.130100712E-2
4.021337893E0,7.635815418E-4,8.552113548E-3,-8.857546374E-3
4.023566104E0,6.108652451E-4,1.374446787E-3,-1.130100712E-2
4.025813845E0,3.054326167E-3,-2.443460980E-3,-8.857546374E-3
4.028047549E0,7.635815418E-4,4.886921961E-3,-1.007927675E-2
4.030278872E0,-6.566801574E-3,7.483099122E-3,-1.130100712E-2
4.032523867E0,-9.162978269E-3,5.192354787E-3,-8.857546374E-3
4.034759463E0,-8.093964309E-3,-2.138028387E-3,-1.007927675E-2
4.036998537E0,-4.276056774E-3,1.374446787E-3,-1.252273750E-2
4.039232181E0,7.635815418E-4,7.330383174E-3,-1.252273750E-2
4.041468692E0,4.428773187E-3,6.108652335E-3,-1.114829071E-2
4.043705081E0,-4.581489484E-4,3.817907767E-3,-1.252273750E-2
4.045941897E0,-4.276056774E-3,1.527163113E-4,-1.007927675E-2
4.048179385E0,-7.941247895E-3,3.054326226E-4,-1.130100712E-2
4.050415225E0,-3.054326167E-3,2.596177394E-3,-1.130100712E-2
4.052650576E0,7.635815418E-4,3.817907767E-3,-1.007927675E-2
4.054886844E0,5.650503561E-3,2.443460980E-3,-9.926560335E-3
4.057123233E0,7.941247895E-3,0.000000000E0,-7.483099122E-3
4.059359805E0,5.650503561E-3,4.886921961E-3,-8.704829961E-3
4.061596072E0,-2.901609987E-3,6.261368748E-3,-1.007927675E-2
4.063832644E0,-5.497787148E-3,1.527163113E-4,-1.007927675E-2
4.066070010E0,-3.054326167E-3,-1.069014193E-3,-1.130100712E-2
4.068306277E0,6.108652451E-4,-2.290744567E-3,-1.252273750E-2
4.070541385E0,4.276056774E-3,0.000000000E0,-1.130100712E-2
4.072777591E0,4.428773187E-3,6.108652335E-3,-1.114829071E-2
4.075014285E0,-4.581489484E-4,5.039638374E-3,-1.007927675E-2
4.077250735E0,-4.581489484E-4,6.261368748E-3,-8.857546374E-3
4.079487307E0,-5.345070735E-3,5.039638374E-3,-8.857546374E-3
4.081723757E0,-1.160643995E-2,6.414085161E-3,-8.857546374E-3
4.083961123E0,-1.038470957E-2,3.970623948E-3,-1.007927675E-2
4.086197146E0,-1.679879380E-3,6.261368748E-3,-7.635815535E-3
4.088432498E0,3.207042580E-3,4.886921961E-3,-7.635815535E-3
4.090668582E0,1.985311974E-3,2.443460980E-3,-7.635815535E-3
4.092905032E0,-4.581489484E-4,5.039638374E-3,-1.007927675E-2
4.095142092E0,-6.566801574E-3,1.237002108E-2,-8.857546374E-3
4.097378360E0,-5.345070735E-3,1.114829071E-2,-1.007927675E-2
4.099614749E0,-9.010262787E-3,8.857546374E-3,-1.130100712E-2
4.101852175E0,-9.162978269E-3,5.192354787E-3,-1.130100712E-2
4.104088260E0,-5.497787148E-3,1.374446787E-3,-8.857546374E-3
4.106324221E0,-1.679879380E-3,1.099557430E-2,-8.857546374E-3
4.108561953E0,-1.679879380E-3,9.926560335E-3,-8.857546374E-3
4.110793276E0,-3.054326167E-3,1.374446787E-3,-1.007927675E-2
4.113020694E0,-6.719517522E-3,3.817907767E-3,-8.857546374E-3
4.115268680E0,-3.207042580E-3,-4.734205548E-3,-1.130100712E-2
4.117505862E0,3.054326167E-3,-2.443460980E-3,-1.007927675E-2
4.119746646E0,5.955935922E-3,1.695151068E-2,-1.237002108E-2
4.121979434E0,-2.596177394E-3,1.954768784E-2,-1.359175146E-2
4.124214785E0,-7.788531948E-3,6.414085161E-3,-1.130100712E-2
4.126450809E0,-6.719517522E-3,3.054326226E-4,-1.130100712E-2
4.128687442E0,4.428773187E-3,1.221730490E-3,-1.007927675E-2
4.130924014E0,9.468411095E-3,1.206458826E-2,-9.926560335E-3
4.133160342E0,-4.581489484E-4,1.099557430E-2,-7.635815535E-3
4.135396975E0,-1.038470957E-2,7.635815535E-3,-6.414085161E-3
4.137634707E0,-1.160643995E-2,3.054326226E-4,-7.635815535E-3
4.139870547E0,-2.901609987E-3,5.039638374E-3,-8.857546374E-3
4.142105838E0,3.359758761E-3,1.221730467E-2,-9.926560335E-3
4.144341678E0,4.734205548E-3,1.695151068E-2,-9.926560335E-3
4.146575625E0,-5.192354787E-3,1.359175146E-2,-1.252273750E-2
4.148803286E0,-1.389718428E-2,7.635815535E-3,-1.252273750E-2
4.151048098E0,-1.023199316E-2,7.635815535E-3,-1.374446787E-2
4.153273379E0,-7.483099122E-3,1.970040426E-2,-1.374446787E-2
4.155516788E0,-5.192354787E-3,1.725694351E-2,-1.374446787E-2
4.157761782E0,-6.566801574E-3,9.926560335E-3,-1.252273750E-2
4.160000002E0,-1.023199316E-2,1.007927675E-2,-1.007927675E-2
4.162236269E0,-1.145372353E-2,8.857546374E-3,-1.130100712E-2
4.164469668E0,-3.817907767E-3,2.199114859E-2,-1.114829071E-2
4.166703493E0,3.817907767E-3,3.161227703E-2,-1.237002108E-2
4.168928469E0,-2.748893574E-3,1.710422710E-2,-1.007927675E-2
4.171166934E0,-1.420261711E-2,-5.650503561E-3,-9.010262787E-3
4.173416629E0,-1.542434748E-2,-4.428773187E-3,-9.010262787E-3
4.175655276E0,-7.330383174E-3,4.734205548E-3,-8.552113548E-3
4.177887575E0,5.192354787E-3,1.175915636E-2,-1.206458826E-2
4.180109743E0,5.192354787E-3,1.420261711E-2,-1.084285788E-2
4.182360537E0,-3.512475174E-3,3.512475174E-3,-9.773843922E-3
4.184597110E0,-8.552113548E-3,0.000000000E0,-9.773843922E-3
4.186834292E0,-7.483099122E-3,-3.665191587E-3,-9.773843922E-3
4.189058352E0,-1.221730490E-3,-3.817907767E-3,-9.773843922E-3
4.191307803E0,5.039638374E-3,2.138028387E-3,-8.399397135E-3
4.193543643E0,5.039638374E-3,5.803219974E-3,-1.084285788E-2
4.195782230E0,1.527163084E-3,9.468411095E-3,-1.588249579E-2
4.198012332E0,-1.069014193E-3,8.246680722E-3,-1.343903504E-2
4.200239932E0,-4.581489135E-3,1.206458826E-2,-1.466076635E-2
4.202488223E0,-1.084285788E-2,8.552113548E-3,-1.221730467E-2
4.204724734E0,-1.237002108E-2,-4.886921961E-3,-1.114829071E-2
4.206964114E0,-7.483099122E-3,-8.552113548E-3,-8.552113548E-3
4.209195986E0,-6.108652335E-3,-1.527163113E-4,-6.108652335E-3
4.211423037E0,-6.108652335E-3,4.734205548E-3,-6.108652335E-3
4.213670413E0,-9.773843922E-3,1.221730490E-3,-4.886921961E-3
4.215906375E0,-1.359175146E-2,-2.290744567E-3,-6.261368748E-3
4.218142764E0,-1.466076635E-2,2.443460980E-3,-8.704829961E-3
4.220364565E0,-1.221730467E-2,4.886921961E-3,-9.773843922E-3
4.222600893E0,-6.108652335E-3,2.290744567E-3,-1.099557430E-2
4.224838198E0,5.039638374E-3,5.803219974E-3,-1.084285788E-2
4.227071779E0,5.192354787E-3,9.468411095E-3,-9.621127509E-3
4.229310793E0,-1.069014193E-3,8.246680722E-3,-7.330383174E-3
4.231550601E0,-2.443460980E-3,1.069014193E-3,-8.552113548E-3
4.233795413E0,-2.443460980E-3,-1.374446787E-3,-7.330383174E-3
4.236036929E0,-2.443460980E-3,-1.527163113E-4,-7.330383174E-3
4.238273746E0,2.443460980E-3,-3.054326226E-4,-8.552113548E-3
4.240508060E0,7.483099122E-3,-3.054326226E-4,-8.399397135E-3
4.242743350E0,6.108652335E-3,-1.527163084E-3,-9.773843922E-3
4.244980838E0,6.261368748E-3,2.138028387E-3,-7.177666761E-3
4.247216983E0,7.483099122E-3,5.650503561E-3,-7.177666761E-3
4.249452334E0,6.261368748E-3,5.803219974E-3,-9.621127509E-3
4.251688479E0,5.039638374E-3,4.581489135E-3,-1.084285788E-2
4.253925235E0,0.000000000E0,-1.527163113E-4,-1.099557430E-2
4.256161563E0,0.000000000E0,-5.039638374E-3,-9.773843922E-3
4.258397891E0,0.000000000E0,-1.374446787E-3,-1.221730467E-2
4.260634341E0,-1.069014193E-3,3.512475174E-3,-9.773843922E-3
4.262871707E0,0.000000000E0,2.290744567E-3,-8.552113548E-3
4.265107852E0,2.596177394E-3,3.359758761E-3,-9.773843922E-3
4.267343508E0,-5.955935922E-3,4.734205548E-3,-1.099557430E-2
4.269579837E0,-1.099557430E-2,3.665191587E-3,-9.773843922E-3
4.271816165E0,-1.237002108E-2,-3.665191587E-3,-1.114829071E-2
4.274050173E0,-7.330383174E-3,1.221730490E-3,-8.552113548E-3
4.276278872E0,-2.443460980E-3,1.069014193E-3,-8.552113548E-3
4.278525332E0,-2.443460980E-3,1.069014193E-3,-1.099557430E-2
4.280763125E0,-1.221730490E-3,2.290744567E-3,-7.330383174E-3
4.283001650E0,-3.512475174E-3,5.955935922E-3,-8.552113548E-3
4.285234317E0,-7.177666761E-3,7.177666761E-3,-9.773843922E-3
4.287470340E0,-1.099557430E-2,0.000000000E0,-1.099557430E-2
4.289706973E0,-2.443460980E-3,-1.374446787E-3,-9.773843922E-3
4.291943850E0,3.817907767E-3,3.359758761E-3,-8.399397135E-3
4.294180117E0,7.483099122E-3,3.359758761E-3,-8.399397135E-3
4.296416506E0,9.926560335E-3,1.985311974E-3,-7.177666761E-3
4.298654238E0,5.039638374E-3,3.359758761E-3,-7.177666761E-3
4.300890200E0,1.221730490E-3,-2.596177394E-3,-7.330383174E-3
4.303125247E0,-4.886921961E-3,-3.817907767E-3,-9.773843922E-3
4.305361697E0,-1.221730490E-3,-1.374446787E-3,-8.552113548E-3
4.307598025E0,2.596177394E-3,2.138028387E-3,-7.330383174E-3
4.309831911E0,5.039638374E-3,3.359758761E-3,-5.955935922E-3
4.312056765E0,7.483099122E-3,3.359758761E-3,-8.399397135E-3
4.314292849E0,2.596177394E-3,4.581489135E-3,-1.099557430E-2
4.316533145E0,-3.665191587E-3,2.290744567E-3,-9.773843922E-3
4.318784060E0,-4.886921961E-3,-1.374446787E-3,-9.773843922E-3
4.321019716E0,-8.552113548E-3,1.221730490E-3,-9.773843922E-3
4.323255617E0,-3.665191587E-3,1.069014193E-3,-9.773843922E-3
4.325489200E0,-1.221730490E-3,-1.374446787E-3,-8.552113548E-3
4.327723025E0,-1.221730490E-3,-1.527163113E-4,-8.552113548E-3
4.329951419E0,-2.443460980E-3,1.069014193E-3,-8.552113548E-3
4.332198977E0,-1.221730490E-3,2.290744567E-3,-8.552113548E-3
4.334436465E0,-8.399397135E-3,7.177666761E-3,-9.773843922E-3
4.336674990E0,-8.552113548E-3,3.665191587E-3,-1.099557430E-2
4.338907656E0,-9.773843922E-3,3.665191587E-3,-1.099557430E-2
4.341143863E0,-6.108652335E-3,3.512475174E-3,-1.099557430E-2
4.343380008E0,-6.108652335E-3,3.512475174E-3,-1.099557430E-2
4.345616641E0,-3.665191587E-3,-1.527163113E-4,-1.099557430E-2
4.347850161E0,1.221730490E-3,-1.374446787E-3,-7.330383174E-3
4.350077944E0,3.817907767E-3,2.138028387E-3,-9.621127509E-3
4.352326540E0,-1.221730490E-3,2.290744567E-3,-7.330383174E-3
4.354555972E0,-2.443460980E-3,-1.374446787E-3,-7.330383174E-3
4.356789554E0,-6.261368748E-3,-6.108652335E-3,-7.330383174E-3
4.359034793E0,-1.374446787E-3,-7.483099122E-3,-6.108652335E-3
4.361272524E0,7.330383174E-3,-5.192354787E-3,-8.552113548E-3
4.363511111E0,1.359175146E-2,7.635815418E-4,-8.399397135E-3
4.365744510E0,1.374446787E-2,6.872233935E-3,-9.621127509E-3
4.367977663E0,1.374446787E-3,5.803219974E-3,-1.099557430E-2
4.370206423E0,-4.886921961E-3,2.290744567E-3,-1.221730467E-2
4.372451296E0,-6.108652335E-3,-1.221730490E-3,-1.343903504E-2
4.374675295E0,0.000000000E0,1.069014193E-3,-9.773843922E-3
4.376914248E0,8.704829961E-3,9.162978968E-4,-8.399397135E-3
4.379147647E0,1.359175146E-2,1.985311974E-3,-7.177666761E-3
4.381387149E0,2.596177394E-3,3.359758761E-3,-6.108652335E-3
4.383623721E0,-9.773843922E-3,-1.221730490E-3,-8.552113548E-3
4.385860293E0,-1.725694351E-2,-4.734205548E-3,-7.483099122E-3
4.388097598E0,-1.481348183E-2,-2.290744567E-3,-9.926560335E-3
4.390333682E0,-4.886921961E-3,3.512475174E-3,-9.773843922E-3
4.392569278E0,1.527163113E-4,2.290744567E-3,-1.221730467E-2
4.394805484E0,1.527163113E-4,4.581489135E-3,-1.221730467E-2
