"Time (s)","Linear Acceleration x (m/s^2)","Linear Acceleration y (m/s^2)","Linear Acceleration z (m/s^2)"
1.546466090E-1,3.623136878E-2,-4.794764519E-2,1.457405090E-2
1.725348540E-1,-6.413027644E-2,-2.338850498E-2,-2.270412445E-2
1.904259060E-1,2.729967237E-3,9.501755238E-3,1.021175385E-1
2.083170190E-1,9.276811779E-2,1.818931103E-2,1.724433899E-2
2.262108790E-1,7.557243109E-3,-2.233219147E-2,6.649017334E-3
2.440988190E-1,-2.745653689E-2,-7.241666317E-3,-2.931690216E-2
2.619899320E-1,-4.639562964E-2,5.487012863E-2,4.292392731E-2
2.798804350E-1,-1.499862969E-2,1.230987906E-1,8.965110779E-2
2.977730120E-1,-2.768370509E-2,4.715424776E-2,-2.371788025E-3
3.156655290E-1,2.709611505E-2,1.139998436E-3,2.144527435E-2
3.335535310E-1,2.523814887E-2,3.212624788E-2,3.371429443E-2
3.514445220E-1,-2.972717583E-2,9.225243330E-2,4.539394379E-2
3.693272120E-1,-4.432311654E-2,8.561366796E-2,9.325027466E-3
3.872267480E-1,1.134672016E-2,4.560053349E-2,2.463340759E-2
4.051145050E-1,6.484872103E-2,-2.135103941E-2,2.261257172E-2
4.230081210E-1,2.695099264E-2,-4.764831066E-2,5.518913269E-2
4.408992950E-1,-2.670751512E-2,3.503441811E-3,2.305221558E-2
4.587903470E-1,-5.889290571E-2,1.532846689E-2,2.002716064E-5
4.766815210E-1,-9.002044797E-3,-2.086848021E-2,9.739971161E-2
4.945722070E-1,3.103330731E-2,-6.180214882E-2,6.874561310E-2
5.124605740E-1,5.981347710E-2,-1.045227051E-3,-3.070640564E-2
5.303543730E-1,-1.715223491E-2,-6.024658680E-3,-1.784515381E-2
5.482454250E-1,-3.827245533E-2,-9.489655495E-3,3.475189209E-3
5.661361110E-1,-2.331882715E-3,-7.045269012E-3,-5.750274658E-2
5.840275300E-1,-4.348640144E-2,5.226987600E-2,1.864528656E-2
6.019179720E-1,4.161237925E-2,1.102173328E-1,-1.690387726E-2
6.198102440E-1,2.954445779E-2,3.160417080E-2,-1.007642746E-1
6.377001370E-1,-2.854476869E-2,4.100555182E-2,-4.974746704E-2
6.555955220E-1,-4.449462891E-2,9.841865301E-2,-7.179737091E-2
6.734821200E-1,8.738160133E-3,8.713847399E-2,-8.278560638E-2
6.913762230E-1,7.105373591E-2,4.332405329E-2,2.593040466E-3
7.092643460E-1,-2.090891302E-1,2.596533298E-2,-6.584167480E-2
7.271551540E-1,1.025328487E-1,-7.410466671E-3,-7.713603973E-2
7.450459610E-1,1.773105264E-1,-1.731932163E-3,-2.009582520E-2
7.629238310E-1,-3.550073504E-2,1.325726509E-2,-3.381633759E-2
7.808282500E-1,-4.387661815E-3,-4.913914204E-2,-9.413337708E-2
7.987191190E-1,1.190120727E-1,-5.821442604E-2,-4.977512360E-2
8.166100490E-1,-1.501536369E-2,1.825690269E-3,-4.611968994E-2
8.344896270E-1,-3.500874341E-2,3.089010715E-3,-6.246852875E-2
8.523920320E-1,1.018951237E-1,5.442082882E-3,-1.159849167E-1
8.702711820E-1,7.859526575E-2,6.325787306E-2,-1.012487411E-1
8.881739530E-1,-4.734243453E-2,6.096601486E-2,-6.505489349E-2
9.060650660E-1,1.607827842E-2,1.102713346E-1,-1.278495789E-2
9.239559960E-1,1.914087534E-1,1.363672614E-1,-1.008033752E-3
9.418469880E-1,5.719183385E-2,3.122705221E-2,-1.242971420E-1
9.597379180E-1,-3.611546010E-2,5.825287104E-2,-7.022190094E-2
9.776293360E-1,8.384301513E-2,1.254941821E-1,2.095222473E-2
9.955199610E-1,7.077623904E-2,7.518112659E-2,2.180290222E-2
1.013396609E0,-1.205188036E-2,3.366088867E-2,-8.638095856E-2
1.031301944E0,2.845890820E-3,5.953395367E-2,-2.637100220E-2
1.049193057E0,3.861665726E-2,2.667707205E-2,4.491329193E-2
1.067082766E0,8.539599180E-2,2.903538942E-2,9.574985504E-2
1.084975100E0,2.691349387E-2,1.053988934E-3,8.959102631E-2
1.102865909E0,-1.068630815E-2,1.701515913E-2,6.147193909E-2
1.120756961E0,1.046051085E-2,-2.174001932E-2,9.873962402E-2
1.138647769E0,9.345576167E-2,2.691388130E-2,9.979343414E-2
1.156537661E0,8.917693794E-2,2.787035704E-2,1.398611069E-1
1.174418643E0,2.642034739E-2,5.687963963E-2,8.677959442E-2
1.192308169E0,-4.571764916E-2,7.720929384E-2,1.359109879E-1
1.210200320E0,2.308745682E-2,4.621785879E-2,7.748317719E-2
1.228097720E0,7.410436124E-2,2.795374393E-2,2.066774368E-1
1.245993838E0,4.114087671E-2,7.096755505E-2,1.125221252E-1
1.263884891E0,-1.037165523E-3,9.396600723E-2,1.321554184E-1
1.281776065E0,1.644100249E-2,7.493996620E-2,1.154356003E-1
1.299655032E0,1.042737067E-2,-6.914734840E-4,1.251392365E-1
1.317555178E0,3.884630650E-2,5.966609716E-2,1.242380142E-1
1.335449100E0,9.006573260E-2,5.876052380E-2,2.043828964E-1
1.353340274E0,8.449526131E-2,-1.224219799E-3,9.004306793E-2
1.371230777E0,-5.139529705E-3,1.359701157E-2,1.406555176E-1
1.389109988E0,3.489920497E-2,1.745784283E-2,1.961469650E-1
1.407015871E0,5.387891829E-2,2.730453014E-2,1.786575317E-1
1.424903995E0,2.877058089E-2,1.438575983E-2,9.539508820E-2
1.442795108E0,9.811292589E-2,-1.397508383E-2,9.431076050E-2
1.460686160E0,7.314167917E-2,-8.969783783E-3,1.442213058E-1
1.478577090E0,-2.203522623E-2,-2.741467953E-2,1.203727722E-1
1.496467959E0,2.009689808E-3,8.214420080E-2,5.485630035E-2
1.514359073E0,5.049833655E-2,6.371212006E-2,-1.027202606E-2
1.532250186E0,3.493127227E-2,4.684579372E-2,3.380775452E-3
1.550131045E0,3.812235594E-2,5.452501774E-2,-2.118682861E-2
1.568029116E0,-1.143813133E-2,4.451692104E-2,-4.033470154E-2
1.585919252E0,4.405746609E-2,8.424121141E-2,-5.378627777E-2
1.603814151E0,7.837618142E-2,7.183223963E-2,-7.550621033E-2
1.621705203E0,4.507785290E-2,7.787346840E-3,-1.091623306E-1
1.639599123E0,-3.518462181E-4,7.823652029E-2,-1.458034515E-1
1.657484316E0,3.247384727E-2,7.805413008E-2,-8.071517944E-2
1.675378055E0,1.184752733E-1,4.723101854E-2,-1.199235916E-1
1.693274783E0,-3.545880318E-4,-4.147696495E-2,-1.791334152E-1
1.711149966E0,1.331192255E-2,-1.543837786E-2,-1.116571426E-1
1.729041872E0,1.624807119E-1,6.069338322E-2,-1.749715805E-1
1.746944826E0,4.498125613E-2,-2.777230740E-2,-1.843910217E-1
1.764833377E0,3.487889469E-2,2.204966545E-2,-1.686677933E-1
1.782712466E0,1.055936441E-1,1.424723864E-2,-1.169366837E-1
1.800615298E0,5.547899753E-2,1.146781445E-2,-1.641340256E-1
1.818491519E0,2.692131698E-2,1.051747799E-2,-1.714019775E-1
1.836397342E0,1.050508842E-1,6.466901302E-2,-1.219863892E-1
1.854288211E0,4.781879485E-2,4.662567377E-2,-1.217565536E-1
1.872179141E0,2.384939790E-2,7.231235504E-2,-1.670513153E-1
1.890074405E0,9.277358651E-2,7.487255335E-2,-1.673192978E-1
1.907958621E0,5.677017570E-2,3.126412630E-2,-1.194868088E-1
1.925852664E0,-4.108804464E-2,6.920796633E-2,-1.405296326E-1
1.943743350E0,-2.214519680E-2,5.990403891E-2,-1.228103638E-1
1.961634402E0,3.277809918E-2,3.966176510E-2,-2.941322327E-2
1.979525516E0,4.582700133E-2,3.297865391E-2,-2.924633026E-2
1.997416446E0,1.657216251E-2,-1.296889782E-2,-5.947017670E-2
2.015307498E0,1.944841444E-2,3.854662180E-2,-1.402854919E-2
2.033198428E0,-1.597021520E-2,-1.250880957E-2,3.760433197E-2
2.051089480E0,-4.339644313E-2,1.038908958E-4,-1.126766205E-2
2.068965701E0,-2.617955208E-3,-1.178765297E-2,6.004714966E-2
2.086871890E0,3.424174339E-2,5.349260569E-2,9.339523315E-2
2.104762393E0,3.489403427E-2,4.411691427E-2,8.240222931E-2
2.122653506E0,3.225998580E-2,1.766031981E-2,1.287794113E-1
2.140544559E0,2.006427944E-2,5.491322279E-2,1.600284576E-1
2.158421023E0,2.009245753E-2,4.387485981E-2,1.996173859E-1
2.176326541E0,5.684805661E-2,4.484707117E-2,1.564760208E-1
2.194205874E0,1.664423943E-2,8.547317982E-2,1.556472778E-1
2.212108584E0,1.123043895E-2,1.052611470E-1,1.769456863E-1
2.229999698E0,3.492872417E-2,3.721630573E-2,1.544666290E-1
2.247886538E0,5.128750205E-2,5.176663399E-3,1.250867844E-1
2.265781985E0,-3.364011645E-3,3.966349363E-2,1.230258942E-1
2.283660463E0,7.045567036E-4,8.141517639E-2,1.983528137E-1
2.301563846E0,5.284098536E-2,9.742200375E-3,1.046648026E-1
2.319440188E0,6.425231695E-2,-9.760320187E-3,1.394557953E-1
2.337346194E0,9.395787120E-2,6.721675396E-3,1.430425644E-1
2.355236758E0,6.961075217E-2,1.486486197E-2,1.372690201E-1
2.373128177E0,3.789163381E-2,-2.019196749E-2,1.988515854E-1
2.391018985E0,5.164162815E-2,4.041886330E-2,1.538410187E-1
2.408898867E0,8.912801743E-3,1.168018579E-2,1.149339676E-1
2.426800967E0,9.804998338E-2,3.486162424E-2,7.910823822E-2
2.444689516E0,1.432187259E-1,5.732196569E-2,2.523517609E-2
2.462582950E0,3.518501669E-2,2.540773153E-2,1.174421310E-1
2.480474490E0,1.178510487E-2,5.208241940E-2,3.854084015E-2
2.498365054E0,3.769528866E-2,1.228265166E-1,4.710006714E-2
2.516256534E0,1.561917365E-2,8.920007944E-2,-1.297855377E-2
2.534147403E0,3.614688665E-2,7.185697556E-2,-8.871746063E-2
2.552038211E0,2.969721705E-2,5.844074488E-2,-1.269378662E-1
2.569925723E0,6.542591006E-2,2.848100662E-2,-4.515838623E-2
2.587817324E0,6.311419606E-2,1.205199957E-2,-1.083230972E-1
2.605711307E0,2.843409777E-2,3.656083345E-2,-9.896945953E-2
2.623602481E0,1.727196574E-2,4.481518269E-2,-1.614236832E-1
2.641493533E0,5.150306970E-2,5.313932896E-3,-1.459903717E-1
2.659372745E0,3.535461426E-2,-1.131206751E-2,-1.709032059E-1
2.677275577E0,7.478759438E-2,3.087913990E-2,-8.253288269E-2
2.695166385E0,3.675046563E-2,-3.189903498E-2,-1.263313293E-1
2.713057498E0,4.707857966E-2,-2.923136950E-2,-1.661701202E-1
2.730948916E0,1.055818051E-1,4.556858540E-2,-1.622610092E-1
2.748839907E0,8.416450024E-2,8.532500267E-2,-2.646751404E-1
2.766727847E0,-1.844748855E-3,1.041313410E-1,-4.216289520E-2
2.784621707E0,1.035230756E-1,1.534680128E-1,-3.225421906E-2
2.802512881E0,1.467823982E-2,4.000031948E-2,-2.174606323E-1
2.820391909E0,2.835549414E-3,-1.489818096E-3,-1.647586823E-1
2.838294803E0,7.597245276E-2,9.785282612E-2,-8.698940277E-2
2.856182925E0,6.650891900E-2,9.024578333E-2,-3.132247925E-2
2.874077090E0,1.857874542E-2,4.482966661E-2,-1.287794113E-1
2.891968142E0,8.591969311E-2,3.935104609E-2,-4.000282288E-2
2.909859073E0,1.087128222E-1,6.110209227E-2,3.056144714E-2
2.927750125E0,3.175374120E-2,2.350813150E-2,-6.364822388E-2
2.945629275E0,-2.746000886E-3,9.639739990E-3,6.546974182E-3
2.963532168E0,8.587662876E-2,1.244086027E-2,1.156320572E-1
2.981423526E0,4.721250385E-2,1.712518930E-2,7.800292969E-2
2.999314395E0,7.148750126E-3,-2.080547810E-2,7.846927643E-2
3.017205325E0,2.175442129E-2,1.958191395E-2,3.522109985E-2
3.035096377E0,3.696629405E-2,-1.721507311E-2,9.573650360E-2
3.052987491E0,4.443435371E-2,-2.193635702E-2,8.900356293E-2
3.070878360E0,6.344051659E-2,5.215775967E-2,6.065464020E-2
3.088769412E0,2.760808170E-2,6.751847267E-2,1.741838455E-1
3.106656985E0,-5.344204605E-3,5.806934834E-2,1.165657043E-1
3.124551639E0,1.848196983E-2,1.472967267E-1,8.324909210E-2
3.142442630E0,4.188740253E-2,5.149042606E-2,1.290292740E-1
3.160321902E0,8.241745085E-2,3.644448519E-2,8.132553101E-2
3.178224795E0,-8.237056434E-3,8.149713278E-2,1.487932205E-1
3.196115603E0,1.087166369E-3,8.575171232E-2,1.070003510E-1
3.214006717E0,5.880676210E-3,4.305535555E-2,1.939420700E-1
3.231897707E0,-8.622355759E-3,-3.230434656E-2,1.113729477E-1
3.249789004E0,5.859646574E-2,1.784628630E-2,3.699874878E-2
3.267680057E0,9.099786729E-2,-2.677500248E-2,9.730052948E-2
3.285573977E0,1.134895533E-2,-8.633780479E-2,1.313629150E-1
3.303462100E0,3.777690977E-2,-4.897439480E-2,7.725524902E-2
3.321356081E0,4.511481524E-2,2.343714237E-3,3.044223785E-2
3.339244205E0,1.605781168E-2,-4.923093319E-2,5.718708038E-2
3.357116763E0,4.216257483E-2,-9.847342968E-3,5.119514465E-2
3.375026492E0,7.741417736E-2,5.116307735E-2,2.687358856E-2
3.392917361E0,7.691552490E-2,1.164418459E-2,8.357143402E-2
3.410808536E0,3.897060454E-2,4.373908043E-3,-1.960372925E-2
3.428699405E0,8.128665388E-3,9.391945601E-2,-1.210546494E-1
3.446590396E0,7.125944644E-2,1.247561574E-1,-2.785682678E-2
3.464481875E0,6.805912405E-2,7.644039392E-2,-2.146148682E-2
3.482372684E0,3.269958496E-2,-7.066607475E-3,-1.760730743E-1
3.500252078E0,3.920716792E-2,4.218703508E-2,-1.372070312E-1
3.518154605E0,6.668398529E-2,2.000594139E-2,-3.180694580E-2
3.536045840E0,2.646812052E-2,1.926159859E-2,-8.744239807E-2
3.553936953E0,9.695023298E-2,2.677553892E-2,-1.045169830E-1
3.571827762E0,8.525256068E-2,-2.620786428E-2,-7.252979279E-2
3.589719180E0,1.077373326E-2,-7.083851099E-2,-5.579948425E-2
3.607609744E0,4.240246117E-2,9.954035282E-3,-1.348495483E-2
3.625501223E0,3.062230349E-2,1.094233990E-2,-3.678607941E-2
3.643392215E0,6.303088367E-2,-1.010799408E-2,-8.024597168E-2
3.661286257E0,9.304004908E-2,2.332806587E-3,-2.502346039E-2
3.679174258E0,1.820658147E-2,-1.329874992E-2,-5.039882660E-2
3.697065371E0,1.681133360E-2,4.396432638E-2,4.373264313E-2
3.714956241E0,4.239255935E-2,6.175577641E-2,1.162338257E-2
3.732847293E0,5.929999799E-2,4.967230558E-2,-4.786491394E-2
3.750738467E0,5.537255853E-2,5.850368738E-2,-1.379394531E-2
3.768629764E0,3.067016602E-2,8.236736059E-2,-4.140377045E-2
3.786520694E0,-2.618014067E-2,5.589699745E-2,-4.463005066E-2
3.804411746E0,-7.212415338E-3,6.168371439E-2,1.360607147E-2
3.822298891E0,2.483818680E-2,4.309809208E-2,-9.878158569E-3
3.840182010E0,1.115995049E-1,4.256469011E-2,6.353282928E-2
3.858065921E0,2.888872474E-2,2.384561300E-2,-3.313732147E-2
3.875976016E0,-4.045352340E-2,5.723893642E-3,3.243446350E-3
3.893866824E0,-2.112108469E-2,1.894265413E-2,7.940292358E-2
3.911758182E0,1.575747132E-2,-7.267773151E-3,5.916881561E-2
3.929649356E0,6.569482386E-2,-1.921015978E-2,8.092689514E-2
3.947540225E0,7.897063345E-2,-1.472973824E-2,5.518245697E-2
3.965431094E0,1.653046161E-2,-1.288151741E-2,9.042835236E-2
3.983310428E0,-1.458274573E-2,3.981113434E-3,1.347322464E-1
4.001213504E0,1.277897209E-1,3.644883633E-3,1.040239334E-1
4.019104556E0,1.383029521E-1,3.108280897E-2,9.587001801E-2
4.036998537E0,-6.014969200E-2,5.262964964E-2,5.285358429E-2
4.054886844E0,1.202812046E-2,2.816396952E-2,2.507305145E-2
4.072777591E0,1.531322598E-1,6.191402674E-2,9.675598145E-2
4.090668582E0,7.742755115E-2,1.121609211E-1,-3.236484528E-2
4.108561953E0,4.286236316E-2,6.184285879E-2,-4.446315765E-2
4.126450809E0,-5.788450688E-2,3.555554152E-2,3.964328766E-2
4.144341678E0,1.553261578E-1,1.516869068E-1,6.751251221E-2
4.162236269E0,8.938531578E-2,6.213182211E-2,5.931854248E-3
4.180109743E0,-1.317940652E-1,-7.381331921E-2,-1.703538895E-1
4.198012332E0,2.948440313E-1,5.529630184E-2,1.030044556E-1
4.215906375E0,1.690084934E-1,-1.347035170E-2,-3.179740906E-2
4.233795413E0,-2.120721340E-1,-1.154628992E-1,-1.807575226E-1
4.251688479E0,-1.054989472E-1,2.600574493E-2,-3.527832031E-2
4.269579837E0,2.164235115E-1,3.581410646E-2,1.454257965E-2
4.287470340E0,1.997183561E-1,-2.566969395E-2,-1.769762039E-1
4.305361697E0,-1.036236584E-1,-2.951622009E-3,-6.867599487E-2
4.323255617E0,-1.352663040E-1,1.052009463E-1,5.883598328E-2
4.341143863E0,1.701791435E-1,3.801888227E-2,-4.175758362E-2
4.359034793E0,1.256861091E-1,5.390417576E-2,-1.573495865E-1
4.376914248E0,-1.106408089E-1,1.079097986E-1,1.314296722E-1
4.394805484E0,-4.170539975E-2,8.539038897E-2,-6.797504425E-2
4.412707766E0,1.030547842E-1,1.477378607E-2,-9.477138519E-2
4.430587283E0,6.268331409E-2,1.312704682E-1,7.945060730E-2
4.448492556E0,-1.417688280E-1,8.077567816E-2,7.679653168E-2
4.466381289E0,-7.264603674E-2,-6.536364555E-3,-3.641986847E-2
4.484272403E0,1.648837924E-1,2.471470833E-2,2.693748474E-2
4.502159060E0,7.852098346E-2,5.897176266E-2,1.915102005E-1
4.520032595E0,-1.813279986E-1,-7.664614916E-2,3.553771973E-2
4.537945437E0,-7.728572190E-2,-2.863812447E-2,3.665447235E-2
4.555839602E0,2.183996737E-1,3.561824560E-2,2.002420425E-1
4.573727725E0,6.918929517E-2,-4.823774099E-2,5.350875854E-2
4.591618838E0,-2.312255800E-1,-1.834559441E-2,6.882667542E-2
4.609498172E0,-7.263511419E-3,7.645887136E-2,2.688016891E-1
4.627400943E0,1.807468832E-1,8.986592293E-4,1.536178589E-2
4.645288699E0,-5.181096494E-2,4.453897476E-3,9.732246399E-3
4.663182986E0,-1.567837000E-1,1.192517877E-1,1.793832779E-1
4.681074283E0,4.889217019E-2,6.133800745E-2,9.821224213E-2
4.698965213E0,2.842520177E-2,-6.937903166E-2,-1.020240784E-2
4.716859438E0,-7.853502035E-2,9.145653248E-2,1.742677689E-1
4.734747500E0,-1.472920179E-3,1.188499928E-1,5.706024170E-2
4.752638492E0,1.041920409E-1,-3.613609076E-2,-1.343097687E-1
4.770529483E0,6.085073203E-2,2.670216560E-2,-1.328277588E-2
4.788420596E0,-2.110059559E-2,9.673488140E-2,1.823606491E-1
4.806311953E0,4.542414844E-2,-4.499602318E-2,-2.389764786E-1
4.824202762E0,1.392894089E-1,-4.605132341E-2,-8.738899231E-2
4.842094058E0,1.179106459E-1,7.951432467E-2,1.188554764E-1
4.859987307E0,-1.897029579E-2,-3.558790684E-2,-1.639661789E-1
4.877875551E0,7.264503837E-2,-8.472853899E-2,-2.490110397E-1
4.895769900E0,1.558097452E-1,5.649858713E-2,7.982730865E-2
4.913658389E0,1.064389050E-1,6.380015612E-2,-7.089710236E-2
4.931551272E0,1.193929464E-1,-5.664992332E-2,-2.149600983E-1
4.949440371E0,4.917775095E-2,3.440970182E-2,-8.082580566E-2
4.967331363E0,-2.569112182E-2,1.248710155E-1,-3.082466125E-2
4.985222781E0,5.213107914E-2,3.613096476E-2,-1.914033890E-1
5.003092105E0,1.288423687E-1,4.776924849E-2,-1.344919205E-1
5.021005008E0,2.032235265E-2,1.048201323E-1,-1.999855042E-2
5.038895633E0,-1.389746368E-2,7.618206739E-2,-1.446847916E-1
5.056788149E0,-5.189447105E-2,2.693063021E-2,-1.850385666E-1
5.074678164E0,8.161365986E-5,1.143349409E-1,-4.635810852E-2
5.092568973E0,1.125248522E-1,9.185445309E-2,-8.182716370E-2
5.110460086E0,3.057449311E-2,-4.423511028E-2,-1.717319489E-1
5.128351199E0,-8.952748775E-2,8.358669281E-2,-1.022863388E-1
5.146242312E0,-1.219007522E-1,2.480965853E-2,-5.149841309E-5
5.164133731E0,1.293314993E-1,4.250884056E-3,-8.802700043E-2
5.182024478E0,6.670114398E-2,1.028120518E-2,-4.027557373E-2
5.199917483E0,-8.281710744E-2,2.024388313E-2,2.256050110E-1
5.217806521E0,3.647022694E-2,-2.194833755E-2,3.325271606E-2
5.235700930E0,7.234226167E-2,4.166245461E-3,-5.505561829E-3
5.253585147E0,-4.250022769E-2,1.475602388E-1,1.871328354E-1
5.271480166E0,5.983935297E-2,1.512213945E-1,8.614253998E-2
5.289371280E0,9.524507076E-2,-6.169277430E-2,2.697658539E-2
5.307259219E0,9.280540049E-3,2.120935917E-2,6.041431427E-2
5.325153262E0,-2.845577151E-2,1.593205333E-1,1.939392090E-1
5.343047182E0,1.056281626E-1,4.408031702E-2,5.648899078E-2
5.360935428E0,1.255363673E-1,4.921299219E-2,3.971099854E-3
5.378826297E0,-7.725857198E-2,1.093418598E-1,2.274551392E-1
5.396717654E0,-9.329915047E-4,7.896643877E-2,6.063652039E-2
5.414608767E0,1.533317119E-1,1.766997576E-2,-4.593372345E-2
5.432499759E0,1.378002912E-1,8.800047636E-2,3.496780396E-1
5.450391116E0,1.752179116E-2,8.709180355E-2,1.500368118E-1
5.468283449E0,-8.180544525E-2,-1.443638206E-1,-7.878303528E-2
5.486173221E0,6.305529177E-2,3.238731623E-2,6.365966797E-2
5.504064090E0,1.743819416E-1,1.175031066E-1,1.986808777E-1
5.521955386E0,4.695998132E-2,-1.265084147E-1,6.246566772E-2
5.539846316E0,-3.978057206E-2,-7.482427359E-2,6.591796875E-3
5.557737735E0,8.332119137E-2,6.889367104E-2,1.321706772E-1
5.575630313E0,1.521227360E-1,5.989712477E-2,5.146884918E-2
5.593519656E0,4.980679601E-2,-7.689934969E-2,6.198883057E-5
5.611398928E0,1.211928800E-1,8.290839195E-2,1.703939438E-1
5.629302249E0,1.277203709E-1,1.029363275E-1,2.305126190E-2
5.647189822E0,7.116794586E-4,-1.760441065E-2,-1.142311096E-1
5.665084170E0,5.268200859E-2,1.443327069E-1,8.909606934E-2
5.682975284E0,1.924316436E-1,1.387385726E-1,1.521015167E-2
5.700866275E0,1.094324291E-1,5.160486698E-2,-7.741832733E-2
5.718754336E0,-1.458383948E-1,4.244416952E-2,-1.451272964E-1
5.736646975E0,-3.900285065E-2,7.798200846E-2,-2.767181396E-2
5.754539432E0,2.819888294E-1,1.816646457E-1,-1.403980255E-1
5.772430850E0,5.428396165E-2,-1.971095800E-2,9.903621674E-2
5.790321719E0,-2.090643048E-1,-3.494369984E-2,-1.549272537E-1
5.808198367E0,5.413126945E-2,1.051700115E-2,-4.867458344E-2
5.826104007E0,2.462434173E-1,-2.184021473E-2,-1.216945648E-1
5.843995059E0,6.411582977E-2,9.573608637E-2,3.220462799E-2
5.861886172E0,-6.201332062E-2,-1.655137539E-2,-3.777408600E-2
5.879777225E0,7.991736382E-2,-1.335403919E-1,-8.897113800E-2
5.897668399E0,1.462871432E-1,7.635474205E-2,1.477241516E-3
5.915559512E0,6.559717655E-2,8.994013071E-2,1.963043213E-2
5.933450564E0,-6.581000984E-3,-7.548797131E-2,-1.690244675E-1
5.951341739E0,-1.074808836E-2,4.065752029E-3,-2.681922913E-2
5.969232913E0,2.848191559E-2,1.164873838E-1,4.589462280E-2
5.987123660E0,6.597092003E-2,-2.487999201E-2,-1.764507294E-1
6.005015078E0,6.439719349E-2,1.813542843E-2,-1.376914978E-1
6.022906192E0,-1.949626207E-2,1.710418463E-1,1.089382172E-2
6.040797244E0,2.046458423E-2,8.846467733E-2,2.557182312E-2
6.058688356E0,8.047910035E-2,-4.315483570E-2,-1.364669800E-1
6.076579348E0,2.148143947E-3,3.008657694E-2,5.938529968E-3
6.094470645E0,1.039900035E-1,1.507059336E-1,-9.152412415E-3
6.112350955E0,1.500352025E-1,1.692432165E-2,2.924633026E-2
6.130241641E0,3.430791199E-2,-4.583400488E-2,1.723957062E-2
6.148129214E0,1.044212282E-1,4.592329264E-2,1.644763947E-1
6.166035098E0,2.026118636E-1,-2.158385515E-2,7.277774811E-2
6.183925967E0,8.857141435E-2,-8.768916130E-2,-8.261680603E-3
6.201820070E0,-2.309297025E-2,7.841867208E-2,9.195232391E-2
6.219705264E0,2.694548666E-2,1.208606958E-1,2.085771561E-1
6.237602175E0,1.960370541E-1,-1.150321960E-2,1.130523682E-1
6.255490359E0,7.869186252E-2,6.595134735E-3,9.611797333E-2
6.273381534E0,-3.094282001E-2,6.784564257E-2,3.884220123E-2
6.291272647E0,7.364109159E-2,1.007664204E-2,8.977890015E-3
6.309151736E0,1.902445257E-1,9.614795446E-2,1.532030106E-1
6.327057619E0,7.479582727E-2,1.418372989E-1,2.198934555E-1
6.344945926E0,-2.917411923E-2,1.769185066E-2,1.276950836E-1
6.362837039E0,1.717925817E-2,-5.342721939E-3,7.212162018E-2
6.380728334E0,9.874309599E-2,9.124821424E-2,9.893226624E-2
6.398619266E0,9.178109467E-2,2.896463871E-2,-2.038288116E-2
6.416510440E0,2.093976736E-2,-3.148579597E-2,2.048063278E-1
6.434405703E0,-8.440288901E-2,9.166628122E-2,1.191558838E-1
6.452292911E0,-3.528585285E-2,-4.552888870E-2,8.545684814E-2
6.470172122E0,1.957985610E-1,-8.120197058E-2,1.153917313E-1
6.488074832E0,8.448193222E-2,-9.226888418E-2,9.609985352E-2
6.505965762E0,-1.341203898E-1,-5.416673422E-2,9.290981293E-2
6.523857120E0,-1.993253827E-3,6.838142872E-3,7.516765594E-2
6.541748416E0,1.252706647E-1,-5.561840534E-2,8.194732666E-2
6.559640017E0,1.756793559E-1,-2.471345663E-2,2.365875244E-2
6.577530276E0,-6.343576312E-2,6.591105461E-2,-4.294395447E-2
6.595421573E0,-1.831075102E-1,1.074668765E-1,-8.061122894E-2
6.613312381E0,1.467976123E-1,1.024624109E-1,3.808975220E-3
6.631200747E0,1.983901560E-1,2.237361670E-2,-1.768989563E-1
6.649083499E0,-8.646535873E-2,1.310962439E-2,-1.116352081E-1
6.666988955E0,-1.262044907E-1,7.257503271E-2,-1.128902435E-1
6.684876895E0,1.720055640E-1,1.000285745E-1,-2.493324280E-1
6.702756289E0,3.057531118E-1,6.686627865E-2,-1.585226059E-1
6.720644473E0,8.184377104E-2,-3.756004572E-2,-1.464576721E-1
6.738550418E0,-6.810410321E-2,-3.884911537E-2,-2.241907120E-1
6.756438296E0,5.877141654E-2,3.509688377E-2,-2.905092239E-1
6.774332705E0,1.474090517E-1,6.211012602E-2,-8.141899109E-2
6.792223819E0,1.455214918E-1,1.071514487E-1,3.147602081E-2
6.810098819E0,-1.171772927E-1,-6.922250986E-2,-3.541669846E-1
6.828002871E0,-2.054433674E-1,4.930955172E-2,-2.188081741E-1
6.845897098E0,1.795124114E-1,2.657126784E-1,1.458282471E-1
6.863788150E0,2.286569774E-1,4.208379984E-2,-9.549331665E-2
6.881679324E0,-1.146354675E-1,-1.207566261E-2,-1.512260437E-1
6.899570498E0,-1.916226745E-1,-3.150761127E-3,-2.155761719E-1
6.917461673E0,3.137373924E-1,-1.467428207E-1,-2.916898727E-1
6.935352786E0,2.864891887E-1,5.374312401E-3,1.003541946E-1
6.953243899E0,-4.401724339E-1,3.772146106E-1,2.171506882E-1
6.971135135E0,-5.105638504E-1,2.233853936E-1,1.967639923E-1
6.989016970E0,2.122564614E-1,-5.417573452E-2,-4.150867462E-2
7.006920107E0,4.439049363E-1,-5.502408743E-2,1.688461304E-1
7.024808291E0,-2.768732905E-1,-5.133038759E-2,-5.640125275E-2
7.042699466E0,-4.696934223E-1,-4.395163059E-2,2.104282379E-2
7.060594546E0,2.268806696E-1,2.031697631E-1,4.424152374E-1
7.078481631E0,3.900618553E-1,4.292756319E-2,2.248497009E-1
7.096372745E0,-2.567015886E-1,-1.584524512E-1,-8.858013153E-2
7.114263858E0,-4.166660309E-1,2.238321304E-2,1.902713776E-1
7.132138736E0,2.179391086E-1,-1.400449872E-1,2.274551392E-1
7.150044375E0,3.778937161E-1,4.488229752E-3,2.116374969E-1
7.167934146E0,-2.667488158E-1,2.156224847E-1,3.571538925E-1
7.185828311E0,-3.920786381E-1,8.432614803E-2,2.056360245E-1
7.203719668E0,3.872172832E-1,-1.782362461E-1,8.923912048E-2
7.221610232E0,4.457840919E-1,5.556702614E-2,2.647857666E-1
7.239498965E0,-3.657909632E-1,2.525676489E-1,3.042669296E-1
7.257393557E0,-3.711866438E-1,7.591843605E-2,-1.969909668E-2
7.275283877E0,3.705299497E-1,1.044592857E-1,4.153728485E-2
7.293174930E0,3.493462801E-1,2.628946304E-2,1.045131683E-1
7.311069033E0,-3.415138721E-1,-6.908959150E-2,-1.757469177E-1
7.328946170E0,-3.410731852E-1,1.451171637E-1,-7.548809052E-2
7.346847842E0,2.708873749E-1,1.496770382E-1,1.032829285E-1
7.364739505E0,3.006870747E-1,6.923568249E-2,-4.775047302E-2
7.382628115E0,-3.212563992E-1,6.550031900E-2,-9.019184113E-2
7.400521791E0,-2.877064049E-1,2.797746658E-2,-1.413469315E-1
7.418412967E0,4.546530843E-1,-8.690172434E-2,-2.226047516E-1
7.436303897E0,4.355857968E-1,-1.355502605E-1,-9.091091156E-2
7.454195315E0,-2.346212566E-1,6.244158745E-2,1.027679443E-2
7.472088076E0,-2.784498632E-1,1.908380985E-1,-7.704448700E-2
7.489977481E0,2.167109996E-1,2.079552412E-2,-1.031217575E-1
7.507865420E0,3.109793961E-1,4.391717911E-2,-8.759593964E-2
7.525759707E0,-1.955549121E-1,-4.684144258E-2,-1.490612030E-1
7.543650577E0,-2.236906588E-1,-6.988453865E-2,-3.085355759E-1
7.561543643E0,2.547925413E-1,1.593202353E-1,-2.705574036E-3
7.579432803E0,2.422396690E-1,1.502262354E-1,-1.308488846E-1
7.597321292E0,-1.574511528E-1,-1.495575905E-2,-2.057657242E-1
7.615203555E0,-1.240074933E-1,2.247422934E-2,-9.921455383E-2
7.633095522E0,2.682612240E-1,8.016997576E-2,-1.124668121E-2
7.650988162E0,1.576668918E-1,7.704883814E-2,-1.730728149E-1
7.668880068E0,-1.878820956E-1,3.209507465E-2,-1.511993408E-1
7.686776186E0,-5.034159124E-2,3.499329090E-2,-5.205535889E-2
7.704671084E0,2.823037803E-1,-3.003954887E-3,-6.410503387E-2
7.722561892E0,1.370302439E-1,5.888593197E-2,-5.208015442E-2
7.740453189E0,-1.913918257E-1,1.732475162E-1,9.856510162E-2
7.758344119E0,3.595620394E-3,-2.197033167E-2,-5.502796173E-2
7.776235537E0,3.127422333E-1,-1.265859008E-1,-1.202478409E-1
7.794123294E0,1.626688242E-1,3.314101696E-2,1.504049301E-1
7.812020693E0,-7.379481196E-2,8.278280497E-2,3.147697449E-2
7.829908815E0,7.789638638E-2,-4.921168089E-2,6.763839722E-2
7.847802615E0,3.488307893E-1,3.074651957E-2,3.319931030E-2
7.865690799E0,1.456510425E-1,-3.112143278E-2,9.617805481E-3
7.883572818E0,3.068158031E-2,-1.249146461E-2,5.299568176E-3
7.901473514E0,2.224218845E-1,6.017559767E-2,1.372327805E-1
7.919364444E0,2.789510787E-1,1.908887029E-1,1.913919449E-1
7.937255557E0,1.038900092E-1,6.341719627E-2,8.955287933E-2
7.955146670E0,-7.726497948E-2,-4.021698236E-2,-1.178741455E-2
7.973037784E0,1.321608722E-1,3.291332722E-2,8.468914032E-2
7.990928897E0,3.022572398E-1,9.571141005E-2,1.635875702E-1
8.008819888E0,2.753663063E-2,2.159553766E-2,-2.216339111E-3
8.026709353E0,-8.292319626E-2,4.585677385E-2,1.735639572E-1
8.044602176E0,2.000908405E-1,3.893625736E-2,1.055860519E-1
8.062493350E0,2.283079922E-1,-5.640274286E-2,3.258132935E-2
8.080383731E0,5.047551915E-2,3.035789728E-2,8.274269104E-2
8.098275760E0,6.627842784E-3,9.914934635E-2,1.723995209E-1
8.116166995E0,1.490622312E-1,-1.280061603E-1,-4.943466187E-2
8.134058047E0,3.133849502E-1,-2.609282732E-2,5.993080139E-2
8.151949161E0,1.480194330E-1,5.450487137E-2,1.305418015E-1
8.169837222E0,-4.961505532E-3,7.531106472E-3,4.375553131E-2
8.187731387E0,1.208525896E-1,4.348063469E-2,-8.168792725E-2
8.205622561E0,1.845655441E-1,-3.394109011E-2,-4.949951172E-2
8.223516604E0,1.087793708E-1,2.780014277E-2,7.667541504E-4
8.241404910E0,-5.098108202E-2,-3.500223160E-3,-9.103679657E-2
8.259295778E0,-1.373676956E-2,8.924776316E-2,2.630043030E-2
8.277187259E0,1.986508220E-1,6.791782379E-2,3.688621521E-2
8.295060184E0,6.136502326E-2,-1.761257648E-2,-1.643218994E-1
8.312969363E0,-1.091887429E-1,2.969431877E-2,-1.238346100E-2
8.330860354E0,1.895706356E-2,1.400693059E-1,-5.368232727E-2
8.348751651E0,1.059783995E-1,1.877248287E-3,-5.068874359E-2
8.366639346E0,1.077077463E-1,1.313138604E-1,2.273082733E-2
8.384533877E0,3.632143140E-3,4.940748215E-3,6.949424744E-3
8.402424869E0,6.550647318E-2,-4.899817705E-2,-7.849121094E-2
8.420304019E0,5.603104830E-2,4.560333490E-2,-1.555728912E-2
8.438207217E0,-6.513448805E-2,1.411914825E-2,7.332134247E-2
8.456098636E0,1.617974341E-1,3.077226877E-2,-9.101772308E-2
8.473989383E0,2.011414170E-1,-7.396960258E-2,-5.884456635E-2
8.491880618E0,-9.606696665E-2,-1.144576073E-1,-1.152439117E-1
8.509771914E0,5.193300545E-3,1.765917540E-1,1.764335632E-1
8.527663028E0,1.462354958E-1,1.371355057E-1,3.534317017E-2
8.545554080E0,2.845377475E-2,-8.949452639E-2,-7.113361359E-2
8.563445254E0,-5.249744654E-2,2.779425383E-1,1.934318542E-1
8.581336612E0,-2.154318988E-2,1.297678947E-1,1.593961716E-1
8.599227481E0,-1.123388410E-1,-2.244901657E-2,-1.916551590E-1
8.617121279E0,-1.806631684E-3,1.172112226E-1,2.667493820E-1
8.635009952E0,2.492329478E-1,1.575179100E-1,1.883068085E-1
8.652899356E0,4.945687950E-2,-6.034511328E-2,-1.396913528E-1
8.670791934E0,-3.214674592E-1,4.807364941E-2,1.897335052E-2
8.688686159E0,1.949860156E-2,1.029735208E-1,3.193588257E-1
8.706574344E0,4.902942777E-1,-4.264527559E-2,-1.326942444E-2
8.724465518E0,-2.648836374E-2,-1.328366399E-1,-1.125040054E-1
8.742352908E0,-5.002845526E-1,1.332810521E-1,2.448492050E-1
8.760235354E0,1.875398159E-1,9.377521276E-2,5.144119263E-3
8.778135867E0,4.423201084E-1,-1.906753778E-1,-2.996692657E-1
8.796029971E0,-2.175079584E-1,4.882156849E-2,7.089805603E-2
8.813921267E0,-2.471549362E-1,2.191850543E-1,1.801729202E-1
8.831814761E0,2.164298892E-1,-1.544669271E-1,-3.844242096E-1
8.849703616E0,1.827446222E-1,4.250591993E-2,-1.483268738E-1
8.867594362E0,-1.717271507E-1,2.468733191E-1,2.741775513E-1
8.885485782E0,-4.701906443E-2,-5.740129948E-2,-2.052497864E-1
8.903376895E0,2.310697734E-1,-2.039158344E-2,-3.115119934E-1
8.921267947E0,-4.628311098E-2,1.679239273E-1,9.936809540E-2
8.939159121E0,-1.761802435E-1,6.445032358E-2,-4.204559326E-2
8.957050296E0,1.590882093E-1,-9.339606762E-2,-1.804971695E-1
8.974941287E0,1.636705697E-1,5.986440182E-2,-1.615142822E-2
8.992832644E0,-1.085779220E-1,4.308557510E-2,-1.913070679E-2
9.010723636E0,-1.355195045E-2,-9.466409683E-3,-7.801723480E-2
9.028614871E0,2.288080156E-1,6.372630596E-3,2.059936523E-3
9.046506289E0,1.278973818E-1,1.560913324E-1,1.810293198E-1
9.064397159E0,-1.238502562E-1,-5.080074072E-2,-1.022014618E-1
9.082276553E0,-3.439883888E-2,-9.747827053E-2,-2.135200500E-1
9.100167605E0,2.042391896E-1,1.205651760E-1,7.527065277E-2
9.118067507E0,1.463699341E-2,2.998131514E-2,-5.268287659E-2
9.135961795E0,-1.703228503E-1,2.801930904E-2,4.052639008E-2
9.153852786E0,8.378034830E-2,9.694677591E-2,1.087322235E-1
9.171747072E0,2.090455890E-1,3.859144449E-2,4.532432556E-2
9.189635501E0,1.810476184E-3,-1.476043463E-2,-5.442810059E-2
9.207526309E0,-6.430105865E-2,9.671556950E-2,2.597017288E-1
9.225412967E0,1.621366441E-1,2.455452085E-1,8.438014984E-2
9.243299441E0,1.797149777E-1,-7.915437222E-3,3.412818909E-2
9.261199832E0,-1.135987937E-1,7.121324539E-3,-4.735279083E-2
9.279087832E0,-3.457057476E-2,1.804001927E-1,1.914396286E-1
9.296982181E0,2.554213703E-1,9.016036987E-3,-5.463790894E-2
9.314873172E0,8.447439969E-2,-3.736609221E-2,-3.965950012E-2
9.332764834E0,-6.885579228E-2,1.279227138E-1,2.790346146E-1
9.350655520E0,2.083110809E-1,4.165416956E-2,-2.331638336E-2
9.368546512E0,1.599403471E-1,-1.394942403E-1,-2.435770035E-1
9.386437930E0,-4.636651278E-2,1.562843323E-1,2.900276184E-1
9.404328799E0,1.131795198E-1,1.753126383E-1,2.095127106E-1
9.422216739E0,1.781957000E-1,-1.454848051E-1,-2.818374634E-1
9.440094301E0,6.260315329E-2,5.886870623E-2,4.676342010E-2
9.457999697E0,7.103618234E-2,2.215702534E-1,3.042335510E-1
9.475893496E0,1.640310287E-1,-8.450669050E-2,-1.960210800E-1
9.493784915E0,1.184390262E-1,4.538553953E-2,-9.724235535E-2
9.511675906E0,-2.747286856E-2,1.857360601E-1,1.675815582E-1
9.529567080E0,1.184352934E-1,-3.771668673E-2,-1.272497177E-1
9.547457889E0,1.846348643E-1,-1.141502261E-1,-3.181743622E-1
9.565353030E0,-8.007115871E-2,1.700767279E-1,9.698581696E-2
9.583240359E0,-1.962236315E-2,9.951430559E-2,-8.874893188E-2
9.601128665E0,1.772299260E-1,-1.263590455E-1,-3.131780624E-1
9.619022586E0,5.059634149E-2,3.673040867E-2,-1.304149628E-2
9.636913821E0,-8.285886794E-2,9.081894159E-2,8.970832825E-2
9.654807985E0,4.942439497E-2,-8.918863535E-2,-2.387151718E-1
9.672696170E0,1.830161214E-1,-1.368045807E-3,-9.857273102E-2
9.690587405E0,-6.603710353E-3,6.222850084E-2,7.235527039E-2
9.708478396E0,-9.618400037E-2,-6.297653913E-2,-1.690664291E-1
9.726369449E0,1.582092345E-1,-6.848233938E-2,-1.330347061E-1
9.744260867E0,1.968635619E-1,1.268514395E-1,1.566829681E-1
9.762159060E0,-7.755769789E-2,-1.307302713E-2,-5.331897736E-2
9.780042056E0,-1.745364070E-2,-1.289459467E-1,-1.220607758E-1
9.797919497E0,2.708199620E-1,6.201690435E-2,1.145172119E-1
9.815828249E0,1.287511438E-1,1.593232155E-3,-1.255989075E-2
9.833716434E0,-6.825208664E-2,-3.718501329E-2,-9.541225433E-2
9.851595157E0,1.067808121E-1,2.909576893E-2,1.085891724E-1
9.869498965E0,2.038412392E-1,-1.975780725E-2,1.580524445E-2
9.887390017E0,7.733149827E-2,-1.277860403E-1,-7.020664215E-2
9.905280948E0,-1.342325658E-2,5.845111609E-2,1.307344437E-1
9.923172305E0,1.298103333E-1,1.048034430E-2,1.580114365E-1
9.941063662E0,1.744999439E-1,-1.062408686E-1,3.855419159E-2
9.958951480E0,3.737312555E-2,-2.902346849E-2,2.096529007E-1
9.976844302E0,4.087798297E-3,-1.883882284E-2,2.413845062E-2
9.994737002E0,1.019276083E-1,-1.720033288E-1,-4.108238220E-2
1.001262812E1,1.564557254E-1,-7.282501459E-2,2.057466507E-1
1.003051929E1,1.287873536E-1,4.364418983E-2,3.425559998E-1
1.004841028E1,4.833572358E-2,-1.688417196E-1,-3.482818604E-2
1.006630176E1,3.682923317E-2,-1.550108790E-1,8.382511139E-2
1.008419251E1,1.352154315E-1,2.415239811E-2,2.322072983E-1
1.010207190E1,1.391581297E-1,-1.026257277E-1,3.585624695E-2
1.011997925E1,7.422563434E-2,-1.349435449E-1,7.638931274E-4
1.013785352E1,1.331941038E-2,1.123344898E-2,2.659187317E-1
1.015576026E1,1.109102815E-1,-7.536101341E-2,1.251287460E-1
1.017364862E1,1.630261242E-1,-1.420683861E-1,-2.039823532E-1
1.019154041E1,-9.297676384E-3,2.803677320E-2,5.914115906E-2
1.020943091E1,-2.599824965E-2,6.341791153E-2,2.206554413E-1
1.022732190E1,1.496844590E-1,-1.188021898E-1,-2.024326324E-1
1.024521302E1,2.596919239E-2,-1.829825640E-1,-1.762943268E-1
1.026310413E1,1.288137585E-2,4.162591696E-2,1.467342377E-1
1.028098352E1,1.793281138E-1,-1.528680921E-1,-1.156778336E-1
1.029887195E1,7.211539149E-2,-1.805729270E-1,-1.957187653E-1
1.031677668E1,-9.211602807E-2,3.112894297E-2,1.789169312E-1
1.033466889E1,5.763182789E-2,-1.185923815E-2,6.776809692E-3
1.035255994E1,2.881947458E-1,-2.301930189E-1,-1.597261429E-1
1.037045105E1,4.294671118E-2,-2.333146334E-2,-1.484394073E-2
1.038834235E1,-2.146813571E-1,-2.111989260E-2,1.233720779E-1
1.040623358E1,2.229416966E-1,-8.522099257E-2,4.621887207E-2
1.042412470E1,3.326050639E-1,-7.331705093E-2,-1.060943604E-1
1.044201599E1,-1.936551034E-1,-1.082261205E-1,3.911495209E-2
1.045989063E1,-6.952932477E-2,-6.823009253E-2,9.779071808E-2
1.047778705E1,2.987596393E-1,-1.988932490E-1,-1.129608154E-1
1.049569245E1,1.695379168E-1,-1.136844754E-1,-3.591346741E-2
1.051358051E1,-4.597527534E-2,-8.818447590E-3,1.943664551E-1
1.053147162E1,5.180999637E-2,-2.631319761E-1,-8.073520660E-2
1.054936304E1,1.494157165E-1,-2.149012089E-1,-2.474851608E-1
1.056725403E1,2.871409059E-3,-1.224876642E-1,1.915550232E-1
1.058514545E1,1.461871117E-1,-1.248476505E-1,3.676414490E-2
1.060303608E1,1.219435409E-1,-3.895077407E-1,-2.104196548E-1
1.062092737E1,-1.660998166E-1,-2.334758043E-1,-2.286148071E-2
1.063880689E1,4.789450020E-2,-6.217569113E-2,2.959260941E-1
1.065670966E1,2.611807883E-1,-3.376854658E-1,-2.020025253E-1
1.067460102E1,-3.318126500E-2,-3.464915156E-1,-6.229782104E-2
1.069249213E1,-1.093417853E-1,-8.609670401E-2,3.299198151E-1
1.071038330E1,1.681340039E-1,-2.497350574E-1,-1.013193130E-1
1.072827533E1,1.348553598E-1,-4.045807421E-1,-2.558517456E-1
1.074616565E1,-1.300333440E-1,-7.301485538E-2,2.295122147E-1
1.076405671E1,1.079644263E-2,-7.976651192E-2,1.311521530E-1
1.078193616E1,1.874566376E-1,-4.789363444E-1,-2.963485718E-1
1.079983924E1,-1.734431833E-2,-2.711938620E-1,-6.294250488E-5
1.081773291E1,-2.110356092E-2,-1.053760648E-1,3.026018143E-1
1.083560993E1,1.809126735E-1,-3.793995976E-1,-3.694629669E-1
1.085350183E1,8.077333868E-2,-3.622680902E-1,-2.349605560E-1
1.087139179E1,-2.337276936E-3,-3.093308210E-2,2.755270004E-1
1.088928894E1,2.122295052E-1,-2.875943780E-1,-1.554069519E-1
1.090718592E1,1.557745337E-1,-4.816987813E-1,-4.181270599E-1
1.092507697E1,9.691026807E-2,-4.256814718E-2,2.690668106E-1
1.094296814E1,1.413710713E-1,-2.616825700E-1,-1.401233673E-2
1.096085944E1,5.702004582E-2,-5.394836664E-1,-4.506874084E-1
1.097875043E1,2.491793036E-2,-1.772081256E-1,1.710653305E-1
1.099664179E1,2.061005235E-1,-2.204800248E-1,1.423969269E-1
1.101453278E1,2.690411210E-1,-5.781750083E-1,-3.308448792E-1
1.103242401E1,5.030979216E-2,-4.027992487E-1,-6.359100342E-3
1.105031519E1,5.896084383E-2,-1.251148582E-1,2.850246429E-1
1.106820642E1,2.381733060E-1,-4.655927718E-1,-1.606054306E-1
1.108609754E1,5.941368639E-2,-4.622000456E-1,-2.616357803E-1
1.110398871E1,-5.270223320E-2,-1.660639048E-1,3.183612823E-1
1.112188001E1,2.297911346E-1,-3.789211512E-1,2.519416809E-2
1.113977112E1,1.172537655E-1,-6.176224947E-1,-3.426399231E-1
1.115766205E1,-9.492284805E-2,-2.193849087E-1,2.477073669E-1
1.117555341E1,1.531023979E-1,-2.270547748E-1,7.508659363E-2
1.119344452E1,2.476451397E-1,-5.759926438E-1,-2.952079773E-1
1.121133869E1,-4.339372367E-2,-3.665584326E-1,4.359149933E-2
1.122922699E1,-2.748812735E-2,-2.361595631E-1,2.515840530E-1
1.124711505E1,2.776325941E-1,-5.302240849E-1,-2.523565292E-1
1.126500916E1,1.485953629E-1,-4.878047407E-1,-4.315090179E-2
1.128290052E1,-1.467200071E-1,-2.264165878E-1,4.170284271E-1
1.130079456E1,9.018083662E-2,-3.269843459E-1,1.173782349E-1
1.131868256E1,2.496961504E-1,-6.289680004E-1,-1.110458374E-1
1.133657392E1,-1.990309358E-2,-3.392769992E-1,2.843227386E-1
1.135446625E1,-1.749534160E-2,-3.593082428E-1,2.353992462E-1
1.137235614E1,2.492330372E-1,-5.083242059E-1,-2.433872223E-2
1.139023554E1,9.054928273E-2,-3.639483452E-1,2.889518738E-1
1.140813855E1,-9.561401606E-2,-2.559922338E-1,2.404394150E-1
1.142602967E1,1.032066271E-1,-6.380986571E-1,-9.810924530E-2
1.144392090E1,1.596811563E-1,-5.083088875E-1,2.417182922E-2
1.146181214E1,-1.500280201E-2,-1.325333714E-1,4.286918640E-1
1.147970307E1,-5.927018821E-3,-4.110800028E-1,-3.910064697E-2
1.149759448E1,7.233323902E-2,-4.426872134E-1,5.184173584E-3
1.151548572E1,9.633810818E-2,-2.348757982E-1,1.980075836E-1
1.153337665E1,1.702293903E-1,-3.804547787E-1,-1.114692688E-1
1.155126422E1,8.658389747E-2,-5.606802702E-1,-2.215070724E-1
1.156915918E1,-5.355971307E-2,-1.315495968E-1,1.093950272E-1
1.158705322E1,9.327907860E-2,-1.704046726E-1,1.212568283E-1
1.160494440E1,1.946555078E-1,-5.524649024E-1,-2.848072052E-1
1.162282947E1,-4.932041466E-2,-5.381059647E-1,-1.489439011E-1
1.164072699E1,-8.242173493E-2,-1.503103375E-1,1.139774323E-1
1.165861493E1,2.578457594E-1,-4.053442478E-1,-1.896734238E-1
1.167650604E1,2.537934184E-1,-3.830310106E-1,-2.703514099E-1
1.169439722E1,-9.354650974E-2,-2.685144544E-1,5.461883545E-2
1.171228858E1,-3.028174490E-2,-3.769231141E-1,-1.399784088E-1
1.173016785E1,1.973307431E-1,-5.537823439E-1,-2.938852310E-1
1.174807062E1,1.332107782E-1,-2.529648840E-1,-1.582527161E-2
1.176596186E1,-3.184507042E-2,-1.857248545E-1,6.780624390E-2
1.178385327E1,8.936822414E-2,-4.825633466E-1,-2.285976410E-1
1.180174720E1,1.723353863E-1,-3.807964027E-1,-6.140995026E-2
1.181963794E1,1.273760796E-1,-2.550472617E-1,1.935987473E-1
1.183752686E1,1.365943104E-1,-3.434498906E-1,-1.678085327E-1
1.185541785E1,3.382815793E-2,-3.522515297E-1,2.065086365E-2
1.187330896E1,5.119105056E-2,-2.744105458E-1,3.257513046E-1
1.189120008E1,2.404280901E-1,-3.816093802E-1,6.075668335E-2
1.190907953E1,4.775450751E-2,-5.363023281E-1,-1.661710739E-1
1.192698529E1,5.445896089E-2,-2.216651440E-1,3.232202530E-1
1.194487366E1,3.567226529E-1,-2.941431999E-1,4.457101822E-1
1.196276477E1,3.056671470E-2,-5.961475372E-1,-3.079872131E-1
1.198065613E1,-1.286270916E-1,-2.353237569E-1,2.803869247E-1
1.199854730E1,4.536569118E-1,-2.152686119E-1,2.278509140E-1
1.201643842E1,3.683220446E-1,-7.017232180E-1,-2.836847305E-1
1.203432947E1,-3.150248826E-1,-3.017590046E-1,-1.221761703E-1
1.205222370E1,9.394815564E-2,3.745537996E-2,3.482179642E-1
1.207009351E1,6.223292351E-1,-6.104856133E-1,-2.706394196E-1
1.208800202E1,2.072937191E-1,-5.411382318E-1,-1.420240402E-1
1.210589423E1,-1.165622249E-1,4.865205288E-2,1.848907471E-1
1.212378552E1,8.285650611E-2,-5.164070129E-1,-3.620090485E-1
1.214167993E1,3.896970153E-1,-4.112268686E-1,-2.076673508E-1
1.215956781E1,1.818943024E-1,2.043288946E-2,5.096731186E-1
1.217745880E1,-2.115074545E-2,-3.983049989E-1,-4.975337982E-1
1.219535004E1,2.587361336E-1,-6.254603863E-1,-6.207971573E-1
1.221324134E1,3.951398730E-1,-2.699821591E-1,2.414159775E-1
1.223113251E1,1.421841681E-1,-3.710396588E-1,3.234701157E-1
1.224901142E1,-1.454316080E-3,-5.922507644E-1,1.523876190E-2
1.226691816E1,1.533973515E-1,-4.471153021E-1,-6.971836090E-2
1.228480609E1,3.134546876E-1,-4.438769221E-1,3.572177887E-2
1.230270014E1,5.913861841E-2,-7.796065211E-1,5.939102173E-2
1.232058826E1,-9.132174402E-2,-4.754249454E-1,3.564662933E-1
1.233847968E1,1.532168686E-1,-2.106935978E-1,2.844181061E-1
1.235637079E1,1.384331584E-1,-3.961690664E-1,-6.591510773E-2
1.237426191E1,-9.795318544E-2,-7.388471961E-1,1.018600464E-1
1.239215302E1,1.168331504E-1,-3.188347816E-1,1.626443863E-1
1.241004413E1,9.090917557E-2,-3.801146150E-1,1.603193283E-1
1.242793250E1,-2.108579576E-1,-5.170851946E-1,-8.999824524E-2
1.244582660E1,3.528029099E-2,-3.253290057E-1,2.897462845E-1
1.246371772E1,6.675864756E-2,-4.603322744E-1,-9.385299683E-2
1.248160810E1,-1.407950521E-1,-6.561574340E-1,-9.480285645E-2
1.249950019E1,2.846687287E-2,-3.666942716E-1,3.417873383E-2
1.251739154E1,4.158301279E-2,-5.153921843E-1,1.720886230E-1
1.253528339E1,-4.517098516E-2,-6.481686234E-1,-1.929397583E-1
1.255317371E1,-8.451453596E-2,-5.569473505E-1,4.016017914E-2
1.257106220E1,5.257527903E-2,-4.825872779E-1,1.235294342E-2
1.258894568E1,-4.328597337E-2,-6.519975662E-1,-1.055784225E-1
1.260684656E1,-1.612265408E-1,-4.611415863E-1,-8.196544647E-2
1.262473871E1,-4.122127593E-2,-3.943085074E-1,1.632261276E-1
1.264262982E1,7.561010122E-2,-6.612852216E-1,-2.123003006E-1
1.266052069E1,-1.762536168E-2,-6.264991760E-1,-1.047582626E-1
1.267841205E1,-1.502574086E-1,-4.154298306E-1,-6.747627258E-2
1.269630323E1,-6.796602905E-2,-5.027166605E-1,-2.063341141E-1
1.271419452E1,2.918994054E-2,-3.921636641E-1,-4.543685913E-2
1.273208570E1,-9.439255297E-2,-3.314750791E-1,1.134662628E-1
1.274997699E1,-1.198231131E-1,-4.509467781E-1,1.199054718E-2
1.276786530E1,-1.594549268E-1,-5.536410213E-1,-2.268648148E-1
1.278575922E1,-3.730024397E-2,-5.409963131E-1,-1.213235855E-1
1.280365058E1,9.008938819E-2,-4.766570628E-1,-1.969528198E-2
1.282154163E1,-1.516931057E-1,-7.012376785E-1,-2.297248840E-1
1.283943274E1,-1.784274429E-1,-6.768885255E-1,-1.131401062E-1
1.285732398E1,9.261719137E-2,-5.535525680E-1,-3.340053558E-2
1.287521503E1,-5.649542063E-2,-6.272406578E-1,-5.480098724E-2
1.289310669E1,-1.730749309E-1,-6.441169977E-1,-6.488895416E-2
1.291099671E1,7.108443975E-2,-6.559206843E-1,2.479743958E-2
1.292888562E1,1.974587888E-2,-5.645470023E-1,-1.078662872E-1
1.294677649E1,-2.785804868E-1,-6.800956130E-1,1.205978394E-1
1.296467096E1,1.852717251E-2,-5.122692585E-1,1.523427963E-1
1.298254785E1,2.373045683E-1,-5.871323943E-1,-1.171245575E-1
1.300045374E1,-2.238265574E-1,-6.090413332E-1,-2.775955200E-2
1.301834467E1,-1.583931744E-1,-5.533820391E-1,5.082702637E-2
1.303623578E1,3.010305762E-1,-6.798455715E-1,-8.602905273E-2
1.305412714E1,5.503677204E-2,-6.545133591E-1,-9.794330597E-2
1.307200678E1,-1.554932296E-1,-5.014982224E-1,7.586574554E-2
1.308990967E1,-2.114654332E-2,-5.814319253E-1,-7.522678375E-2
1.310780066E1,-1.340588555E-2,-6.385550499E-1,3.799057007E-2
1.312569184E1,1.037971675E-1,-5.670321584E-1,2.109966278E-1
1.314358313E1,2.139047086E-1,-5.788906813E-1,3.267478943E-2
1.316147449E1,-1.344888508E-1,-7.451770306E-1,-1.020612717E-1
1.317936536E1,-8.986062557E-2,-6.975460052E-1,3.083467484E-1
1.319725660E1,2.808894515E-1,-6.102302670E-1,7.269859314E-2
1.321514789E1,4.858065397E-3,-6.797556281E-1,-2.390861511E-3
1.323303900E1,-2.777051032E-1,-6.283116341E-1,1.917762756E-1
1.325093042E1,1.123330593E-1,-5.792286992E-1,2.547521591E-1
1.326882148E1,1.923557371E-1,-7.588753700E-1,1.927299500E-1
1.328671088E1,-1.666626930E-1,-7.358168960E-1,7.444381714E-3
1.330460395E1,-1.934710443E-1,-6.204749346E-1,2.925777435E-2
1.332249677E1,1.111887321E-1,-6.483812332E-1,-1.107931137E-1
1.334038636E1,-1.161545515E-1,-6.840555668E-1,1.287918091E-1
1.335827753E1,-3.435562849E-1,-5.562247634E-1,1.175880432E-2
1.337616895E1,-2.019633353E-1,-5.728039145E-1,-1.482801437E-1
1.339405969E1,-1.302144974E-1,-5.196359754E-1,-1.337556839E-1
1.341195118E1,-1.285628080E-1,-4.870514274E-1,3.315038681E-1
1.342984253E1,2.025352046E-2,-6.306368113E-1,1.114645004E-1
1.344773358E1,-1.620156020E-1,-5.992821455E-1,-1.637973785E-1
1.346562476E1,-2.285792381E-1,-5.183012486E-1,2.217578888E-2
1.348350403E1,8.914785087E-2,-6.154541373E-1,8.538818359E-2
1.350140711E1,-1.344710141E-1,-8.072701097E-1,-1.964721680E-1
1.351929828E1,-2.720237076E-1,-6.256389022E-1,1.009435654E-1
1.353718940E1,7.761516422E-2,-4.980709553E-1,1.318712234E-1
1.355508075E1,-1.838126779E-2,-7.711463571E-1,-1.364479065E-1
1.357295984E1,-1.675480902E-1,-6.970783472E-1,6.367778778E-2
1.359086322E1,1.432677656E-1,-4.124553502E-1,3.850898743E-1
1.360875238E1,-8.089441806E-3,-7.314953804E-1,4.134464264E-2
1.362664191E1,-2.771369219E-1,-5.177963972E-1,4.171371460E-2
1.364453681E1,-4.308722913E-2,-5.180549622E-1,1.022281647E-1
1.366242816E1,1.891661286E-1,-6.007047892E-1,1.366796494E-1
1.368030799E1,-1.288096979E-2,-5.038909912E-1,2.720546722E-1
1.369821344E1,-1.745557636E-1,-3.881267309E-1,-6.875991821E-2
1.371610150E1,-3.792107478E-2,-4.102790952E-1,-4.953479767E-2
1.373398981E1,1.995946318E-1,-6.275200248E-1,2.393865585E-1
1.375188422E1,1.536394656E-2,-5.005061030E-1,-5.227851868E-2
1.376977558E1,-2.044238746E-1,-5.839074850E-1,-2.483863831E-1
1.378765192E1,-6.043780223E-2,-5.328496695E-1,6.628894806E-2
1.380555786E1,2.120084763E-1,-6.018471122E-1,-3.533744812E-2
1.382345356E1,3.580329567E-2,-6.662495732E-1,-4.036512375E-1
1.384134021E1,-2.107295543E-1,-4.025661349E-1,-2.977275848E-1
1.385923066E1,-1.253131628E-1,-7.874931097E-1,4.877758026E-2
1.387712250E1,2.347503155E-1,-7.637481689E-1,2.891540527E-1
1.389501691E1,-1.674163342E-1,-4.548110962E-1,-1.960554123E-1
1.391290522E1,-3.058355153E-1,-4.893742502E-1,-3.972711563E-1
1.393079639E1,4.310178384E-2,-5.256197453E-1,-3.698606491E-1
1.394868769E1,1.592056267E-2,-6.510348916E-1,4.063959122E-1
1.396656238E1,-2.534652054E-1,-4.868257046E-1,-2.643013000E-2
1.398446991E1,-2.086271942E-1,-3.687536418E-1,-6.141090393E-1
1.400236127E1,-3.846136481E-2,-6.106513739E-1,-2.181215286E-1
1.402024085E1,2.574869804E-2,-5.156378150E-1,2.075538635E-1
1.403814423E1,-4.692272544E-1,-6.286115646E-1,-1.750259399E-1
1.405602332E1,-1.061185524E-1,-3.392179310E-1,1.983509064E-1
1.407391468E1,1.739405394E-1,-2.886983752E-1,1.184492111E-1
1.409180323E1,-2.440061271E-1,-7.317160368E-1,-2.552242279E-1
1.410971155E1,-2.161420137E-1,-5.280570984E-1,-1.963939667E-1
1.412758509E1,-3.329918534E-2,-5.014886260E-1,3.024768829E-1
1.414549066E1,-9.727653116E-2,-5.583585501E-1,-5.084037781E-3
1.416337775E1,6.661482155E-2,-4.131352901E-1,5.387401581E-2
1.418127362E1,-2.379468083E-1,-6.725003719E-1,-1.754236221E-1
1.419916449E1,-2.035894990E-1,-6.216818094E-1,2.421026230E-1
1.421705591E1,1.191737279E-1,-3.504907489E-1,2.444286346E-1
1.423493524E1,-8.059844375E-3,-6.471359134E-1,9.309005737E-2
1.425283808E1,-2.311365008E-1,-5.104189515E-1,4.981422424E-2
1.427072943E1,-2.930416465E-1,-5.135971904E-1,1.323432922E-1
1.428860938E1,5.954347923E-2,-5.490702391E-1,2.847509384E-1
1.430651184E1,-1.641940698E-2,-5.089975595E-1,-5.749893188E-2
1.432440326E1,-3.325900733E-1,-5.698205233E-1,2.407121658E-1
1.434227674E1,-1.418206841E-1,-3.754810095E-1,1.439952850E-1
1.436017395E1,-1.061508618E-2,-5.886163712E-1,-1.757431030E-1
1.437807386E1,-5.541850626E-2,-4.980416000E-1,2.511215210E-2
1.439596814E1,-2.403772622E-1,-4.377507567E-1,2.061824799E-1
1.441385926E1,-2.398295254E-1,-5.208563209E-1,-1.190891266E-1
1.443175092E1,-2.832794748E-2,-5.781853795E-1,-1.352024078E-1
1.444964185E1,1.072016805E-1,-4.930061400E-1,9.279537201E-2
1.446753284E1,-1.374916732E-1,-5.757670403E-1,-1.391611099E-1
1.448542426E1,-3.036939800E-1,-5.642341375E-1,-1.575403214E-1
1.450331537E1,6.341974437E-2,-4.295139611E-1,1.606073380E-1
1.452120691E1,1.326434165E-1,-5.952377319E-1,-1.345844269E-1
1.453909803E1,-1.097281873E-1,-5.370813012E-1,-1.062002182E-1
1.455699164E1,-1.240257919E-1,-4.538341463E-1,1.765441895E-2
1.457488025E1,2.303817123E-2,-4.036291242E-1,3.549575806E-3
1.459277173E1,-6.048424169E-3,-5.302981138E-1,-1.329555511E-1
1.461066303E1,2.768849954E-2,-3.866018653E-1,-2.897262573E-2
1.462853937E1,5.150172859E-3,-4.249406457E-1,-6.731987000E-3
1.464644544E1,-1.656879932E-1,-5.476728082E-1,-1.421279907E-1
1.466433661E1,-2.613525651E-2,-4.147506356E-1,5.240535736E-2
1.468222821E1,1.662177742E-1,-3.745152354E-1,-4.585838318E-2
1.470010907E1,6.169011351E-3,-5.299685597E-1,-4.526615143E-2
1.471799530E1,-1.033850387E-1,-4.419472218E-1,1.100063324E-2
1.473590155E1,-7.569919527E-2,-4.708644152E-1,5.112743378E-2
1.475379261E1,1.203352958E-1,-4.666118026E-1,-3.447532654E-3
1.477168421E1,-4.752170667E-2,-4.953324497E-1,8.367347717E-2
1.478957544E1,-1.830653846E-1,-4.578664303E-1,9.163665771E-2
1.480746643E1,-8.060956001E-2,-4.470658898E-1,3.994655609E-2
1.482535785E1,-5.923834443E-2,-5.341200829E-1,5.199432373E-2
1.484324915E1,-3.361575678E-2,-4.645298123E-1,1.195459366E-1
1.486114032E1,-7.450561505E-3,-3.990573287E-1,1.166095734E-1
1.487903144E1,-1.489171088E-1,-4.416846931E-1,1.155719757E-1
1.489692584E1,-1.763021946E-1,-4.441064596E-1,-4.415225983E-2
1.491481391E1,-1.076101791E-2,-4.730809033E-1,7.962608337E-2
1.493270532E1,9.790199995E-2,-4.464735091E-1,2.017116547E-2
1.495059644E1,-1.856362969E-1,-3.567952216E-1,2.250385284E-2
1.496849079E1,-3.434143066E-1,-6.229056716E-1,-6.272697449E-2
1.498637885E1,1.574923247E-1,-4.719258845E-1,-1.883068085E-1
1.500426740E1,8.175068349E-2,-3.259900510E-1,8.268356323E-4
1.502215937E1,-3.687791228E-1,-5.303721428E-1,-4.174327850E-2
1.504004102E1,-9.509935975E-2,-3.317589164E-1,1.693410873E-1
1.505794214E1,-7.551640272E-2,-5.855373144E-1,-1.178216934E-1
1.507583820E1,-2.725602090E-1,-5.105699301E-1,1.485443115E-2
1.509372650E1,-2.327086776E-2,-4.416580796E-1,6.969070435E-2
1.511161786E1,-4.829661921E-2,-5.803099275E-1,6.185054779E-2
1.512949909E1,-4.680613577E-1,-4.574167430E-1,9.493827820E-3
1.514740003E1,-3.912322521E-1,-4.884971678E-1,1.036834717E-2
1.516529145E1,7.523278892E-2,-5.148172975E-1,-8.572006226E-2
1.518318280E1,-2.993982099E-2,-3.470315933E-1,3.537340164E-1
1.520107410E1,-5.234392285E-1,-4.240144789E-1,-3.124904633E-2
1.521896527E1,-4.548878670E-1,-5.388654470E-1,-1.211643219E-2
1.523685968E1,5.173612386E-2,-4.537048936E-1,2.255630493E-2
1.525474604E1,7.696711272E-2,-3.534410000E-1,1.324062347E-1
1.527263880E1,-4.575346112E-1,-3.486560881E-1,-6.306743622E-2
1.529053314E1,-5.539264679E-1,-4.496423006E-1,-4.957580566E-2
1.530842157E1,1.120532528E-1,-3.383493125E-1,1.412010193E-1
1.532631275E1,1.394595355E-1,-4.530153573E-1,-2.623462677E-2
1.534420404E1,-4.954217374E-1,-4.610172510E-1,-7.909107208E-2
1.536209680E1,-3.716831803E-1,-3.641028106E-1,7.570934296E-2
1.537998285E1,1.502333134E-1,-4.804249108E-1,-4.167842865E-2
1.539787683E1,1.459205300E-1,-4.693321884E-1,2.870750427E-2
1.541577191E1,-3.274084330E-1,-3.978027999E-1,2.333641052E-2
1.543366010E1,-2.805756629E-1,-5.300212502E-1,-6.803894043E-2
1.545155146E1,1.810694784E-1,-4.576169848E-1,-3.595447540E-2
1.546943408E1,3.536447883E-2,-4.090816379E-1,-9.059524536E-2
1.548733393E1,-3.048250973E-1,-4.108719826E-1,-1.011190414E-1
1.550522535E1,-9.499135613E-2,-4.125958979E-1,-1.807003021E-1
1.552311646E1,1.982090473E-1,-4.378642738E-1,-1.344289780E-1
1.554100800E1,7.082978263E-3,-3.831336498E-1,-1.213998795E-1
1.555889905E1,-1.556596458E-1,-3.488883376E-1,-1.962642670E-1
1.557679230E1,3.363338858E-2,-3.722001314E-1,-1.694660187E-1
1.559468158E1,2.403103411E-1,-1.848202944E-1,-2.136764526E-1
1.561257563E1,-3.239820525E-2,-2.674471140E-1,-1.776552200E-1
1.563046692E1,-4.037723839E-1,-4.236644208E-1,-2.443418503E-1
1.564835541E1,1.526109129E-1,-3.415032923E-1,-2.221488953E-2
1.566624652E1,6.089187860E-1,-2.151825130E-1,-1.521949768E-1
1.568413788E1,-3.502632976E-1,-4.179590940E-1,-4.816207886E-1
1.570202912E1,-5.432288051E-1,-2.322850823E-1,6.715011597E-2
1.571992072E1,5.479719639E-1,-3.241838217E-1,-2.142963409E-1
1.573781067E1,5.391137004E-1,-5.188545585E-1,-1.310024261E-1
1.575570581E1,-3.444319069E-1,-2.484544069E-1,1.301221848E-1
1.577359418E1,-1.932220757E-1,-3.548414707E-1,6.157779694E-2
1.579148822E1,5.003157854E-1,-4.063165784E-1,-9.695911407E-2
1.580937665E1,2.780706286E-1,-5.702388287E-2,1.612930298E-1
1.582726770E1,-1.903907657E-1,-2.632523179E-1,2.011699677E-1
1.584515912E1,4.005772620E-2,-4.229747653E-1,-3.882217407E-2
1.586305054E1,4.136891365E-1,4.551339149E-2,1.532659531E-1
1.588094190E1,-4.721496403E-1,-2.760861218E-1,-6.429767609E-2
1.589883594E1,-6.199767590E-1,-3.904184103E-1,1.736679077E-1
1.591672724E1,8.448574543E-1,2.367484570E-2,2.077960968E-1
1.593461536E1,4.176619649E-1,-3.533330560E-1,-3.853321075E-1
1.595250611E1,-8.703118563E-1,-2.246751189E-1,3.284358978E-2
1.597038617E1,-2.785593271E-1,-1.395224035E-1,4.327297211E-2
1.598829102E1,7.795581818E-1,-4.054105580E-1,-1.080484390E-1
1.600618036E1,3.917148709E-1,-2.290271074E-1,2.596511841E-1
1.602407172E1,-6.294329166E-1,-4.610449076E-3,3.009223938E-2
1.604196302E1,-9.520035386E-1,-6.686633825E-1,-2.147521973E-1
1.605984357E1,5.574905276E-1,-3.557651937E-1,2.089815140E-1
1.607774866E1,1.123422623E0,3.180934489E-1,2.843809128E-1
1.609564081E1,-4.462594390E-1,-5.721489191E-1,-2.231311798E-2
1.611352808E1,-1.092131495E0,-4.704646170E-1,-3.659601212E-1
1.613142206E1,2.334109545E-1,-4.277399182E-2,3.509836197E-1
1.614929828E1,8.978878856E-1,-2.423869371E-1,-2.106666565E-2
1.616720185E1,6.815077364E-2,-3.435167670E-1,-2.469062805E-2
1.618508991E1,-1.011357188E0,-1.520366669E-1,-5.108833313E-2
1.620298432E1,-2.086608112E-1,-3.213794231E-1,-1.970443726E-1
1.622087586E1,9.197996855E-1,-1.402859390E-1,-2.191743851E-1
1.623876679E1,8.211229742E-2,-1.971412897E-1,2.268276215E-1
1.625665814E1,-1.031719804E0,-8.286648989E-2,-1.975793839E-1
1.627454950E1,-2.501606643E-1,-4.145623744E-1,-2.071580887E-1
1.629243885E1,6.331089735E-1,-1.590884328E-1,-1.532983780E-1
1.631033240E1,6.611655653E-2,-9.916678071E-2,3.466396332E-1
1.632822302E1,-8.698224425E-1,-2.302532494E-1,-1.114883423E-1
1.634611444E1,-2.262214571E-1,-4.069726467E-1,-1.376714706E-1
1.636400574E1,6.778299212E-1,-8.312323689E-2,2.233695984E-1
1.638189710E1,-3.411063552E-2,-2.887867689E-1,6.301498413E-2
1.639979102E1,-7.518802285E-1,-2.744955420E-1,-2.239847183E-1
1.641767945E1,-1.593762040E-1,-1.634404659E-1,1.595897675E-1
1.643555750E1,4.647666216E-1,-1.604786515E-1,3.477001190E-2
1.645346192E1,-1.084715277E-1,-3.461290002E-1,-2.161512375E-1
1.647135315E1,-6.987290382E-1,-1.816839278E-1,-1.581029892E-1
1.648924762E1,-1.086920351E-1,-8.987122774E-2,4.507637024E-2
1.650713562E1,2.260159552E-1,-3.135115504E-1,-3.019742966E-1
1.652502704E1,-3.246816099E-1,-2.932245135E-1,-1.506109238E-1
1.654291834E1,-4.202830791E-1,-7.067710161E-3,5.168724060E-2
1.656080603E1,-6.302017719E-4,-2.278298587E-1,-1.933336258E-1
1.657870087E1,-1.596635133E-1,-4.013709426E-1,-4.803066254E-1
1.659659204E1,-4.491944313E-1,-8.680620790E-2,9.078025818E-3
1.661448334E1,-1.311483085E-1,-9.645915031E-2,-1.677322388E-2
1.663237445E1,-1.501149386E-1,-4.136656821E-1,-4.609594345E-1
1.665025379E1,-5.486528873E-1,-1.996082366E-1,-1.907062531E-1
1.666815704E1,-3.705922365E-1,-9.734678268E-2,4.369544983E-2
1.668603308E1,-1.116822734E-1,-5.114215612E-1,-4.160385132E-1
1.670393964E1,-1.264315546E-1,-3.068122566E-1,1.770687103E-2
1.672183094E1,-1.882557571E-1,-4.121661186E-3,2.821359634E-1
1.673972235E1,-3.026226759E-1,-2.924537063E-1,-3.319826126E-1
1.675761377E1,-4.034759402E-1,-5.247656107E-1,-2.015733719E-1
1.677550501E1,2.389908284E-1,1.210409999E-1,6.415090561E-1
1.679339203E1,3.570949733E-1,-1.976220757E-1,-1.463031769E-2
1.681128730E1,-8.596740961E-1,-6.857309341E-1,-6.259298325E-1
1.682917871E1,-5.272921324E-1,1.666996777E-1,5.220098495E-1
1.684707276E1,9.095891714E-1,8.383828402E-2,4.035863876E-1
1.686496094E1,2.489138544E-1,-7.710056305E-1,-6.349077225E-1
1.688285529E1,-9.858409762E-1,-1.813635826E-1,1.823577881E-1
1.690074378E1,-4.033068195E-2,3.350748122E-1,5.260715485E-1
1.691863642E1,6.888658404E-1,-6.364399195E-1,-5.614280701E-1
1.693652607E1,7.289905846E-2,-2.663031816E-1,-1.285076141E-2
1.695442047E1,-4.318330884E-1,2.925539315E-1,7.366771698E-1
1.697230878E1,-1.472397149E-1,-6.266421676E-1,-1.262197495E-1
1.699018793E1,5.002499223E-1,-4.893384576E-1,-6.280183792E-1
1.700809119E1,8.773777634E-2,2.178397179E-1,6.620025635E-1
1.702598243E1,-2.914404273E-1,-2.977731526E-1,3.559989929E-1
1.704387372E1,3.556498885E-1,-2.235081494E-1,-2.448158264E-1
1.706176502E1,-1.822758019E-1,-4.436237216E-1,-8.590126038E-2
1.707965619E1,-5.156713128E-1,-1.672920287E-1,1.727151871E-1
1.709754847E1,7.955836058E-1,2.366605401E-2,3.031625748E-1
1.711543872E1,4.666730762E-1,-5.531311035E-1,-4.990530014E-1
1.713331665E1,-9.519090056E-1,-2.612186074E-1,1.339073181E-1
1.715122113E1,-1.226913333E-1,1.300496459E-1,3.483896255E-1
1.716910077E1,8.191660643E-1,-6.033145189E-1,-5.732135773E-1
1.718700684E1,3.036951423E-1,-2.767516077E-1,3.540000916E-1
1.720489514E1,-6.152660251E-1,2.021337450E-1,2.139310837E-1
1.722278632E1,-9.165315032E-1,-6.915335655E-1,-7.634086609E-1
1.724067762E1,9.245192409E-1,-1.094587445E-1,3.363752365E-1
1.725856867E1,1.242395163E0,2.186187804E-1,5.550298691E-1
1.727644580E1,-1.084433436E0,-6.622362137E-1,-5.806837082E-1
1.729433972E1,-1.208239436E0,-3.356035650E-1,-2.707939148E-1
1.731223188E1,9.669830203E-1,2.974305451E-1,7.217254639E-1
1.733012177E1,1.119662762E0,-4.501833916E-1,-1.006584167E-1
1.734802533E1,-7.987785935E-1,-6.739995480E-1,-5.695209503E-1
1.736591645E1,-1.202901721E0,1.292335987E-1,3.957414627E-1
1.738380774E1,5.811043978E-1,-2.193606049E-1,3.900527954E-2
1.740169886E1,1.171521902E0,-5.018707514E-1,-3.908996582E-1
1.741959021E1,-5.328859687E-1,1.908680797E-2,1.996316910E-1
1.743748462E1,-1.199825644E0,-9.514719248E-2,-1.511096954E-2
1.745537293E1,3.509633839E-1,-4.842799306E-1,-5.004491806E-1
1.747326380E1,9.080532193E-1,-1.410263926E-1,-5.428028107E-2
1.749115546E1,-5.076683164E-1,-9.456843138E-3,1.137552261E-1
1.750903485E1,-1.045505643E0,-3.293977678E-1,-5.105676651E-1
1.752694080E1,2.069345117E-1,-4.384837151E-1,-3.783044815E-1
1.754482898E1,7.155073285E-1,-2.487158775E-2,1.602325439E-1
1.756272040E1,-3.963168859E-1,-2.704126239E-1,-2.849349976E-1
1.758061194E1,-8.324571252E-1,-4.266675115E-1,-3.825206757E-1
1.759850312E1,8.654354513E-2,-2.235706896E-1,3.392314911E-2
1.761639130E1,5.085998774E-1,-2.600191236E-1,3.719329834E-2
1.763428217E1,-1.838123947E-1,-4.090498686E-1,-2.357931137E-1
1.765217670E1,-7.161942124E-1,-3.748225570E-1,-1.911458969E-1
1.767007141E1,-4.410204664E-2,-2.097953856E-1,3.216590881E-1
1.768795642E1,5.568004251E-1,-3.431764543E-1,-1.771001816E-1
1.770585059E1,-2.772302330E-1,-4.536273479E-1,-1.732387543E-1
1.772374195E1,-4.876188040E-1,-1.283984631E-1,3.991394043E-1
1.774163227E1,1.777533889E-1,-3.303459883E-1,1.280784607E-2
1.775952460E1,1.342925429E-1,-5.441356897E-1,-1.952228546E-1
1.777741571E1,-2.238564938E-1,-1.360408068E-1,3.425798416E-1
1.779530683E1,-1.057854295E-1,-1.886188984E-4,4.383764267E-1
1.781319825E1,-1.901886463E-1,-6.881046295E-1,-3.755235672E-1
1.783108966E1,-3.969462216E-2,-2.957758009E-1,1.229743958E-1
1.784896869E1,-1.042666584E-1,-5.001425743E-3,2.235031128E-1
1.786685633E1,-2.723102570E-1,-6.418118477E-1,-1.334085464E-1
1.788476313E1,6.939779222E-2,-2.903761566E-1,1.786298752E-1
1.790265448E1,-1.043808907E-1,-1.836124212E-1,3.836030960E-1
1.792054578E1,-3.628451824E-1,-5.281184912E-1,-2.833585739E-1
1.793843701E1,-7.995352894E-2,-4.135080874E-1,4.444313049E-2
1.795632831E1,1.443173736E-1,-1.899364889E-1,4.605493546E-1
1.797421961E1,-1.593034714E-1,-4.339759946E-1,4.317092896E-2
1.799211084E1,-4.072409272E-1,-5.155528784E-1,-2.582492828E-1
1.801000214E1,1.076604873E-1,-1.581352204E-1,3.862028122E-1
1.802789374E1,1.904866695E-1,-3.359376192E-1,1.300516129E-1
1.804578461E1,-3.571587801E-1,-5.337167382E-1,-1.537237167E-1
1.806367597E1,-1.941469014E-1,-1.025996506E-1,2.688236237E-1
1.808156726E1,1.764005125E-1,-1.863777190E-1,4.027080536E-2
1.809945838E1,-7.128393650E-2,-4.963707924E-1,-3.403844833E-1
1.811733515E1,-3.113649189E-1,-1.195692718E-1,1.203651428E-1
1.813524085E1,-5.066705123E-2,-2.034224123E-1,9.105014801E-2
1.815313227E1,1.731259525E-1,-4.201666117E-1,-2.669897079E-1
1.817102362E1,-9.026395530E-2,-3.293228447E-1,-1.069097519E-1
1.818890699E1,-2.596091926E-1,-2.356814146E-1,2.231025696E-2
1.820680609E1,7.328055799E-2,-4.194356799E-1,-2.743825912E-1
1.822469721E1,1.789437085E-1,-3.464132845E-1,-1.739969254E-1
1.824258857E1,-1.636463255E-1,-3.035308719E-1,9.886741638E-3
1.826048011E1,-2.741634548E-1,-3.248718381E-1,-1.963815689E-1
1.827836835E1,1.166030169E-1,-3.914348781E-1,-2.067413330E-1
1.829626264E1,2.292326093E-1,-2.290529013E-1,3.071498871E-2
1.831415357E1,-1.996448636E-1,-3.862697184E-1,-1.267070770E-1
1.833204486E1,-2.569576204E-1,-4.212155044E-1,-3.182802200E-1
1.834993628E1,1.693501621E-1,-2.673045695E-1,-3.643703461E-2
1.836782990E1,2.177329063E-1,-1.485361308E-1,-2.463836670E-1
1.838571875E1,-2.518039644E-1,-3.479019701E-1,-2.979698181E-1
1.840360999E1,-1.560421586E-1,-2.550374866E-1,-1.885328293E-1
1.842150135E1,1.071348935E-1,-1.656993777E-1,-4.223728180E-2
1.843939252E1,-2.909642830E-2,-2.667788267E-1,-2.686614990E-1
1.845728394E1,-1.545188874E-1,-1.197779179E-1,-1.607036591E-2
1.847517524E1,-1.778146476E-1,-2.855048776E-1,-1.488018036E-1
1.849306635E1,-4.398297518E-2,-2.971105278E-1,2.487945557E-2
1.851095746E1,1.452451795E-1,-2.030241489E-1,1.645565033E-2
1.852885150E1,-4.778587073E-2,-2.593679726E-1,3.030014038E-2
1.854673712E1,-2.352884859E-1,-4.153932035E-1,-1.460065842E-1
1.856463489E1,7.698056847E-2,-2.711492777E-1,2.262687683E-1
1.858252271E1,1.495864093E-1,-3.839926124E-1,3.103837967E-1
1.860041419E1,-7.428470254E-2,-4.111989439E-1,9.129238129E-2
1.861829340E1,8.975697309E-2,-2.306471169E-1,2.059440613E-1
1.863619129E1,1.342949718E-1,-3.257612288E-1,4.043664932E-1
1.865408783E1,3.231770545E-2,-3.505724669E-1,-5.451488495E-2
1.867197913E1,1.860420555E-1,-3.010936081E-1,5.516796112E-1
1.868987030E1,2.131565064E-1,-3.106379509E-2,-2.541666031E-1
1.870776166E1,8.892200142E-2,-3.897333741E-1,2.666501999E-1
1.872564075E1,-4.081664234E-2,-3.176165223E-1,7.779502869E-2
1.874354407E1,1.622298807E-1,-4.862937331E-2,-1.237401962E-1
1.876143439E1,1.770572215E-1,-4.390040338E-1,-1.129817963E-2
1.877931226E1,-6.248972565E-2,-2.416319847E-1,-4.046468735E-1
1.879721802E1,-7.212133706E-2,-1.239585280E-1,1.853065491E-1
1.881510901E1,9.263368696E-2,-4.013179541E-1,-3.416938782E-1
1.883300037E1,-3.680302575E-2,-2.437749207E-1,-7.462530136E-1
1.885089179E1,-1.304242313E-1,-1.631692648E-1,6.233005524E-1
1.886878284E1,-3.167649508E-1,-2.833944857E-1,-9.655637741E-1
1.888667066E1,-1.141332090E-1,-3.834502101E-1,-1.700592041E-2
1.890456562E1,-7.205096632E-2,-9.045939147E-2,-5.142402649E-2
1.892245679E1,-1.579052806E-1,-5.442515016E-1,-1.110334396E-1
1.894033637E1,-4.583412707E-1,-4.361892939E-1,-6.820783615E-1
1.895822779E1,-1.445506811E-1,-5.934146047E-2,4.437856674E-1
1.897613489E1,3.895010054E-2,-1.465383172E-1,-2.709121704E-1
1.899402191E1,-3.399017453E-1,-5.608242750E-1,-3.210754395E-1
1.901191321E1,-3.932056427E-1,-1.029926538E-1,1.263475418E-1
1.902980463E1,8.517569304E-2,-2.169183195E-1,3.586435318E-1
1.904769995E1,-2.927063592E-2,-6.424179077E-1,-3.567876816E-1
1.906558734E1,-3.073230386E-1,1.722128689E-1,6.070451736E-1
1.908346674E1,-2.781803310E-1,-6.488692760E-2,4.333133698E-1
1.910135755E1,1.839289442E-2,-5.246282816E-1,-3.346652985E-1
1.911924591E1,-1.376878321E-1,-1.722919643E-1,2.798461914E-1
1.913715210E1,-3.657824695E-1,1.822003722E-2,6.210289001E-1
1.915504645E1,-1.797548085E-1,-4.117855132E-1,-2.136840820E-1
1.917293476E1,-1.330111921E-1,-4.520348608E-1,-1.620225906E-1
1.919082611E1,-2.107682228E-1,2.730327845E-2,4.757471085E-1
1.920871723E1,-2.914107442E-1,-3.622998595E-1,-8.478164673E-4
1.922660840E1,-2.553083003E-1,-5.535310507E-1,-3.033351898E-1
1.924449964E1,-6.745457649E-4,3.861731291E-2,3.206148148E-1
1.926239106E1,-2.988058031E-1,-2.645030916E-1,7.214832306E-2
1.928027039E1,-2.971865237E-1,-4.333971143E-1,-4.435253143E-1
1.929817353E1,6.823577732E-2,-2.716359496E-2,1.411800385E-1
1.931606488E1,8.951370418E-2,-1.823369861E-1,7.185268402E-2
1.933395630E1,-2.693777382E-1,-5.037046075E-1,-5.236043930E-1
1.935183564E1,-1.727048457E-1,-6.056712568E-2,1.106929779E-2
1.936973596E1,2.533217072E-1,7.658818364E-2,1.152601242E-1
1.938762976E1,2.375472486E-1,-4.367613494E-1,-4.669189453E-1
1.940552124E1,-1.799413562E-1,-2.535778880E-1,-1.422662735E-1
1.942341248E1,-1.874408871E-1,1.258893907E-1,7.189083099E-2
1.944130390E1,2.867714763E-1,-2.495401651E-1,-2.713441849E-1
1.945919800E1,5.113204122E-1,-3.498631716E-1,-3.127164841E-1
1.947708618E1,-1.382522434E-1,-2.891656756E-2,7.524299622E-2
1.949496015E1,-3.839336038E-1,-3.931996226E-1,2.252254486E-1
1.951286884E1,3.596500158E-1,-4.518186748E-1,-2.610254288E-1
1.953076026E1,6.133710742E-1,-2.706734240E-1,2.940816879E-1
1.954865436E1,-1.819620430E-1,-1.425449252E-1,6.842613220E-2
1.956654267E1,-4.063959420E-1,-4.650467336E-1,-6.527614594E-2
1.958443408E1,4.671621025E-1,-2.075604200E-1,1.989479065E-1
1.960231342E1,3.488996029E-1,-2.583593428E-1,2.548742294E-1
1.962020764E1,-3.380101323E-1,-2.654463351E-1,3.282356262E-2
1.963810486E1,-1.152225807E-1,-1.079046726E-2,1.823453903E-1
1.965599903E1,1.933401823E-1,-2.552118897E-1,-5.880355835E-3
1.967389032E1,7.214127481E-2,-2.582912445E-1,9.576129913E-2
1.969178150E1,-1.319084316E-1,-1.379836500E-1,1.694459915E-1
1.970967310E1,-7.839721441E-2,-2.417127937E-1,2.239284515E-1
1.972756415E1,1.071572453E-1,-2.341770828E-1,-6.872749329E-2
1.974545935E1,3.408223018E-2,-1.745728999E-1,4.375839233E-2
1.976334662E1,-2.604398876E-3,-2.165090591E-1,9.110736847E-2
1.978123816E1,-2.916675247E-2,-3.133367896E-1,-8.530139923E-2
1.979912909E1,-3.112575784E-2,-3.289596140E-1,2.557344437E-1
1.981702069E1,-1.862434298E-1,-2.587121725E-1,-6.195545197E-2
1.983491205E1,-4.660989046E-1,-5.036668181E-1,-1.480579376E-2
1.985280316E1,-2.380315214E-1,-1.919003576E-1,1.595230103E-1
1.987069361E1,-2.208078206E-1,-2.892961800E-1,1.341857910E-1
1.988858533E1,-7.132683992E-1,-3.054966033E-1,-1.117591858E-1
1.990647675E1,-7.781310678E-1,-2.596738040E-1,-9.906291962E-2
1.992436811E1,-3.590915352E-2,-2.560392916E-1,5.284786224E-2
1.994225946E1,-1.148813143E-1,-2.795476615E-1,-2.012281418E-1
1.996013861E1,-8.540153503E-1,-3.513517976E-1,-1.050014496E-1
1.997803906E1,-6.970423460E-1,1.334677339E-1,1.003837585E-2
1.999593311E1,-2.069477141E-1,-2.660320997E-1,-1.678295135E-1
2.001382440E1,-2.127470970E-1,-1.343523711E-1,-1.979541779E-1
2.003171576E1,-9.953504205E-1,-1.739392430E-1,1.927537918E-1
2.004960718E1,-1.030408978E0,-2.953248620E-1,-2.062940598E-1
2.006749823E1,-4.429410696E-1,-3.590836525E-1,-2.401905060E-1
2.008538941E1,-2.956306934E-1,-7.035022974E-2,4.753684998E-2
2.010328070E1,-9.392924905E-1,-3.747195303E-1,-6.830120087E-2
2.012116059E1,-1.043344140E0,-3.584053218E-1,-3.392887115E-1
2.013906336E1,-3.053497672E-1,-1.833615303E-1,1.360244751E-1
2.015695740E1,-2.122084945E-1,-1.629791856E-1,-7.680892944E-2
2.017484595E1,-1.176516771E0,-4.348949790E-1,-1.960315704E-1
2.019273719E1,-1.021763563E0,-1.936082989E-1,8.035469055E-2
2.021063117E1,-7.963754982E-2,-2.837192714E-1,-5.840396881E-2
2.022851972E1,-3.610416651E-1,-3.366019130E-1,-1.825141907E-1
2.024641108E1,-9.978144765E-1,-1.675197333E-1,5.204868317E-2
2.026430219E1,-5.317330360E-1,-5.017867684E-2,1.560306549E-1
2.028218445E1,-3.500186205E-1,-4.948407412E-1,-2.565937042E-1
2.030007080E1,-4.653760493E-1,-1.427851468E-1,2.127456665E-2
2.031797333E1,-6.767601967E-1,4.075108469E-2,3.533172607E-2
2.033586743E1,-6.549707055E-1,-3.764143586E-1,-3.460483551E-1
2.035374671E1,-3.119506240E-1,-1.961370409E-1,-1.581907272E-1
2.037165003E1,-2.521075010E-1,-3.450416028E-2,1.514043808E-1
2.038954120E1,-4.379258752E-1,-3.979274035E-1,-2.125310898E-1
2.040743250E1,-4.983319640E-1,-3.857569695E-1,-2.670688629E-1
2.042532361E1,-4.073753059E-1,-7.101538777E-2,1.073522568E-1
2.044321527E1,-4.023192823E-1,-3.143883944E-1,-1.870365143E-1
2.046110657E1,-2.452482879E-1,-4.484266639E-1,-7.794666290E-2
2.047899750E1,-2.147052586E-1,-1.036525667E-1,7.385253906E-2
2.049689185E1,-4.564431310E-1,-2.637257874E-1,3.315258026E-2
2.051476868E1,-6.068086028E-1,-3.636078238E-1,-2.294931412E-1
2.053266040E1,-3.014084995E-1,-2.582319975E-1,1.005764008E-1
2.055056012E1,1.611808091E-1,-1.320535243E-1,1.392726898E-1
2.056844318E1,-4.037943780E-1,-4.364596307E-1,-2.927751541E-1
2.058634564E1,-6.481099725E-1,-2.207537144E-1,-1.273784637E-1
2.060423853E1,-3.682206944E-2,1.016384512E-1,2.143192291E-2
2.062213086E1,1.011915356E-1,-3.371374011E-1,-1.648797989E-1
2.064001892E1,-2.267410010E-1,-2.966848016E-2,-4.853153229E-2
2.065790625E1,-6.723933816E-1,2.169677615E-2,-1.124191284E-1
2.067580463E1,-5.720184445E-1,-5.301022530E-1,-2.248992920E-1
2.069369281E1,2.248699665E-1,-1.740883589E-1,1.062259674E-1
2.071158393E1,9.285265580E-3,8.196696639E-2,2.177963257E-1
2.072947559E1,-8.414855599E-1,-5.018540025E-1,-4.345598221E-1
2.074736688E1,-3.646278977E-1,-2.785545886E-1,2.124977112E-2
2.076525830E1,6.102859378E-1,-1.333917677E-2,3.563489914E-1
2.078315228E1,-1.523442715E-1,-4.293764830E-1,-2.857055664E-1
2.080104071E1,-1.100049973E0,-1.960838437E-1,2.040767670E-2
2.081893177E1,-1.685058475E-1,-9.003654122E-3,2.996139526E-1
2.083682447E1,4.991777837E-1,-6.084055901E-1,-2.687005997E-1
2.085471436E1,-3.727964163E-1,-2.212208360E-1,-4.980754852E-2
2.087260566E1,-8.911113739E-1,1.489225924E-1,5.158185959E-1
2.089049677E1,-4.167657346E-2,-4.228365719E-1,-1.913328171E-1
2.090838806E1,4.560892284E-1,-4.297269583E-1,-2.805852890E-1
2.092627948E1,-1.898131669E-1,1.014615893E-1,3.984670639E-1
2.094417060E1,-6.741275191E-1,-9.267878532E-2,-3.719043732E-2
2.096206214E1,-3.001556545E-2,-4.590079188E-1,-3.950519562E-1
2.097995020E1,4.655023217E-1,1.290112585E-1,3.672780991E-1
2.099784265E1,-1.621288359E-1,-1.560484767E-1,1.707305908E-1
2.101574024E1,-7.948496938E-1,-3.641519845E-1,-3.082036972E-1
2.103362714E1,-1.003050506E-1,-1.106720716E-1,3.038148880E-1
2.105151856E1,7.781476378E-1,9.481300414E-2,3.058567047E-1
2.106940967E1,-2.931964695E-1,-4.837149978E-1,-4.260110855E-1
2.108730182E1,-1.097445846E0,-7.976226509E-2,-1.866912842E-2
2.110519232E1,3.041913547E-2,6.586819887E-2,3.601818085E-1
2.112308356E1,8.138243556E-1,-3.871935010E-1,-1.049251556E-1
2.114097504E1,-2.316025496E-1,-2.886607945E-1,-1.423797607E-1
2.115886621E1,-1.071606994E0,8.702728152E-2,2.299461365E-1
2.117675855E1,-2.051906735E-1,-2.896266580E-1,-9.024429321E-2
2.119464862E1,6.584508419E-1,-2.704607248E-1,-1.382198334E-1
2.121253992E1,-1.844515353E-1,3.685958683E-2,2.713317871E-1
2.123041931E1,-1.030649304E0,-4.919642210E-2,-2.747249603E-2
2.124832239E1,-4.647599161E-1,-2.283820957E-1,-2.502613068E-1
2.126621387E1,4.139273763E-1,1.174055040E-2,1.495552063E-2
2.128410511E1,-2.225452214E-1,1.368000209E-1,1.652173996E-1
2.130199652E1,-8.914924860E-1,-7.894572616E-2,-1.067886353E-1
2.131988758E1,-3.792016506E-1,6.594158709E-2,1.500225067E-2
2.133777906E1,-3.976009786E-2,-1.891815662E-2,1.037321091E-1
2.135567352E1,-3.011882305E-1,-1.132799387E-1,-6.557369232E-2
2.137356153E1,-7.250420451E-1,-1.565625817E-1,-1.291656494E-2
2.139145282E1,-5.031120181E-1,-7.146680355E-2,4.707908630E-2
2.140934418E1,5.379871279E-2,-3.381431699E-1,1.740493774E-1
2.142723529E1,-3.114347756E-1,-3.849165142E-1,-2.946186066E-1
2.144512665E1,-6.919587851E-1,-3.305332661E-1,2.126512527E-1
2.146301801E1,-3.412227929E-1,-3.075212240E-1,-1.205062866E-2
2.148090906E1,2.983577549E-2,-3.763711154E-1,-3.992652893E-2
2.149880024E1,-3.763565123E-1,-2.829440832E-1,-2.369594574E-2
2.151669159E1,-7.022243142E-1,-3.040793836E-1,4.570674896E-2
2.153458301E1,-2.420986593E-1,-2.469127178E-1,-5.550575256E-2
2.155247431E1,7.927817106E-2,-2.358732074E-1,-7.216930389E-2
2.157036615E1,-3.856666386E-1,-2.874132395E-1,2.936553955E-2
2.158825678E1,-7.973506451E-1,-2.585396469E-1,1.560592651E-1
2.160615223E1,-4.874219894E-1,8.205816150E-3,-6.588268280E-2
2.162403949E1,-1.629358828E-1,-1.890169084E-1,-1.582174301E-1
2.164193085E1,-5.978590846E-1,-3.477068841E-1,-2.100448608E-1
2.165982202E1,-7.786081433E-1,-1.590994000E-1,-2.224922180E-3
2.167771314E1,-4.280066490E-1,-1.426305473E-1,-1.209173203E-1
2.169560779E1,-2.076164037E-1,-2.304140627E-1,6.280994415E-2
2.171349579E1,-4.575416446E-1,-6.029367447E-2,1.046333313E-1
2.173136957E1,-8.505519032E-1,-3.483355045E-1,-1.912136078E-1
2.174927851E1,-4.711720943E-1,-3.089769185E-1,-4.664220810E-1
2.176716956E1,1.598851532E-1,1.453343034E-2,4.867858887E-1
2.178506067E1,-4.393474460E-1,-2.007202804E-2,-2.202215195E-1
2.180295215E1,-1.003464341E0,-5.055559874E-1,-5.198974609E-1
2.182084339E1,-2.680271864E-1,-8.703610301E-2,3.096342087E-1
2.183873487E1,2.019100487E-1,-6.926025450E-2,-3.590869904E-2
2.185662598E1,-2.904992700E-1,-2.601748705E-1,-4.917602539E-1
2.187451728E1,-7.099080086E-1,1.540860534E-2,9.642314911E-2
2.189240436E1,-3.472018242E-1,2.692447603E-2,-3.533077240E-2
2.191030005E1,6.963422894E-2,-2.265515924E-1,-3.213634491E-1
2.192819104E1,2.317661047E-1,-9.991779923E-3,1.217460632E-2
2.194608252E1,-4.248285592E-1,2.081647515E-3,1.081562042E-2
2.196397089E1,-7.586374283E-1,-1.549005508E-1,-3.630971909E-1
2.198186518E1,1.599073112E-1,-1.340851933E-1,6.575679779E-2
2.199975617E1,6.158562899E-1,-5.113847554E-2,1.179170609E-1
2.201764740E1,-3.383386433E-1,-2.920495868E-1,-2.532234192E-1
2.203553876E1,-6.982507706E-1,-1.107856929E-1,-6.544589996E-2
2.205342969E1,2.332199216E-1,-4.510135949E-2,2.142858505E-1
2.207132129E1,4.462614655E-1,-2.236128896E-1,-4.968166351E-2
2.208921259E1,-2.956840098E-1,-2.567399740E-1,-1.656999588E-1
2.210710102E1,-4.253107607E-1,-4.980638623E-2,1.556692123E-1
2.212499524E1,4.762382805E-2,-1.990461498E-1,-1.992778778E-1
2.214288642E1,1.854480058E-1,-2.876424789E-1,-1.765785217E-1
2.216077771E1,-1.481191665E-1,-4.599632323E-2,4.435138702E-1
2.217866895E1,-4.219002426E-1,-8.383107185E-2,-2.145395279E-1
2.219656031E1,-2.862092257E-1,-4.527271688E-1,-4.452743530E-1
2.221445160E1,2.836488485E-1,-1.566247642E-2,2.561826706E-1
2.223234296E1,1.186187565E-2,-2.492776513E-2,1.951904297E-1
2.225022278E1,-7.292570472E-1,-3.089958131E-1,-4.287834167E-1
2.226812244E1,-2.306428254E-1,1.604676247E-2,-7.352733612E-2
2.228601679E1,4.406950474E-1,4.286140203E-3,8.930873871E-2
2.230390821E1,-2.620927989E-2,-4.174826145E-1,-3.358259201E-1
2.232179920E1,-6.767454147E-1,-8.154538274E-2,-1.631231308E-1
2.233967987E1,-2.326005399E-1,3.708246350E-2,2.655239105E-1
2.235757874E1,3.639123440E-1,-3.358737826E-1,-2.543401718E-1
2.237547003E1,-2.584388852E-1,-3.335680962E-1,-2.945175171E-1
2.239336444E1,-7.359926701E-1,-1.301068068E-1,1.596498489E-1
2.241125550E1,-2.255132347E-1,-2.087861598E-1,-5.935001373E-2
2.242913520E1,3.489032090E-1,-1.347959191E-1,8.931732178E-2
2.244704126E1,-3.076080680E-1,-7.743754983E-2,5.757522583E-2
2.246491468E1,-1.188489676E0,-4.227050543E-1,-5.371532440E-1
2.248282074E1,-3.384325504E-1,-3.040818274E-1,4.891586304E-2
2.250071234E1,2.128133029E-1,3.420036435E-1,6.033182144E-1
2.251860346E1,-1.026685715E0,-3.012222946E-1,-5.860490799E-1
2.253649451E1,-8.537840843E-1,-5.085793734E-1,-3.226661682E-1
2.255438605E1,6.217187047E-1,3.043062985E-2,7.794313431E-1
2.257227735E1,2.384436131E-1,-1.901799738E-1,1.366128922E-1
2.259015644E1,-1.158024669E0,-3.748660684E-1,-4.920434952E-1
2.260804511E1,-8.910191655E-1,4.206062555E-1,1.313705444E-1
2.262595087E1,1.001908779E0,-1.940298527E-1,5.658073425E-1
2.264384217E1,1.760801673E-1,-7.802566886E-1,-6.276922226E-1
2.266173383E1,-1.622503877E0,-1.329584718E-1,2.442150116E-1
2.267962494E1,-6.764252186E-1,3.223187327E-1,7.309131622E-1
2.269751612E1,9.234704375E-1,-3.305116892E-1,-2.039031982E-1
2.271541040E1,-1.322854310E-2,-5.019794106E-1,3.993759155E-1
2.273329877E1,-1.264005065E0,1.156984419E-1,1.494674683E-1
2.275118872E1,-5.200914145E-1,-3.444108367E-1,1.222143173E-1
2.276906678E1,9.103919864E-1,-2.738291919E-1,3.859233856E-1
2.278697559E1,6.984896958E-3,1.404832900E-1,3.423805237E-1
2.280486682E1,-1.588863015E0,-2.905785143E-1,-3.645067215E-1
2.282275513E1,-7.218910456E-1,-1.819752157E-2,6.093025208E-2
2.284064655E1,1.166136861E0,-9.631481022E-2,2.859296799E-1
2.285853748E1,2.173801064E-1,-5.429652333E-1,-8.983325958E-2
2.287641693E1,-1.011268735E0,4.265133142E-1,-1.708612442E-1
2.289432050E1,-2.065682113E-1,1.488635838E-1,-7.739830017E-2
2.291221137E1,5.750470161E-1,-2.977647781E-1,1.061010361E-1
2.293009351E1,4.870377481E-2,-2.165633142E-1,2.616024017E-2
2.294799109E1,-6.778852940E-1,-1.374698132E-1,-8.026599884E-2
2.296588764E1,-2.192645818E-1,-1.475267857E-1,1.445007324E-2
2.298377680E1,4.544742107E-1,-5.788970739E-2,1.313638687E-1
2.300166675E1,-4.783059657E-2,-9.693554789E-2,-1.821517944E-1
2.301955927E1,-5.467519164E-1,-1.343681514E-1,-3.850193024E-1
2.303745044E1,1.141512841E-1,-1.099648923E-1,-1.879444122E-1
2.305534192E1,5.712633133E-1,-1.806778312E-1,1.829442978E-1
2.307323310E1,-4.257574677E-1,-1.113514528E-1,-2.741632462E-1
2.309112451E1,-5.239098072E-1,6.012114882E-2,-3.340072632E-1
2.310901209E1,5.594435930E-1,-5.353473127E-2,-9.185218811E-2
2.312690680E1,4.150162935E-1,-3.347533941E-2,2.990531921E-2
2.314479834E1,-5.308105946E-1,-1.559139192E-1,-1.591281891E-1
2.316268940E1,-1.092041135E-1,1.692794710E-1,-1.498403549E-1
2.318058075E1,5.116211176E-1,-9.384560585E-2,-9.688758850E-2
2.319847217E1,2.199722230E-1,-1.156636924E-1,-3.536453247E-1
2.321636487E1,-3.548557460E-1,1.075925082E-1,-4.208469391E-2
2.323425458E1,-1.107090414E-1,-1.771175265E-1,-7.456111908E-2
2.325214222E1,6.062874794E-1,-1.815783381E-1,-1.416893005E-1
2.327002265E1,1.668152213E-1,-1.240312904E-1,2.112960815E-2
2.328792542E1,-5.337609053E-1,-5.851340294E-2,-1.324367523E-2
2.330582196E1,3.439103365E-1,-1.530711353E-1,1.113262177E-1
2.332371112E1,9.718610644E-1,-3.529400826E-1,-2.605791092E-1
2.334160254E1,1.099896207E-1,-2.434057593E-1,1.642093658E-1
2.335949359E1,1.714290529E-1,1.709933877E-1,6.745109558E-1
2.337736988E1,5.140225887E-1,-2.384044081E-1,-2.049837112E-1
2.339527631E1,-9.458574653E-1,-2.233069539E-1,-5.460348129E-1
2.341316742E1,4.731935561E-1,7.110595107E-1,4.739112854E-1
2.343105908E1,1.044590950E0,1.366295218E-1,-3.645114899E-1
2.344893860E1,-1.144693851E0,-7.176383734E-1,-5.162267685E-1
2.346684186E1,-4.758378267E-1,4.613824487E-1,1.873464584E-1
2.348473261E1,1.104865670E0,2.036033124E-1,2.444477081E-1
2.350261756E1,1.019159257E-1,-3.570280373E-1,-7.697935104E-1
2.352051520E1,-7.755106091E-1,1.793229729E-1,-8.382606506E-2
2.353840247E1,-1.640421450E-1,-7.906234264E-2,-2.143049240E-1
2.355629785E1,3.560454845E-1,-4.707880020E-1,-3.338747025E-1
2.357418909E1,2.330335826E-1,9.324018657E-2,5.023908615E-1
2.359208002E1,-5.295945406E-1,2.012542039E-1,-1.246623993E-1
2.360996887E1,-4.314672947E-1,-5.438138843E-1,-4.671783447E-1
2.362785974E1,5.011487007E-1,-1.809998453E-1,1.891517639E-2
2.364575415E1,2.617673576E-1,2.707291842E-1,2.295694351E-1
2.366363214E1,-1.131443024E0,-4.389307499E-1,-3.412532806E-1
2.368153681E1,-4.593673348E-1,-2.908177376E-1,4.252147675E-1
2.369942798E1,9.839971066E-1,2.125767916E-1,5.233697891E-1
2.371731952E1,3.047622740E-2,-5.991349816E-1,-5.623722076E-1
2.373519623E1,-1.230568171E0,1.247611642E-2,-5.143022537E-1
2.375309046E1,-5.068559647E-1,1.759951711E-1,2.078189850E-1
2.377098151E1,8.809266090E-1,-4.104657769E-1,-1.767578125E-1
2.378887256E1,7.883175611E-1,2.769279480E-2,-3.252773285E-1
2.380676319E1,-8.978826404E-1,1.813685447E-1,9.858036041E-2
2.382466700E1,-8.008307219E-1,1.691353321E-2,-4.760255814E-1
2.384255829E1,1.046551824E0,-5.565039814E-2,-1.804256439E-1
2.386043470E1,7.142513990E-1,6.398767233E-2,-1.410989761E-1
2.387834101E1,-8.456384540E-1,-9.575078636E-2,3.804540634E-1
2.389623194E1,-4.085288942E-1,-1.219293624E-1,-1.832618713E-1
2.391412323E1,7.185421586E-1,-6.135164201E-2,-3.420104980E-1
2.393201465E1,4.355623126E-1,-1.846197993E-1,3.406267166E-1
2.394990595E1,1.025229245E-1,3.008997440E-2,5.886173248E-2
2.396779706E1,-5.044838190E-1,-5.082713366E-1,-5.510330200E-1
2.398568872E1,-1.491726637E-1,-1.944012642E-1,8.827304840E-2
2.400357972E1,7.847723365E-1,4.265058637E-1,4.132843018E-1
2.402146729E1,1.524575055E-3,-5.066860914E-1,-2.949666977E-1
2.403936218E1,-9.086772203E-1,-4.523112178E-1,-4.053640366E-1
2.405725354E1,2.906793952E-1,3.959816098E-1,7.710523605E-1
2.407514496E1,9.994950891E-1,-5.152065754E-1,-7.186889648E-3
2.409302796E1,-2.419330478E-1,-5.018687248E-1,-3.130178452E-1
2.411091376E1,-1.073590040E0,4.180200696E-1,9.429702759E-1
2.412881879E1,2.804421186E-1,9.842942655E-2,1.758556366E-1
2.414670825E1,1.170912504E0,-7.051701546E-1,-1.016343117E0
2.416460126E1,4.730482399E-1,2.709736228E-1,8.025684357E-1
2.418249262E1,-7.764294147E-1,3.759985268E-1,2.846870422E-1
2.420039032E1,-6.435275078E-3,-5.222659707E-1,-6.548147202E-1
2.421827533E1,2.016314268E0,-3.947038949E-2,3.662557602E-1
2.423616645E1,1.171215296E0,-2.258239686E-2,5.079984665E-1
2.425405780E1,-8.747531176E-1,-5.927733183E-1,-6.235055923E-1
2.427193750E1,-4.835103750E-1,1.583147943E-1,-2.458581924E-1
2.428984052E1,1.614027023E0,1.133114100E-1,3.991832733E-1
2.430773169E1,1.236800909E0,-5.079061985E-1,-1.981735229E-2
2.432562274E1,-1.075677276E0,-4.384115338E-3,-2.467966080E-1
2.434351441E1,-5.894304514E-1,1.840751022E-1,2.656450272E-1
2.436140558E1,2.002913475E0,-1.511275768E-1,-3.604602814E-1
2.437929688E1,1.696858883E0,-2.104552090E-1,-1.632709503E-1
2.439718793E1,-1.817494929E-1,3.916027844E-1,2.075738907E-1
2.441507935E1,-1.192729920E-3,2.297312021E-2,-4.426832199E-1
2.443297095E1,1.593668342E0,-2.659545541E-1,-3.817358017E-1
2.445086200E1,1.386775374E0,1.394785941E-2,2.935752869E-1
2.446875312E1,4.387467206E-1,1.772378087E-1,3.310298920E-2
2.448664063E1,5.665490031E-1,3.347592950E-1,5.042934418E-2
2.450453552E1,7.876899242E-1,-1.416511387E-1,-5.574588776E-1
2.452242719E1,1.233422518E0,1.620766222E-1,-2.420425415E-2
2.454030652E1,1.236905932E0,3.341342807E-1,5.705804825E-1
2.455820966E1,3.816925734E-2,-2.795660496E-1,-3.472127914E-1
2.457610108E1,2.613018267E-2,-6.266473979E-2,-1.199064255E-1
2.459399475E1,1.192178488E0,2.176281661E-1,5.504579544E-1
2.461188642E1,8.238317370E-1,-3.093760014E-1,-4.814100266E-1
2.462977484E1,-3.851878271E-2,-2.477058321E-1,8.295726776E-2
2.464766614E1,3.915236592E-1,3.844691813E-1,7.759218216E-1
2.466555732E1,1.639971435E-1,-5.422467589E-1,-3.818740845E-1
2.468344867E1,6.271228194E-1,-4.354206920E-1,4.303646088E-2
2.470133997E1,9.563505650E-1,5.272018909E-1,1.037322998E0
2.471923114E1,-3.147190809E-1,-3.995521367E-1,-8.261079788E-1
2.473712226E1,-3.546485007E-1,-3.864373267E-1,8.337974548E-2
2.475501361E1,8.096002936E-1,5.041668415E-1,4.293708801E-1
2.477289356E1,9.504975080E-1,-1.948144436E-1,2.349109650E-1
2.479079639E1,-4.989224076E-1,-5.646257997E-1,-7.552061081E-1
2.480868744E1,-4.433915019E-1,4.779313803E-1,6.846189499E-1
2.482657880E1,8.361750245E-1,9.852522612E-2,1.363286972E-1
2.484447101E1,5.595353842E-1,-5.642190576E-1,-5.840044022E-1
2.486236121E1,-4.764302671E-1,2.061673105E-1,6.575431824E-1
2.488024012E1,-2.507858574E-1,2.921774983E-1,4.980154037E-1
2.489814514E1,4.163167477E-1,-7.933061719E-1,-7.815437317E-1
2.491603559E1,2.356695086E-1,-1.011534035E-1,-1.151933670E-1
2.493392725E1,-2.303215563E-1,2.354915738E-1,8.529348373E-1
2.495181787E1,-2.284175251E-3,-4.163383842E-1,-4.699573517E-1
2.496970948E1,3.328005373E-1,-3.767674267E-1,-4.450941086E-1
2.498760053E1,-1.711960137E-2,1.419624984E-1,5.541105270E-1
2.500547968E1,-2.982597798E-2,-1.483782232E-1,-1.439895630E-1
2.502338593E1,3.168281913E-1,-3.608022034E-1,-3.614826202E-1
2.504127454E1,2.540379949E-2,4.462222755E-2,1.030597687E-1
2.505916547E1,-2.174087465E-1,5.462170392E-2,1.503162384E-1
2.507705683E1,1.952477098E-1,-1.669972986E-1,-5.399723053E-1
2.509494818E1,2.438192964E-1,-3.955580294E-3,-1.471710205E-1
2.511283930E1,-4.453880712E-2,3.954863548E-2,3.447971344E-1
2.513071869E1,1.728510559E-1,-9.984945506E-2,-6.191844940E-1
2.514862195E1,1.400980949E-1,-3.434470594E-1,-5.751018524E-1
2.516651312E1,3.135271072E-1,1.957358271E-1,4.627456665E-1
2.518440448E1,4.627531171E-1,1.526064426E-2,2.970886230E-2
2.520229785E1,-1.487013698E-1,-6.614943743E-1,-8.593244553E-1
2.522017524E1,1.552281976E-1,1.337803602E-1,3.068571091E-1
2.523807532E1,9.601491690E-1,3.402917683E-1,4.209308624E-1
2.525596668E1,2.455902100E-1,-7.065446377E-1,-8.444995880E-1
2.527386127E1,-4.501574039E-1,-2.179220021E-1,-1.031303406E-2
2.529175232E1,8.201985359E-1,4.370580316E-1,7.306365967E-1
2.530964374E1,1.331565022E0,-5.092397928E-1,-3.465213776E-1
2.532753485E1,-1.573705226E-1,-6.992548704E-1,-7.130746841E-1
2.534542475E1,-8.375124335E-1,6.742103696E-1,2.786397934E-1
2.536331732E1,4.484810233E-1,-7.320298254E-2,-2.626018524E-1
2.538120862E1,1.807263732E0,-1.283466071E-1,-1.609230042E-2
2.539909998E1,3.061434031E-1,5.608373135E-2,2.751922607E-1
2.541699445E1,-1.247881532E0,-1.561861485E-2,-2.138195038E-1
2.543488251E1,1.768966913E-1,-1.219807416E-1,-4.039659500E-1
2.545277387E1,1.817526221E0,2.459562570E-2,2.449970245E-1
2.547066828E1,6.407853961E-1,6.500081718E-2,2.788286209E-1
2.548855628E1,-8.518023491E-1,-2.086305618E-1,-3.302354813E-1
2.550644794E1,1.099465042E-2,-1.126277223E-1,-1.490707397E-1
2.552433881E1,1.308959126E0,5.320088565E-2,1.536064148E-1
2.554223017E1,5.692501664E-1,-3.922963142E-1,-2.110376358E-1
2.556011017E1,-1.066181213E-1,-1.503888667E-1,-4.536628723E-3
2.557800989E1,4.270772338E-1,1.379641891E-1,1.911191940E-1
2.559590430E1,6.163798571E-1,-2.690824866E-1,-2.294912338E-1
2.561379529E1,2.087912858E-1,-1.086440012E-1,-1.643085480E-2
2.563168701E1,2.385976613E-1,1.237069517E-1,2.035579681E-1
2.564957807E1,3.716421127E-1,-1.526158452E-1,-9.387397766E-2
2.566746832E1,5.139005780E-1,-4.537861049E-2,1.013574600E-1
2.568536084E1,2.083304524E-1,1.250995398E-1,-2.437849045E-1
2.570325190E1,-3.373755515E-2,-7.920400798E-2,-4.547119141E-3
2.572114325E1,8.177548051E-1,2.933294475E-1,5.682468414E-2
2.573903437E1,6.508257389E-1,-1.071758047E-1,2.269363403E-1
2.575691699E1,-3.546628356E-1,-2.822239399E-1,-4.894523621E-1
2.577480542E1,2.288522273E-1,6.877917051E-2,2.818889618E-1
2.579270819E1,9.618712664E-1,4.557804018E-2,4.225826263E-1
2.581059961E1,2.589575052E-1,-5.026203990E-1,-8.249759674E-2
2.582849091E1,-6.170509458E-1,-3.029668033E-1,2.026557922E-3
2.584638196E1,1.249963045E-1,-1.348336041E-1,2.584075928E-1
2.586427338E1,1.030927062E0,-3.356223106E-1,2.727413177E-2
2.588215937E1,3.411623836E-1,-1.605773568E-1,1.010093689E-1
2.590003992E1,-6.266804934E-1,-1.074468419E-1,1.801872253E-1
2.591794428E1,1.714816689E-2,-2.957117558E-1,-1.976051331E-1
2.593584149E1,9.728870392E-1,-2.054697871E-1,3.223896027E-2
2.595372992E1,5.960881710E-1,2.103832960E-1,2.781887054E-1
2.597162134E1,-6.604735851E-1,-9.362633526E-2,-1.785173416E-1
2.598951239E1,-4.359889030E-1,-2.508416176E-1,-9.807872772E-2
2.600740668E1,1.027968049E0,1.744393706E-1,2.776098251E-1
2.602529486E1,8.650096655E-1,-7.367711514E-2,7.943344116E-2
2.604318561E1,-5.716093779E-1,-2.736202478E-1,-3.557968140E-1
2.606107770E1,-4.072211385E-1,2.350243032E-1,3.089599609E-1
2.607897022E1,1.031948447E0,1.726405323E-1,9.493160248E-2
2.609686017E1,9.638544321E-1,-3.818823695E-1,-3.721418381E-1
2.611475141E1,-2.194016278E-1,3.079379797E-1,3.842191696E-1
2.613264246E1,-4.289752245E-1,1.234878078E-1,-1.116275787E-2
2.615053107E1,7.717952132E-1,-2.187163532E-1,-3.881139755E-1
2.616842517E1,9.082842469E-1,-3.103186190E-2,3.180265427E-1
2.618631684E1,-7.058545947E-3,2.455215752E-1,1.578950882E-1
2.620420777E1,-1.992523372E-1,-3.989968896E-1,-6.745252609E-1
2.622210041E1,6.225277781E-1,-1.752715409E-1,-2.919511795E-1
2.623999042E1,1.080869675E0,1.675369442E-1,6.570539474E-1
2.625787982E1,2.585072219E-1,-8.194386959E-2,-4.202022552E-1
2.627577600E1,-6.272013187E-1,-3.623855412E-1,-3.183202744E-1
2.629366431E1,4.747350812E-1,4.757086039E-1,4.687366486E-1
2.631155561E1,1.284343719E0,-2.534599230E-2,-7.291603088E-2
2.632944696E1,-8.572145551E-2,-4.235384464E-1,-6.061201096E-1
2.634733808E1,-5.781337023E-1,2.959752381E-1,4.306869507E-1
2.636522943E1,5.946224928E-1,7.416979969E-2,1.771860123E-1
2.638312073E1,8.532586098E-1,-4.751706719E-1,-5.837621689E-1
2.640101209E1,-9.127909690E-2,-7.810667157E-4,2.757616043E-1
2.641890326E1,-3.078799844E-1,2.329563051E-1,4.389200211E-1
2.643679767E1,4.013225436E-1,-4.387421906E-1,-3.677806854E-1
2.645468622E1,6.114047170E-1,-1.179031283E-1,1.651611328E-1
2.647258057E1,6.576436758E-2,2.537312508E-1,4.983406067E-1
2.649046851E1,-2.524085045E-1,-3.614656329E-1,-3.574380875E-1
2.650835950E1,4.241249263E-1,-2.456328571E-1,-1.253032684E-2
2.652625092E1,6.398265362E-1,3.053048849E-1,4.834318161E-1
2.654414234E1,-2.548532188E-1,-9.011674672E-2,-3.681144714E-1
2.656203632E1,6.513149291E-2,-7.683650851E-1,-5.426483154E-1
2.657992426E1,9.865553379E-1,2.098146528E-1,7.535448074E-1
2.659780713E1,3.208506703E-1,-8.555158228E-2,2.669429779E-2
2.661571021E1,-6.329733729E-1,-4.639363885E-1,-8.344488144E-1
2.663358680E1,2.359788567E-1,2.561598718E-1,4.857845306E-1
2.665149012E1,1.088747621E0,-1.365335286E-2,4.981517792E-2
2.666938129E1,-7.954301685E-2,-4.414629936E-1,-7.043628693E-1
2.668727240E1,-6.090178490E-1,1.009761095E-1,-6.855964661E-3
2.670516382E1,5.078325868E-1,2.346132398E-1,3.287563324E-1
2.672305310E1,9.122597575E-1,-3.702788055E-1,-5.036039352E-1
2.674094666E1,-1.462017000E-1,-1.340575069E-1,-3.412647247E-1
2.675883753E1,-5.562402010E-1,1.583575010E-1,1.256551743E-1
2.677673212E1,4.650719464E-1,-1.931633651E-1,-2.172021866E-1
2.679462024E1,1.022816420E0,-2.857118249E-1,-2.741842270E-1
2.681251166E1,-1.394230723E-1,-4.799997434E-2,-4.465293884E-2
2.683040284E1,-6.495692134E-1,-1.122827083E-2,-1.774311066E-2
2.684829401E1,4.033454359E-1,-5.146095902E-2,-2.973699570E-1
2.686618524E1,7.766079903E-1,1.391477138E-2,-3.409767151E-2
2.688407502E1,-1.953376383E-1,9.555517137E-2,9.462833405E-2
2.690196820E1,-5.875300169E-1,-1.075653508E-1,-3.650054932E-1
2.691985926E1,3.775668144E-1,-1.158061549E-1,-1.995716095E-1
2.693775043E1,5.918612480E-1,8.503153175E-2,1.988306046E-1
2.695564313E1,-2.774130404E-1,8.469364792E-2,1.199531555E-1
2.697352069E1,-2.987573743E-1,3.570990264E-2,-1.750898361E-1
2.699141278E1,2.498122156E-1,-5.706825107E-2,-1.052160263E-1
2.700931208E1,2.433692813E-1,7.556240261E-2,1.240692139E-1
2.702719587E1,1.173513681E-1,3.441327065E-2,9.483146667E-2
2.704509833E1,1.530358791E-1,-7.515273988E-2,-1.183815002E-1
2.706298950E1,2.939009964E-1,-1.689338088E-1,1.628780365E-2
2.708088098E1,4.235361814E-1,-1.082804948E-1,-1.032094955E-1
2.709876410E1,4.537687302E-1,-1.903822720E-1,-1.422853470E-1
2.711666358E1,4.268842936E-1,1.531237066E-1,3.333225250E-1
2.713455487E1,3.386838436E-1,-5.553364009E-2,-1.946048737E-1
2.715244599E1,2.533031404E-1,-3.183802068E-1,-2.463912964E-1
2.717033740E1,5.603460073E-1,-2.322823927E-2,4.142475128E-2
2.718822840E1,6.437399983E-1,9.466988593E-2,1.831645966E-1
2.720611982E1,6.373366714E-2,-1.920213103E-1,-3.811197281E-1
2.722401142E1,-3.798835278E-1,-1.134477854E-1,-2.231836319E-1
2.724190253E1,6.458595991E-1,2.620177269E-1,3.084049225E-1
2.725979358E1,9.090045094E-1,-7.490982115E-2,-2.812833786E-1
2.727768817E1,-3.420520127E-1,-3.905466795E-1,-4.637393951E-1
2.729557660E1,-3.929103017E-1,3.340614140E-1,2.100925446E-1
2.731346772E1,5.279581547E-1,3.651925921E-2,-9.263992310E-3
2.733135877E1,6.845680475E-1,-2.114302814E-1,-6.088142395E-1
2.734923822E1,-1.637849063E-1,2.789317369E-1,5.518102646E-1
2.736714014E1,-2.122256756E-1,4.148048908E-2,2.072734833E-1
2.738503290E1,3.326418996E-1,-4.856208563E-1,-5.047006607E-1
2.740292401E1,6.296074390E-1,6.108333170E-2,5.581903458E-1
2.742081556E1,1.746684462E-1,8.497419953E-2,4.080219269E-1
2.743870655E1,-3.521654308E-1,-4.640142322E-1,-4.151706696E-1
2.745659809E1,-4.846979678E-2,-1.456871033E-1,8.236217499E-2
2.747448920E1,5.915402770E-1,3.537009954E-1,6.383275986E-1
2.749238129E1,1.112117767E-1,-2.867162824E-1,-2.876472473E-2
2.751025702E1,-4.569410980E-1,-3.185771704E-1,2.257108688E-1
2.752816596E1,1.718932390E-1,3.113360703E-1,6.150398254E-1
2.754605438E1,4.475781322E-1,-1.490145028E-1,2.489757538E-2
2.756394513E1,-8.582784981E-2,-4.096388519E-1,-1.228618622E-2
2.758183680E1,-3.964415193E-2,3.538281322E-1,5.530929565E-1
2.759972815E1,2.217373252E-1,6.852976978E-3,-1.024236679E-1
2.761761963E1,-9.483262897E-3,-3.056367636E-1,-3.291349411E-1
2.763551068E1,-2.506696582E-1,1.033695564E-1,3.610448837E-1
2.765340204E1,1.010428593E-1,7.676743716E-2,1.127843857E-1
2.767129346E1,1.142773107E-1,-3.403469324E-1,-5.012569427E-1
2.768918476E1,-2.922209203E-1,-1.038242206E-1,7.415199280E-2
2.770707471E1,-2.197141051E-1,8.182612062E-2,1.591663361E-1
2.772496717E1,8.554624021E-2,-3.073157370E-1,-4.384880066E-1
2.774285858E1,2.489500791E-1,-1.136711091E-1,-7.451248169E-2
2.776074988E1,-9.202332795E-2,8.455722034E-2,1.304388046E-1
2.777864392E1,-3.160758018E-1,-2.333312929E-1,-2.653970718E-1
2.779653241E1,2.223187834E-1,-2.118884027E-1,-2.666492462E-1
2.781442316E1,4.951773882E-1,1.090823784E-1,1.629295349E-1
2.783231189E1,-1.656142175E-1,-9.642642736E-2,-2.010450363E-1
2.785019428E1,-2.943880260E-1,-1.315687299E-1,-3.248386383E-1
2.786809754E1,3.856558800E-1,2.080599070E-1,8.111000061E-2
2.788598896E1,2.874363065E-1,-6.370539963E-2,-1.833963394E-1
2.790388007E1,-2.479407787E-1,-1.141548008E-1,-2.764368057E-1
2.792177173E1,-6.392514706E-2,9.510696679E-2,2.500534058E-2
2.793966260E1,2.749851942E-1,2.493324876E-2,-1.779174805E-2
2.795755396E1,1.630759239E-1,-1.132104844E-1,-2.965593338E-1
2.797544525E1,-2.216781527E-1,-5.729488656E-2,-7.857704163E-2
2.799333698E1,-1.538045704E-1,-4.264207557E-2,-6.759929657E-2
2.801121625E1,2.081620395E-1,-1.193458885E-1,-1.784706116E-1
2.802910834E1,1.518029422E-1,-7.237143815E-2,-2.178764343E-2
2.804701367E1,-3.576163054E-1,-6.265845895E-2,-1.162576675E-1
2.806490155E1,-3.050777912E-1,-2.255661786E-1,-1.929769516E-1
2.808279291E1,3.691462278E-1,-5.939843133E-2,5.234336853E-2
2.810068744E1,1.174534112E-1,-3.222903609E-2,-4.661941528E-2
2.811857563E1,-4.730883837E-1,-1.994688511E-1,-1.419734955E-1
2.813646680E1,-7.741741836E-2,-1.191704422E-1,-3.506088257E-2
2.815435840E1,2.925301492E-1,-1.629919112E-1,-7.902336121E-2
2.817224939E1,-3.117231131E-1,-1.226067990E-1,-1.757488251E-1
2.819013275E1,-4.728235602E-1,2.527643368E-2,1.586389542E-1
2.820802918E1,2.174118459E-1,8.719153702E-2,-1.167392731E-2
2.822592023E1,2.129691541E-1,-2.196863592E-1,-2.533416748E-1
2.824381470E1,-3.372095227E-1,1.044728234E-2,-2.658481598E-1
2.826170600E1,-7.118665427E-2,1.099712700E-1,4.145402908E-1
2.827960102E1,2.891316116E-1,-1.237377822E-1,-6.351852417E-2
2.829748853E1,2.462733537E-1,-7.735238224E-2,2.055835724E-2
2.831536536E1,1.653236337E-3,1.956064999E-1,7.532024384E-2
2.833327118E1,-1.784459129E-2,-1.591589302E-1,-1.181831360E-1
2.835116254E1,4.733743370E-1,1.044783741E-2,5.277633667E-2
2.836904584E1,4.544932246E-1,2.094770372E-1,3.412322998E-1
2.838694788E1,-1.254616529E-1,-1.019819677E-1,-2.337255478E-1
2.840483637E1,-1.556952111E-2,-7.246911526E-3,-8.762836456E-2
2.842272742E1,5.312693715E-1,1.164183766E-1,1.089115143E-1
2.844061872E1,3.602589965E-1,-1.335893944E-2,-1.538658142E-2
2.845851020E1,-8.206336200E-2,-4.849838838E-2,-4.646492004E-2
2.847640137E1,2.493627518E-1,-7.254742086E-3,3.818674088E-1
2.849429291E1,3.992355168E-1,-3.913027048E-2,-3.571500778E-1
2.851218402E1,1.301985383E-1,1.717813313E-3,-4.137897491E-2
2.853007715E1,2.397772968E-1,2.724941969E-1,2.565441132E-1
2.854796350E1,3.651752770E-1,-8.644683659E-2,-1.064300537E-1
2.856585791E1,1.588302255E-1,-2.133710384E-1,-1.955299377E-1
2.858374921E1,2.193767726E-1,2.167308629E-1,2.387208939E-1
2.860164350E1,5.171161890E-1,8.814492077E-2,-1.251573563E-1
2.861953174E1,2.014407516E-1,-7.193291932E-2,-3.632020950E-1
2.863742310E1,-2.192176431E-1,4.703369141E-1,9.303951263E-2
2.865531440E1,2.097859234E-1,3.179270774E-2,3.184700012E-2
2.867320551E1,6.475586891E-1,-4.535376430E-1,-3.265790939E-1
2.869109687E1,1.571483016E-1,1.209006310E-1,3.518381119E-1
2.870897650E1,-1.815439463E-1,6.686961651E-2,1.343002319E-1
2.872687940E1,4.392272830E-1,-3.052986264E-1,-2.911386490E-1
2.874477069E1,5.321118236E-1,-2.696465328E-2,-7.946968079E-3
2.876266150E1,-3.774261847E-2,4.758518934E-2,1.753959656E-1
2.878055353E1,-7.036903501E-2,-1.317799687E-1,-2.035684586E-1
2.879844452E1,4.586137533E-1,-1.036462188E-2,-1.571083069E-2
2.881633594E1,5.382407904E-1,2.150569111E-1,2.343091965E-1
2.883422724E1,-1.070547700E-1,-1.349882185E-1,-1.819238663E-1
2.885211866E1,-3.665839136E-2,-9.269204736E-2,-1.109628677E-1
2.887001404E1,6.962202787E-1,1.819337159E-1,1.984920502E-1
2.888789942E1,3.565568328E-1,-1.819193810E-1,-1.245918274E-1
2.890579242E1,-1.479633451E-1,-1.649374142E-2,6.294536591E-2
2.892368378E1,2.370549440E-1,9.399683774E-2,1.224899292E-1
2.894157514E1,5.634279251E-1,-1.245980337E-1,-1.116800308E-1
2.895946619E1,1.970064193E-1,-8.256179094E-2,-4.169464111E-2
2.897735767E1,7.703702897E-2,1.152705774E-1,1.510791779E-1
2.899524897E1,3.903969526E-1,-1.837493479E-1,-1.266622543E-1
2.901314002E1,4.754899144E-1,-6.247914955E-2,-5.059337616E-2
2.903101996E1,2.845005393E-1,1.567209065E-1,2.146177292E-1
2.904891315E1,7.068966329E-2,-3.977189958E-2,-1.182880402E-1
2.906681421E1,2.784432173E-1,-9.315486997E-2,-1.183795929E-1
2.908470520E1,6.270072460E-1,1.318437904E-1,1.791791916E-1
2.910259638E1,2.582415044E-1,-1.172537953E-1,-8.069229126E-2
2.912048792E1,-3.203294426E-2,-5.423595011E-2,-6.210994720E-2
2.913837909E1,5.642057061E-1,1.904000342E-1,1.071424484E-1
2.915627051E1,6.357312202E-1,3.985489905E-2,-1.671791077E-3
2.917416175E1,-1.021784544E-2,-1.168544292E-1,-1.381340027E-1
2.919205316E1,1.530093849E-1,1.193574667E-1,1.711912155E-1
2.920994452E1,5.237251520E-1,1.624903083E-2,-5.367469788E-2
2.922783625E1,2.746804953E-1,-1.394013166E-1,-4.165840149E-2
2.924572693E1,1.662140936E-1,9.350199997E-2,1.047210693E-1
2.926360327E1,2.862000465E-1,-1.303496361E-1,-1.076488495E-1
2.928150965E1,3.469537199E-1,-1.359775513E-1,-5.505371094E-2
2.929940082E1,3.080153465E-1,4.991690442E-2,2.201662064E-1
2.931729218E1,1.990326047E-1,-9.461944550E-2,-8.999633789E-2
2.933518341E1,1.646716148E-1,-1.569488496E-1,-1.882858276E-1
2.935307776E1,3.854367733E-1,4.249741510E-2,6.430435181E-2
2.937096607E1,4.075093269E-1,-1.222494990E-3,-2.231884003E-2
2.938884601E1,1.907474697E-1,-1.695947647E-1,-2.524948120E-1
2.940674567E1,2.375420630E-1,5.341958627E-2,1.414871216E-2
2.942464008E1,4.152870774E-1,6.771381199E-2,-4.893302917E-2
2.944253119E1,4.045864344E-1,-5.704401806E-2,-3.107652664E-1
2.946042249E1,2.551444471E-1,8.326674998E-2,-1.287984848E-1
2.947831690E1,3.269723356E-1,8.624029905E-2,2.664566040E-2
2.949620502E1,4.770733714E-1,-8.156657219E-2,-2.711877823E-1
2.951409638E1,3.337341547E-1,2.294678614E-2,-1.275367737E-1
2.953198798E1,3.161818981E-1,1.597590148E-1,6.416225433E-2
2.954988044E1,4.539303184E-1,-4.742116109E-2,-2.219219208E-1
2.956777021E1,3.663728237E-1,-8.196868002E-2,-1.924266815E-1
2.958566156E1,2.811405957E-1,1.249415278E-1,8.253097534E-2
2.960355597E1,4.559339285E-1,3.731820732E-3,-1.148576736E-1
2.962144434E1,4.264052510E-1,-1.609301269E-1,-2.222328186E-1
2.963933564E1,3.074786365E-1,1.497305930E-1,7.926940918E-3
2.965722675E1,3.268699050E-1,1.551507711E-1,-3.165912628E-2
2.967510584E1,4.445511699E-1,-2.789971977E-2,-1.971483231E-1
2.969300946E1,4.304333925E-1,1.026623249E-1,-4.887485504E-2
2.971090088E1,1.993169487E-1,3.596719727E-2,-9.156227112E-3
2.972879193E1,2.459307760E-1,-8.089983463E-2,-1.328277588E-1
2.974666718E1,5.015280247E-1,8.080247790E-3,-9.877872467E-2
2.976457166E1,4.481266737E-1,7.829469442E-2,6.824684143E-2
2.978246582E1,1.259667873E-1,-1.825091988E-2,-1.807079315E-1
2.980034528E1,1.315434277E-2,-7.976952195E-2,-1.212711334E-1
2.981824848E1,5.093169808E-1,4.604281485E-2,6.011772156E-2
2.983613959E1,5.289809704E-1,-1.382248104E-1,-1.619749069E-1
2.985403089E1,-3.760635853E-3,-1.422133744E-1,-9.464168549E-2
2.987192231E1,7.390765846E-2,-1.710571907E-2,1.477499008E-1
2.988981409E1,5.457202196E-1,-2.348524332E-1,-1.190080643E-1
2.990770472E1,5.590432882E-1,-9.535560757E-2,8.154964447E-2
2.992559613E1,1.036132723E-1,1.076125726E-2,1.177587509E-1
2.994348743E1,7.884436846E-2,-1.470763087E-1,9.284114838E-2
2.996137885E1,5.237836242E-1,-1.047424674E-1,6.871986389E-2
2.997927338E1,5.526676178E-1,-3.256176040E-2,2.134256363E-1
2.999716132E1,1.949880123E-1,5.829006433E-3,8.184146881E-2
3.001505243E1,7.608945668E-2,-5.400975049E-2,8.133506775E-2
3.003294422E1,5.055303574E-1,8.513320982E-2,1.126632690E-1
3.005082373E1,4.982723296E-1,5.862992257E-3,-5.878925323E-2
3.006872650E1,2.709731460E-2,-5.336207896E-2,-4.533767700E-2
3.008661792E1,2.720513642E-1,1.492999494E-1,1.498117447E-1
3.010450916E1,5.478301644E-1,-7.831794024E-2,-1.111326218E-1
3.012238568E1,2.375148982E-1,-1.044221818E-1,-4.150009155E-2
3.014028284E1,1.970476061E-1,1.023908779E-1,1.403903961E-1
3.015817133E1,4.295374751E-1,-8.965744823E-2,-1.234951019E-1
3.017607447E1,5.356096029E-1,-2.618857622E-1,-8.096504211E-2
3.019396546E1,4.061928689E-1,-9.093666449E-3,1.988420486E-1
3.021184516E1,2.456092238E-1,-1.285742074E-1,-5.758190155E-2
3.022973755E1,3.614721000E-1,-1.952663362E-1,-8.398437500E-2
3.024762757E1,5.963941216E-1,8.596066386E-2,2.128105164E-1
3.026551630E1,2.707547545E-1,-4.669500887E-2,-4.537487030E-2
3.028342200E1,2.008190304E-1,-8.627671748E-2,-2.576828003E-2
3.030131366E1,6.653800607E-1,1.661445796E-1,1.538801193E-1
3.031920478E1,4.276155829E-1,-4.389449209E-2,-1.933002472E-2
3.033709595E1,1.045060307E-1,-9.656612575E-2,-9.179592133E-2
3.035498725E1,4.610224366E-1,2.954893708E-1,1.618022919E-1
3.037287854E1,6.030558348E-1,-5.674466863E-2,2.296829224E-2
3.039077002E1,2.287060320E-1,-7.850253582E-2,-2.052030563E-1
3.040866101E1,1.123094857E-1,1.164122671E-1,4.752540588E-2
3.042655243E1,5.306805372E-1,8.646692336E-2,-1.139602661E-1
3.044444385E1,5.355319381E-1,-1.979483515E-1,-3.017597198E-1
3.046232318E1,1.711969525E-1,1.249609292E-1,-3.244018555E-2
3.048021540E1,1.143585443E-1,3.251298890E-2,-7.987213135E-2
3.049811469E1,4.749221206E-1,-1.239209324E-1,-3.396606445E-1
3.051600574E1,4.336646199E-1,-6.117995828E-2,-1.138019562E-1
3.053390033E1,2.715559006E-1,8.649104834E-2,6.156730652E-2
3.055179200E1,2.211702168E-1,-1.485296935E-1,-3.120708466E-1
3.056968378E1,2.691044211E-1,-1.706874669E-1,-7.859230042E-2
3.058755970E1,5.036125779E-1,8.438159525E-2,1.424798965E-1
3.060546552E1,4.437006116E-1,-1.564299166E-1,-2.058153152E-1
3.062335663E1,6.820009649E-2,-2.008439600E-1,-1.656541824E-1
3.064123615E1,3.312919736E-1,1.104992777E-1,2.594165802E-1
3.065913910E1,5.499883294E-1,-8.873735368E-2,-1.487054825E-1
3.067703076E1,2.561847568E-1,-1.727343202E-1,-1.747674942E-1
3.069492206E1,1.608797610E-1,9.121109545E-2,1.631355286E-1
3.071281324E1,5.786933303E-1,3.796498850E-2,1.540412903E-1
3.073070453E1,4.081731737E-1,-2.326286137E-1,-3.873176575E-1
3.074859583E1,2.117452323E-1,9.498535097E-2,2.434844971E-1
3.076647229E1,3.759561181E-1,8.732934296E-2,1.560668945E-1
3.078437830E1,4.813109636E-1,-2.131229639E-1,-2.576122284E-1
3.080226990E1,3.486959934E-1,-8.047059178E-3,-2.293586731E-2
3.082014905E1,2.968555093E-1,1.235854775E-1,2.947645187E-1
3.083804926E1,3.417764902E-1,-2.586046457E-1,-1.643543243E-1
3.085594361E1,3.979023397E-1,-1.081487015E-1,1.662731171E-2
3.087383582E1,4.051378369E-1,4.708583653E-2,2.642860413E-1
3.089172327E1,3.111539483E-1,-1.034129709E-1,-5.300712585E-2
3.090961768E1,2.392418683E-1,-2.357192338E-1,-1.088171005E-1
3.092750898E1,5.021296740E-1,1.820482463E-1,3.052873611E-1
3.094540003E1,3.625290990E-1,-2.162605375E-1,-3.716659546E-2
3.096329145E1,1.421000808E-1,-6.699799001E-2,-7.185268402E-2
3.098118610E1,3.037993014E-1,3.121463954E-2,2.040777206E-1
3.099907416E1,5.162345171E-1,5.422715470E-2,8.855342865E-2
3.101696796E1,1.461953521E-1,-2.028614432E-1,-1.730623245E-1
3.103485657E1,1.824562103E-1,2.241318971E-1,8.591365814E-2
3.105274829E1,3.198134899E-1,3.253998607E-2,4.987716675E-4
3.107063941E1,1.795729846E-1,-1.141906530E-1,-2.025880814E-1
3.108851874E1,1.809168160E-1,8.067958057E-2,1.278696060E-1
3.110642206E1,3.588579297E-1,-2.857764810E-2,2.825450897E-2
3.112431281E1,2.538547218E-1,-6.357318163E-2,-1.254377365E-1
3.114219257E1,1.542824358E-1,-2.768062986E-2,9.186172485E-2
3.116008087E1,2.612217367E-1,-3.111824580E-2,4.073143005E-3
3.117798401E1,3.210542798E-1,-1.867711395E-1,-1.066093445E-1
3.119587836E1,3.261184096E-1,9.719021618E-4,7.155895233E-2
3.121376972E1,2.942658365E-1,3.288861364E-3,1.194887161E-1
3.123166083E1,2.174432874E-1,-1.344930828E-1,-1.681518555E-1
3.124954779E1,2.871592939E-1,-1.142822020E-2,4.726219177E-2
3.126744379E1,3.246767521E-1,2.173507959E-2,-1.750755310E-2
3.128533454E1,2.269436866E-1,-5.291745439E-2,-1.193809509E-1
3.130322602E1,2.066282928E-1,1.709732413E-2,-5.229091644E-2
3.132111756E1,3.425920606E-1,-1.172529906E-2,5.614471436E-2
3.133900879E1,3.367361724E-1,-4.479010776E-2,-1.406831741E-1
3.135690296E1,2.261188328E-1,1.050830260E-2,1.599884033E-2
3.137478809E1,3.340749145E-1,6.785729527E-2,4.487037659E-2
3.139268262E1,1.189723462E-1,-5.051299930E-2,-1.894416809E-1
3.141057404E1,8.122669160E-2,-3.454944864E-2,-6.954860687E-2
3.142846521E1,4.065741301E-1,1.731116325E-1,1.110506058E-1
3.144635639E1,2.868080139E-1,-1.268036366E-1,-1.776494980E-1
3.146425086E1,5.606268346E-2,6.532812119E-2,-7.129478455E-2
3.148213037E1,1.091468930E-1,1.204232275E-1,7.543468475E-2
3.150003046E1,2.849733829E-1,-1.663488150E-2,-3.312587738E-2
3.151791883E1,2.512984872E-1,-6.857995689E-2,-1.070842743E-1
3.153581616E1,6.327679753E-2,2.224859223E-2,4.806995392E-2
3.155370453E1,7.748092711E-2,-2.938557975E-2,-8.308124542E-2
3.157159577E1,2.319199592E-1,-1.578234881E-1,-1.418952942E-1
3.158948706E1,3.504210711E-1,-7.408230752E-2,1.421947479E-1
3.160737812E1,2.662059665E-1,3.757393360E-2,-8.232784271E-2
3.162526941E1,2.614648938E-1,-4.835268483E-2,-6.443309784E-2
3.164316077E1,5.111767054E-1,-1.887918562E-1,-2.734947205E-2
3.166105213E1,4.902327359E-1,-2.760896087E-2,-5.621051788E-2
3.167894324E1,1.049529612E-1,-9.726510942E-2,-6.555557251E-2
3.169683881E1,1.528417468E-1,3.913246095E-2,2.062892914E-2
3.171472602E1,4.004635215E-1,-3.740878031E-2,1.937789917E-1
3.173261713E1,2.492107749E-1,-3.186891973E-1,4.247760773E-2
3.175050849E1,2.362692505E-1,5.806211382E-3,9.242248535E-2
3.176839704E1,3.542568684E-1,6.135931239E-2,1.371030807E-1
3.178629126E1,2.962867916E-1,-1.964265406E-1,2.911758423E-2
3.180418256E1,2.292794287E-1,-6.828404218E-2,4.167938232E-2
3.182207721E1,1.636340767E-1,-1.724570394E-1,1.692018509E-1
3.183996234E1,3.144260645E-1,-1.608719677E-1,-6.879425049E-2
3.185785511E1,3.000451326E-1,-5.500728637E-2,2.013082504E-1
3.187575049E1,1.570526510E-1,-3.542527929E-2,1.565828323E-1
3.189363910E1,2.713346779E-1,-9.218770266E-2,7.306861877E-2
3.191153022E1,2.395008206E-1,-7.694724947E-2,5.974674225E-2
3.192942163E1,2.197066545E-1,-6.182491779E-4,1.775856018E-1
3.194731293E1,3.292983174E-1,-1.439579204E-2,4.016304016E-2
3.196520404E1,2.100903690E-1,-3.129994124E-2,1.223077774E-1
3.198309565E1,1.179013848E-1,1.149475276E-1,1.873130798E-1
3.200098700E1,3.312777877E-1,5.474216864E-2,8.489227295E-2
3.201887818E1,3.855993152E-1,-8.664009720E-2,-1.348590851E-2
3.203677387E1,2.377634048E-1,3.452711180E-2,1.517820358E-1
3.205466083E1,2.375048399E-1,8.790829778E-2,1.795425415E-1
3.207255200E1,2.717207670E-1,-1.465296745E-1,-1.209669113E-1
3.209044629E1,2.877599597E-1,2.742676809E-2,9.074306488E-2
3.210833460E1,3.183808923E-1,1.681972295E-3,1.309165955E-1
3.212622602E1,2.977219224E-1,-1.174114048E-1,-1.322393417E-1
3.214411713E1,2.550765872E-1,-6.626477838E-2,9.642982483E-2
3.216200843E1,2.991060019E-1,4.013068229E-2,1.564979553E-2
3.217989832E1,3.756860495E-1,-8.144563437E-2,-7.794094086E-2
3.219779474E1,2.849224210E-1,-5.281326175E-2,-3.433322906E-2
3.221568524E1,1.393801570E-1,7.639523596E-3,1.283264160E-2
3.223357367E1,2.641623914E-1,2.213702723E-2,-5.654811859E-2
3.225146503E1,3.034525812E-1,-9.256955981E-2,-1.396961212E-1
3.226934284E1,2.435960472E-1,8.996842802E-2,-5.795097351E-2
3.228724750E1,1.396823525E-1,-3.923249245E-2,-4.115486145E-2
3.230513880E1,1.601358205E-1,-7.333067060E-2,-2.301168442E-1
3.232303028E1,2.683492899E-1,8.730888367E-4,-6.547832489E-2
3.234090491E1,3.350612521E-1,1.658948511E-2,-2.082729340E-2
3.235881275E1,1.176601946E-1,-8.555182815E-2,-1.967363358E-1
3.237670398E1,3.793478012E-2,-5.768266320E-2,-8.869743347E-2
3.239459540E1,3.035532832E-1,5.670517311E-2,2.778053284E-3
3.241248670E1,3.583656847E-1,-1.369308233E-1,-1.199836731E-1
3.243037818E1,1.887147129E-2,-1.142345965E-1,-1.192369461E-1
3.244826917E1,7.533061504E-2,7.663093507E-3,3.667640686E-2
3.246616052E1,3.245802820E-1,-2.306910232E-2,1.588249207E-2
3.248405194E1,1.162305772E-1,-1.433273852E-1,-6.400394440E-2
3.250194330E1,7.883667946E-2,1.069031358E-1,6.664466858E-2
3.251983441E1,1.882568598E-1,-1.918793097E-2,-9.778785706E-2
3.253772583E1,9.341600537E-2,-1.081360877E-1,-1.749973297E-1
3.255561969E1,2.392909229E-1,7.910721749E-2,1.652812958E-1
3.257350849E1,2.142841518E-1,-2.172807604E-2,-8.211612701E-2
3.259140283E1,-5.102272332E-2,-1.166807860E-1,-1.086921692E-1
3.260929096E1,1.817979217E-1,1.561814994E-1,1.251564026E-1
3.262717926E1,3.425697088E-1,2.488846704E-2,-2.627563477E-2
3.264507367E1,-3.715516627E-2,-1.764503121E-1,-1.910285950E-1
3.266296497E1,-3.449787199E-2,9.066699445E-2,9.355258942E-2
3.268085639E1,2.870172262E-1,4.237164184E-2,2.268028259E-2
3.269874750E1,1.926447153E-1,-2.268746644E-1,-1.633510590E-1
3.271663886E1,1.089940965E-1,8.412297070E-2,8.740425110E-2
3.273452997E1,3.461912274E-2,-3.249928728E-2,-2.775287628E-2
3.275240955E1,6.600150466E-2,-2.419579029E-1,-1.310052872E-1
3.277031568E1,3.386461735E-1,-4.722263291E-2,8.459472656E-2
3.278820422E1,3.066621423E-1,-8.871127665E-2,1.019592285E-1
3.280609540E1,-1.704106331E-1,-1.594688594E-1,-5.334186554E-2
3.282398682E1,2.763557434E-2,2.873693034E-2,1.491785049E-1
3.284187787E1,4.247806370E-1,7.178407162E-3,8.824729919E-2
3.285976917E1,3.581300378E-3,-1.631841213E-1,-1.495056152E-1
3.287766034E1,-1.992768496E-1,8.423435688E-2,2.033939362E-1
3.289555194E1,1.821422428E-1,5.333247036E-2,1.092414856E-1
3.291344330E1,2.776695490E-1,-1.638629735E-1,-1.093444824E-1
3.293133466E1,-4.501472414E-2,5.182445049E-2,1.550426483E-1
3.294922583E1,-6.099404395E-2,3.654727712E-2,7.806396484E-2
3.296711701E1,2.500569224E-1,-5.539213493E-2,-1.451015472E-2
3.298500824E1,9.340269864E-2,-1.790349931E-2,-7.042884827E-3
3.300289661E1,-1.236467063E-2,9.235817194E-2,2.007007599E-1
3.302079114E1,7.178208977E-2,-1.004475355E-1,-1.327543259E-1
3.303868225E1,1.276253015E-1,-1.025390103E-1,-2.964401245E-2
3.305657367E1,2.373140156E-1,1.982609630E-1,2.421007156E-1
3.307446509E1,4.492930323E-2,-7.268470526E-2,-1.510801315E-1
3.309235938E1,-7.521086931E-2,-1.168530136E-1,-8.702659607E-2
3.311023584E1,3.104356229E-1,1.448374391E-1,2.909021378E-1
3.312812714E1,3.241555691E-1,-4.374534637E-2,-6.996822357E-2
3.314603022E1,-2.295057327E-1,-1.747332960E-1,-1.991386414E-1
3.316392444E1,-3.084287047E-3,2.184351385E-1,2.609701157E-1
3.318181262E1,4.934550524E-1,7.548163831E-2,-5.555915833E-2
3.319970404E1,4.166969657E-2,-2.176069617E-1,-2.935104370E-1
3.321759546E1,-1.977696270E-1,1.181733012E-1,1.508026123E-1
3.323548188E1,2.271858752E-1,5.120041221E-2,3.946208954E-2
3.325337781E1,2.305212021E-1,-2.999241948E-1,-3.643817902E-1
3.327126917E1,8.861671388E-2,2.002690360E-2,8.896446228E-2
3.328916162E1,1.028765142E-1,9.588798136E-2,6.484603882E-2
3.330705469E1,-3.960143030E-2,-2.892727852E-1,-4.638938904E-1
3.332494306E1,1.002902165E-1,-9.302962571E-3,8.923721313E-2
3.334283472E1,3.222393990E-1,1.573843211E-1,1.400499344E-1
3.336071472E1,-2.748966217E-3,-2.985587120E-1,-3.772373199E-1
3.337861743E1,-1.530473381E-1,-2.820216119E-3,-4.336547852E-2
3.339650519E1,1.508569121E-1,1.652470827E-1,1.708078384E-1
3.341439978E1,1.576469243E-1,-1.711764038E-1,-3.063735962E-1
3.343227954E1,-1.174825579E-1,-8.326786757E-2,-1.137046814E-1
3.345017054E1,-4.824642837E-2,2.135142088E-1,2.678689957E-1
3.346806397E1,6.189338863E-2,-1.571006179E-1,-1.154451370E-1
3.348596497E1,5.278721452E-3,-1.093346849E-1,-1.332044601E-1
3.350385614E1,1.555691659E-2,1.288869977E-1,2.455158234E-1
3.352174750E1,-3.994852304E-3,-2.563796751E-2,-8.208560944E-2
3.353963886E1,-5.957880616E-2,-1.884593070E-1,-1.110506058E-1
3.355753003E1,4.998800159E-2,3.485398367E-2,2.078733444E-1
3.357542133E1,-1.763819158E-2,-9.032262862E-2,7.965087891E-2
3.359331269E1,-2.405497283E-1,-2.342895418E-1,-1.412429810E-1
3.361120380E1,1.204140484E-2,6.493598223E-2,1.500263214E-1
3.362908344E1,7.066757977E-2,-6.889854372E-2,2.564811707E-2
3.364698944E1,-2.365201116E-1,-2.780413628E-1,-1.435985565E-1
3.366487793E1,-1.302804649E-1,5.098364502E-2,1.398572922E-1
3.368276923E1,1.579835415E-1,-5.839537829E-2,1.915388107E-1
3.370066059E1,-8.582025766E-2,-2.148151100E-1,-2.381601334E-1
3.371855170E1,-2.635745406E-1,3.534156829E-2,1.406831741E-1
3.373644306E1,-3.895036131E-2,1.583281904E-3,1.963319778E-1
3.375433417E1,1.758883148E-2,-1.506811976E-1,-2.461967468E-1
3.377222577E1,-4.398959875E-2,7.710140198E-3,1.361970901E-1
3.379011005E1,-9.036374092E-2,7.124046236E-2,8.458328247E-2
3.380800531E1,-2.370227277E-1,-1.699863821E-1,-1.930828094E-1
3.382589960E1,-7.086843252E-2,4.161182418E-2,1.164789200E-1
3.384379096E1,7.722890377E-2,9.422320873E-2,1.110572815E-1
3.386168225E1,-1.738557220E-1,-1.386777759E-1,-1.489219666E-1
3.387957166E1,-2.240779549E-1,1.703934744E-2,2.404689789E-2
3.389746485E1,-3.499767184E-2,7.120874524E-2,1.427459717E-2
3.391535614E1,-5.069104582E-2,-8.119013160E-2,-5.789089203E-2
3.393324756E1,-1.169395819E-1,-3.713665158E-2,-4.108810425E-2
3.395113581E1,-6.659077853E-2,1.360663027E-2,7.091140747E-2
3.396902198E1,-1.604335606E-1,-7.701031119E-2,-1.211919785E-1
3.398692450E1,-2.098932415E-1,-5.540435761E-2,-8.855915070E-2
3.400481269E1,6.915758550E-2,9.388746321E-2,1.422080994E-1
3.402270410E1,-5.874180049E-2,-5.994654447E-2,-1.616220474E-1
3.404059546E1,-3.644552827E-1,-1.323600709E-1,-9.354686737E-2
3.405848645E1,-2.331539989E-2,1.242903769E-1,1.096410751E-1
3.407637274E1,1.161479726E-1,-7.080754638E-2,-1.576852798E-1
3.409426923E1,-2.619292736E-1,-1.158458069E-1,-9.796810150E-2
3.411216034E1,-1.677175164E-1,1.173357069E-1,1.541595459E-1
3.413004444E1,4.963781312E-2,-4.981493577E-2,-8.651161194E-2
3.414794031E1,-1.163803339E-1,-1.456294358E-1,-1.822919846E-1
3.416583454E1,-1.590908468E-1,1.673991978E-1,1.069746017E-1
3.418372577E1,-6.409563124E-2,9.797684848E-3,-9.039020538E-2
3.420161707E1,-1.187401041E-1,-1.275966763E-1,-2.491054535E-1
3.421950824E1,-1.245231405E-1,6.617157161E-2,6.758785248E-2
3.423739966E1,-1.133289188E-1,-8.729338646E-3,-7.071590424E-2
3.425528803E1,-1.372067928E-1,-1.725283265E-1,-2.540750504E-1
3.427318232E1,-2.025760710E-2,3.399628401E-2,1.238346100E-1
3.429107343E1,-1.145017892E-2,3.311112523E-2,-3.152942657E-2
3.430895331E1,-2.489023507E-1,-1.924293190E-1,-2.472229004E-1
3.432685614E1,-2.079786062E-1,-4.814663529E-2,-2.578926086E-2
3.434474744E1,1.184695214E-1,1.214095727E-1,1.588916779E-2
3.436263562E1,-1.195248961E-1,-2.096807361E-1,-2.446908951E-1
3.438052991E1,-3.479366899E-1,-6.959436834E-2,-6.297779083E-2
3.439842139E1,-2.978481352E-3,7.395680249E-2,1.811800003E-1
3.441631269E1,-2.416953444E-2,-1.761312336E-1,-2.442951202E-1
3.443420404E1,-1.822673380E-1,-4.841856658E-2,2.894306183E-2
3.445208307E1,-3.878815472E-2,1.224900335E-1,1.431560516E-1
3.446998688E1,-1.053876653E-1,-1.518733948E-1,-1.903371811E-1
3.448787665E1,-1.762290895E-1,3.059276193E-2,-1.062917709E-1
3.450576923E1,-9.267628193E-4,1.169277057E-1,1.526517868E-1
3.452366034E1,9.218454361E-3,-7.456547022E-2,-1.394271851E-1
3.454155194E1,-2.103582323E-1,-5.314571410E-2,-2.003288269E-2
3.455944306E1,-1.767022014E-1,1.153497919E-1,7.600593567E-2
3.457732264E1,-1.307998598E-2,-1.246880516E-1,3.099441528E-3
3.459522577E1,-1.489148587E-1,-6.977815926E-2,-2.231884003E-2
3.461311713E1,-1.100365222E-1,4.296656325E-2,1.601305008E-1
3.463100824E1,-1.355986297E-1,-5.684344843E-2,-1.002655029E-1
3.464888617E1,-2.428361773E-1,-6.003158167E-2,1.051750183E-1
3.466679010E1,-1.674298346E-1,5.879270285E-2,-1.701164246E-2
3.468468238E1,-5.507763848E-2,-8.641135693E-2,1.378288269E-1
3.470257373E1,-3.199445605E-1,2.233611792E-2,-3.409528732E-1
3.472046497E1,-3.007399440E-1,8.191303909E-2,3.343267441E-1
3.473835352E1,-1.506055593E-1,3.953731060E-2,-9.872722626E-2
3.475623310E1,-2.156773508E-1,-2.046379298E-1,-5.162525177E-2
3.477413892E1,-1.834614724E-1,1.334834397E-1,1.790561676E-1
3.479203320E1,-2.652879357E-1,-2.053630911E-2,8.099079132E-2
3.480992163E1,-3.162770569E-1,-4.354975000E-2,-1.763772964E-1
3.482781146E1,-1.969805360E-1,8.554606140E-2,1.345396042E-1
3.484570410E1,-9.889336675E-2,7.023870945E-2,-2.277946472E-2
3.486358338E1,-2.563285828E-1,-2.764858902E-1,6.776618958E-2
3.488148676E1,-2.785006166E-1,-1.391257495E-1,-1.602172852E-4
3.489937781E1,-9.482867271E-2,1.478708088E-1,7.509231567E-3
3.491726953E1,-2.303576171E-1,-1.218477264E-1,-2.326335907E-1
3.493516059E1,-1.957588941E-1,-1.093820781E-1,1.297407150E-1
3.495305243E1,-1.463275254E-1,-3.182877600E-2,2.515420914E-1
3.497094306E1,-2.896933258E-1,-1.731186360E-1,-1.141214371E-1
3.498883417E1,-3.452932835E-1,-7.471572608E-2,-2.085113525E-2
3.500672309E1,-1.677460819E-1,4.434354976E-2,1.838302612E-1
3.502461713E1,-2.890965343E-1,-1.556699276E-1,-4.373645782E-2
3.504250849E1,-5.395148396E-1,-8.691117167E-2,-5.866622925E-2
3.506039954E1,-2.535720468E-1,8.283360302E-2,3.743743896E-2
3.507827838E1,-4.260496423E-2,-2.435363829E-3,1.614570618E-2
3.509618207E1,-4.957862794E-1,-7.618669420E-2,-2.675952911E-1
3.511407068E1,-4.844876528E-1,2.548826113E-2,-4.638671875E-3
3.513196479E1,-1.001652181E-1,1.038159430E-1,-2.200031281E-2
3.514985614E1,-2.802089453E-1,-5.444703996E-2,-3.346185684E-1
3.516774750E1,-4.288182855E-1,2.700491622E-2,-4.186248779E-2
3.518563892E1,-2.203987837E-1,1.534696668E-1,6.425571442E-2
3.520353272E1,-3.484492898E-1,-1.744374186E-1,-2.903385162E-1
3.522142151E1,-3.334607780E-1,-3.039537370E-2,-6.325721741E-2
3.523931263E1,-1.839951724E-1,1.379937232E-1,5.149745941E-2
3.525719263E1,-3.602565527E-1,-1.922657639E-1,-1.738958359E-1
3.527509522E1,-2.810409963E-1,-1.244748607E-1,-1.222248077E-1
3.529298676E1,-8.353003860E-2,3.678324074E-2,1.603126526E-1
3.531087812E1,-3.776031137E-1,-1.770958155E-1,-2.327985764E-1
3.532876923E1,-3.046478033E-1,-7.792334259E-2,-1.314964294E-1
3.534664520E1,5.208184570E-2,1.684549451E-1,1.738557816E-1
3.536455194E1,-2.644122541E-1,-1.243076921E-1,-1.771354675E-1
3.538244330E1,-3.603093028E-1,-1.011397094E-1,-9.707355499E-2
3.540032257E1,-8.403441310E-2,1.218134016E-1,1.615934372E-1
3.541822608E1,-2.531289160E-1,-2.210337296E-2,-1.516485214E-1
3.543611719E1,-2.494847775E-1,7.107540965E-3,1.108932495E-2
3.545400849E1,-1.129159331E-1,1.342267394E-1,2.350711823E-2
3.547189374E1,-3.408535123E-1,-9.941811860E-2,-1.089506149E-1
3.548979126E1,-2.365018278E-1,5.219988897E-2,1.660728455E-2
3.550768158E1,3.139846027E-3,9.178906679E-2,1.039514542E-1
3.552557367E1,-2.446992099E-1,-1.028801799E-1,-1.611061096E-1
3.554346503E1,-3.281961083E-1,-7.957231253E-3,-1.669883728E-3
