"Time (s)","Acceleration x (m/s^2)","Acceleration y (m/s^2)","Acceleration z (m/s^2)"
1.557927400E-2,8.248658180E0,-3.619144261E-1,3.139981508E0
1.796114900E-2,8.316853523E0,-4.271188378E-1,3.308077335E0
2.034302400E-2,8.417351723E0,-4.779663086E-1,3.461217880E0
2.272484700E-2,8.495118141E0,-5.288137794E-1,3.657429457E0
2.510672200E-2,8.591429710E0,-5.898307562E-1,3.815953970E0
2.748859700E-2,8.659027100E0,-6.215356588E-1,3.950550079E0
2.987042000E-2,8.716454506E0,-6.490531564E-1,4.079762459E0
3.225229500E-2,8.764310837E0,-6.197410822E-1,4.165904045E0
3.463417000E-2,8.787641525E0,-6.000002623E-1,4.199403763E0
3.701599300E-2,8.816354752E0,-5.808576941E-1,4.204189301E0
3.939786800E-2,8.839685440E0,-5.617151260E-1,4.165306091E0
4.177974300E-2,8.834898949E0,-5.324030519E-1,4.098307133E0
4.416161800E-2,8.858229637E0,-5.180460811E-1,4.060021877E0
4.654344100E-2,8.877371788E0,-5.186443329E-1,3.983451605E0
4.892531600E-2,8.910871506E0,-4.941178858E-1,3.920639992E0
5.130719100E-2,8.919844627E0,-4.516452849E-1,3.867399693E0
5.368901400E-2,8.947959900E0,-4.181457460E-1,3.829114437E0
5.607088900E-2,8.957531929E0,-4.133601189E-1,3.800400496E0
5.845276400E-2,8.967103004E0,-4.271188378E-1,3.814757586E0
6.083463900E-2,8.976674080E0,-4.127618968E-1,3.829114437E0
6.321646200E-2,8.986245155E0,-4.031906128E-1,3.838685751E0
6.559833700E-2,8.986245155E0,-3.984049559E-1,3.862613916E0
6.798021200E-2,8.962317467E0,-3.888336718E-1,3.891327858E0
7.036203500E-2,8.966505051E0,-3.792623878E-1,3.930211306E0
7.274391000E-2,8.952147484E0,-3.457628787E-1,3.963112593E0
7.512578500E-2,8.946763992E0,-3.170489967E-1,3.987040758E0
7.750766000E-2,8.946763992E0,-3.026920557E-1,3.982254982E0
7.988948300E-2,8.961120605E0,-3.020938635E-1,3.996612072E0
8.227135800E-2,8.961120605E0,-2.829512656E-1,4.006183147E0
8.465323300E-2,8.946166039E0,-2.356930375E-1,3.996612072E0
8.703505500E-2,8.941379547E0,-2.069791555E-1,4.000799656E0
8.941693000E-2,8.946166039E0,-2.117647976E-1,3.996013880E0
9.179880500E-2,8.940781593E0,-1.830509305E-1,3.986442566E0
9.418068000E-2,8.935996056E0,-1.782652885E-1,3.986442566E0
9.656250300E-2,8.940781593E0,-1.734796464E-1,3.967299938E0
9.894437800E-2,8.964112282E0,-1.495514214E-1,3.957728624E0
1.013262530E-1,8.983254433E0,-1.543370634E-1,3.957728624E0
1.037080760E-1,8.968897820E0,-1.208375469E-1,3.943371773E0
1.060899510E-1,8.997611046E0,-1.016949639E-1,3.952943087E0
1.084718260E-1,9.001798630E0,-9.690931439E-2,3.947559118E0
1.108537010E-1,8.992227554E0,-6.819544733E-2,3.937987804E0
1.132355240E-1,9.005986214E0,-2.512463741E-2,3.966701746E0
1.156173990E-1,9.020342827E0,-3.888336942E-2,3.957130432E0
1.179992740E-1,9.015557289E0,-2.033899166E-2,3.937987804E0
1.203810970E-1,9.020342827E0,-5.982056726E-3,3.947559118E0
1.227629720E-1,9.020342827E0,3.589233849E-3,3.933202267E0
1.251448470E-1,9.010771751E0,8.374879137E-3,3.947559118E0
1.275266700E-1,9.019744873E0,3.230310604E-2,3.937389612E0
1.299085450E-1,9.019744873E0,4.666004330E-2,3.922434568E0
1.322904200E-1,9.010173798E0,4.666004330E-2,3.937389612E0
1.346722950E-1,8.995817184E0,2.273181453E-2,3.933202267E0
1.370541180E-1,8.991629601E0,-1.196411322E-3,3.927818298E0
1.394359930E-1,8.995817184E0,1.794617064E-2,3.894318819E0
1.418178680E-1,8.991030693E0,2.751746029E-2,3.923032761E0
1.441997430E-1,8.977272034E0,2.991028363E-3,3.913461447E0
1.465815660E-1,8.977272034E0,-1.076770201E-2,3.927818298E0
1.489634410E-1,8.962915421E0,-1.794616925E-3,3.933202267E0
1.513452640E-1,8.967700958E0,3.589233849E-3,3.947559118E0
1.537271390E-1,8.958129883E0,7.776673418E-3,3.961916208E0
1.561090140E-1,8.972486496E0,-1.076770201E-2,3.985844374E0
1.584908890E-1,8.972486496E0,-1.196411322E-3,3.976273060E0
1.608727120E-1,8.972486496E0,8.374879137E-3,3.995415688E0
1.632545870E-1,8.986844063E0,-1.076770201E-2,3.995415688E0
1.656364620E-1,9.001200676E0,4.187439568E-3,4.004986763E0
1.680183370E-1,9.015557289E0,-5.982056609E-4,4.024129391E0
1.704001600E-1,9.025128365E0,-5.383851007E-3,4.033700943E0
1.727820350E-1,9.077771187E0,-9.571290575E-3,4.038486481E0
1.751639100E-1,9.077771187E0,-9.571290575E-3,4.024129391E0
1.775457850E-1,9.101698875E0,-2.811566554E-2,4.038486481E0
1.799276080E-1,9.130413055E0,-2.811566554E-2,4.062414646E0
1.823094830E-1,9.144769669E0,-3.230310604E-2,4.057629108E0
1.846913580E-1,9.149555206E0,-1.794617064E-2,4.043272018E0
1.870731800E-1,9.154341698E0,-2.273181453E-2,4.067200184E0
1.894550550E-1,9.163912773E0,-3.708875179E-2,4.062414646E0
1.918369300E-1,9.150154114E0,-6.580262631E-2,4.071985722E0
1.942187530E-1,9.139984131E0,-5.144568533E-2,4.057629108E0
1.966006280E-1,9.125627518E0,-5.682953820E-2,4.052843571E0
1.989825030E-1,9.116654396E0,-7.597211748E-2,4.067200184E0
2.013643780E-1,9.087940216E0,-8.075776696E-2,4.052843571E0
2.037462010E-1,9.073583603E0,-7.178468257E-2,4.057629108E0
2.061280760E-1,9.064012527E0,-7.657032460E-2,4.067200184E0
2.085099510E-1,9.044869423E0,-8.614161611E-2,4.076771736E0
2.108917740E-1,9.025727272E0,-9.571290761E-2,4.091128349E0
2.132736490E-1,9.007183075E0,-1.052841991E-1,4.101297855E0
2.156555240E-1,9.002396584E0,-1.148554832E-1,4.120440483E0
2.180373990E-1,8.997611046E0,-1.244267747E-1,4.120440483E0
2.204192220E-1,8.978468895E0,-1.298106313E-1,4.130012035E0
2.228010970E-1,8.968897820E0,-1.250249892E-1,4.153940201E0
2.251829720E-1,8.944969177E0,-1.429711580E-1,4.153940201E0
2.275647950E-1,8.949754715E0,-1.381855011E-1,4.163511276E0
2.299466700E-1,8.921041489E0,-1.525424421E-1,4.158725739E0
2.323285450E-1,8.916853905E0,-1.716850251E-1,4.177868366E0
2.347103680E-1,8.921639442E0,-1.716850251E-1,4.173082829E0
2.370922430E-1,8.912068367E0,-1.956132501E-1,4.182653904E0
2.394741180E-1,8.897710800E0,-2.099701911E-1,4.177868366E0
2.418559930E-1,8.869595528E0,-2.153540403E-1,4.173082829E0
2.442378160E-1,8.873783112E0,-2.153540403E-1,4.168296814E0
2.466196910E-1,8.874381065E0,-2.249253243E-1,4.173082829E0
2.490015660E-1,8.850452423E0,-2.297109663E-1,4.158725739E0
2.513834410E-1,8.831310272E0,-2.303091735E-1,4.149154663E0
2.537652640E-1,8.812167168E0,-2.159522474E-1,4.149154663E0
2.561471390E-1,8.788239479E0,-2.069791555E-1,4.125226021E0
2.585290140E-1,8.763712883E0,-1.926222295E-1,4.130012035E0
2.609108370E-1,8.769096375E0,-2.021935135E-1,4.139583111E0
2.632927120E-1,8.745168686E0,-2.123630047E-1,4.139583111E0
2.656745870E-1,8.721240044E0,-2.027917206E-1,4.149154663E0
2.680564100E-1,8.716454506E0,-2.123630047E-1,4.140181541E0
2.704382850E-1,8.697312355E0,-2.075773627E-1,4.154538155E0
2.728201600E-1,8.682954788E0,-2.225325108E-1,4.159324169E0
2.752020350E-1,8.668598175E0,-2.273181528E-1,4.188037872E0
2.775838580E-1,8.664410591E0,-2.315055877E-1,4.216751575E0
2.799657330E-1,8.673981667E0,-2.602194548E-1,4.211966038E0
2.823476080E-1,8.659625053E0,-2.697907388E-1,4.221537113E0
2.847294300E-1,8.673981667E0,-2.793620527E-1,4.255036831E0
2.871113050E-1,8.679366112E0,-2.985046208E-1,4.255036831E0
2.894931800E-1,8.698508263E0,-3.266202807E-1,4.259822369E0
2.918750550E-1,8.693722725E0,-3.218346536E-1,4.298107624E0
2.942568780E-1,8.722436905E0,-3.355933726E-1,4.293920040E0
2.966387530E-1,8.746963501E0,-3.547359705E-1,4.293920040E0
2.990206280E-1,8.751749039E0,-3.595215976E-1,4.322634220E0
3.014024510E-1,8.780462265E0,-3.589234054E-1,4.332205296E0
3.037843260E-1,8.813961983E0,-3.870390654E-1,4.341776848E0
3.061662010E-1,8.847461700E0,-3.870390654E-1,4.341776848E0
3.085480760E-1,8.866603851E0,-4.055834413E-1,4.346562386E0
3.109298990E-1,8.885746956E0,-4.055834413E-1,4.341776848E0
3.133117740E-1,8.876175880E0,-4.199403822E-1,4.327419758E0
3.156936490E-1,8.904889107E0,-4.151547253E-1,4.336990833E0
3.180754720E-1,8.914461136E0,-4.193421602E-1,4.327419758E0
3.204573470E-1,8.909674644E0,-4.390829504E-1,4.317848682E0
3.228392220E-1,8.928817749E0,-4.193421602E-1,4.313062668E0
3.252210970E-1,8.943174362E0,-4.384847581E-1,4.322634220E0
3.276029200E-1,8.953344345E0,-4.528416991E-1,4.308277130E0
3.299847950E-1,8.948558807E0,-4.528416991E-1,4.303491592E0
3.323666700E-1,8.934201241E0,-4.528416991E-1,4.303491592E0
3.347484930E-1,8.924630165E0,-4.719842672E-1,4.289134502E0
3.371303680E-1,8.905488014E0,-4.725824594E-1,4.293920040E0
3.395122430E-1,8.900702477E0,-4.965106845E-1,4.274777889E0
3.418941180E-1,8.877371788E0,-5.012963414E-1,4.280161381E0
3.442759410E-1,8.863015175E0,-5.114658475E-1,4.275375843E0
3.466578160E-1,8.824729919E0,-5.210371017E-1,4.289732933E0
3.490396910E-1,8.824729919E0,-5.162515044E-1,4.275375843E0
3.514215140E-1,8.791230202E0,-4.977070987E-1,4.270590305E0
3.538033890E-1,8.796015739E0,-4.977070987E-1,4.280161381E0
3.561852640E-1,8.800801277E0,-4.977070987E-1,4.261018753E0
3.585670870E-1,8.796015739E0,-4.929214716E-1,4.261018753E0
3.609489620E-1,8.805587769E0,-4.833501875E-1,4.265804768E0
3.633308370E-1,8.814560890E0,-4.737788737E-1,4.279563427E0
3.657127120E-1,8.804988861E0,-4.546363056E-1,4.274777889E0
3.680945350E-1,8.804988861E0,-4.594219327E-1,4.260420799E0
3.704764100E-1,8.809774399E0,-4.450650215E-1,4.255635262E0
3.728582850E-1,8.790632248E0,-4.546363056E-1,4.274777889E0
3.752401600E-1,8.804988861E0,-4.354937077E-1,4.255635262E0
3.776219830E-1,8.819346428E0,-4.354937077E-1,4.250849247E0
3.800038580E-1,8.818747520E0,-4.211367965E-1,4.246063709E0
3.823857330E-1,8.818747520E0,-4.163511395E-1,4.241278172E0
3.847675550E-1,8.804390907E0,-4.163511395E-1,4.231706619E0
3.871494300E-1,8.799605370E0,-4.073780477E-1,4.207778454E0
3.895313050E-1,8.809176445E0,-3.786641955E-1,4.188635826E0
3.919131280E-1,8.809176445E0,-3.786641955E-1,4.193421841E0
3.942950030E-1,8.804390907E0,-3.738785386E-1,4.193421841E0
3.966768780E-1,8.813364029E0,-3.690928817E-1,4.188635826E0
3.990587530E-1,8.822935104E0,-3.589234054E-1,4.174279213E0
4.014405760E-1,8.818149567E0,-3.451646566E-1,4.154538155E0
4.038224510E-1,8.822935104E0,-3.451646566E-1,4.154538155E0
4.062043260E-1,8.837292671E0,-3.302095234E-1,4.154538155E0
4.085861490E-1,8.842078209E0,-3.302095234E-1,4.140181541E0
4.109680240E-1,8.851051331E0,-2.967100143E-1,4.140181541E0
4.133498990E-1,8.874979019E0,-3.110669553E-1,4.154538155E0
4.157317740E-1,8.884550095E0,-3.014956415E-1,4.130609989E0
4.181135970E-1,8.894122124E0,-3.014956415E-1,4.135395527E0
4.204954720E-1,8.889336586E0,-2.967100143E-1,4.125824451E0
4.228773470E-1,8.894122124E0,-2.919243574E-1,4.121038914E0
4.252592220E-1,8.903693199E0,-2.871387303E-1,4.121038914E0
4.276410450E-1,8.922835350E0,-3.056831062E-1,4.116253376E0
4.300229200E-1,8.927620888E0,-3.152543902E-1,4.101896286E0
4.324047950E-1,8.932407379E0,-3.008974493E-1,4.077968121E0
4.347866180E-1,8.918049812E0,-2.871387303E-1,4.092324734E0
4.371684930E-1,8.898308754E0,-2.775674164E-1,4.097110748E0
4.395503680E-1,8.898907661E0,-2.919243574E-1,4.077968121E0
4.419322430E-1,8.908478737E0,-2.967100143E-1,4.073182583E0
4.443140660E-1,8.903693199E0,-2.919243574E-1,4.049253941E0
4.466959410E-1,8.903693199E0,-2.967100143E-1,4.054039955E0
4.490778160E-1,8.913264275E0,-2.919243574E-1,4.058825493E0
4.514596390E-1,8.912666321E0,-2.679961324E-1,4.049253941E0
4.538415140E-1,8.912666321E0,-2.632105052E-1,4.058825493E0
4.562233890E-1,8.927022934E0,-2.632105052E-1,4.049253941E0
4.586052120E-1,8.917451859E0,-2.440679073E-1,4.058227062E0
4.609870870E-1,8.927022934E0,-2.440679073E-1,4.034298897E0
4.633689620E-1,8.936594009E0,-2.440679073E-1,4.034298897E0
4.657508370E-1,8.935996056E0,-2.297109663E-1,4.024727821E0
4.681326600E-1,8.916853905E0,-2.249253243E-1,4.019941807E0
4.705145350E-1,8.931210518E0,-2.105683982E-1,4.019941807E0
4.728964100E-1,8.921639442E0,-2.201396823E-1,3.996013880E0
4.752782330E-1,8.926424980E0,-2.344966233E-1,3.986442566E0
4.776601080E-1,8.926424980E0,-2.350948304E-1,3.972085476E0
4.800419830E-1,8.912666321E0,-2.398804724E-1,3.972085476E0
4.824238580E-1,8.912666321E0,-2.446661144E-1,3.952943087E0
4.848056800E-1,8.907880783E0,-2.398804724E-1,3.967299938E0
4.871875550E-1,8.893523216E0,-2.350948304E-1,3.972085476E0
4.895694300E-1,8.864809990E0,-2.596212626E-1,3.977469444E0
4.919513050E-1,8.869595528E0,-2.590230405E-1,3.996612072E0
4.943331280E-1,8.864809990E0,-2.590230405E-1,4.001397610E0
4.967150030E-1,8.874381065E0,-2.590230405E-1,4.010969162E0
4.990968780E-1,8.879166603E0,-2.542374134E-1,4.039682865E0
5.014787010E-1,8.874381065E0,-2.542374134E-1,4.058825493E0
5.038605760E-1,8.893523216E0,-2.440679073E-1,4.072584152E0
5.062424510E-1,8.903095245E0,-2.584248483E-1,4.087539196E0
5.086242740E-1,8.936594009E0,-2.673979402E-1,4.116253376E0
5.110061490E-1,8.936594009E0,-2.530409992E-1,4.121038914E0
5.133880240E-1,8.931210518E0,-2.195414752E-1,4.134797573E0
5.157698990E-1,8.945567131E0,-2.243271172E-1,4.134797573E0
5.181517220E-1,8.974281311E0,-2.093719840E-1,4.139583111E0
5.205335970E-1,8.983852386E0,-2.237289101E-1,4.125226021E0
5.229154720E-1,9.017352104E0,-2.093719840E-1,4.125226021E0
5.252972950E-1,9.041280746E0,-2.039881349E-1,4.110869408E0
5.276791700E-1,9.041280746E0,-2.045863420E-1,4.091726780E0
5.300610450E-1,9.065208435E0,-2.087737769E-1,4.086941242E0
5.324429200E-1,9.098110199E0,-1.992024779E-1,4.082155228E0
5.348247430E-1,9.102895737E0,-1.944168359E-1,4.086941242E0
5.372066180E-1,9.098110199E0,-1.848455518E-1,4.086941242E0
5.395884930E-1,9.083752632E0,-1.896311939E-1,4.091726780E0
5.419703160E-1,9.064610481E0,-1.752742529E-1,4.101297855E0
5.443521910E-1,9.050253868E0,-1.896311939E-1,4.110869408E0
5.467340660E-1,9.026325226E0,-1.806581169E-1,4.120440483E0
5.491159410E-1,8.983254433E0,-1.806581169E-1,4.125226021E0
5.514977640E-1,8.964710236E0,-1.908276081E-1,4.115654945E0
5.538796390E-1,8.931210518E0,-2.147558331E-1,4.144368649E0
5.562615140E-1,8.897710800E0,-2.057827413E-1,4.139583111E0
5.586433370E-1,8.849854469E0,-2.015953064E-1,4.163511276E0
5.610252120E-1,8.801998138E0,-1.776670814E-1,4.173082829E0
5.634070870E-1,8.758927345E0,-1.447657645E-1,4.206582069E0
5.657889620E-1,8.720044136E0,-1.166501045E-1,4.211368084E0
5.681707850E-1,8.711071014E0,-1.405783296E-1,4.225724697E0
5.705526600E-1,8.691927910E0,-1.501496136E-1,4.220939159E0
5.729345350E-1,8.692526817E0,-1.836491376E-1,4.216153622E0
5.753163580E-1,8.702097893E0,-2.219343036E-1,4.226323128E0
5.776982330E-1,8.697312355E0,-2.123630047E-1,4.221537113E0
5.800801080E-1,8.706883430E0,-2.171486616E-1,4.231108665E0
5.824619830E-1,8.711668968E0,-2.309073806E-1,4.226323128E0
5.848438050E-1,8.726025581E0,-2.165504545E-1,4.211966038E0
5.872256800E-1,8.735597610E0,-2.165504545E-1,4.202394962E0
5.896075550E-1,8.759525299E0,-2.261217386E-1,4.197608948E0
5.919893780E-1,8.773882866E0,-2.165504545E-1,4.197010994E0
5.943712530E-1,8.802596092E0,-2.207378894E-1,4.153940201E0
5.967531280E-1,8.816953659E0,-2.446661144E-1,4.130609989E0
5.991350030E-1,8.831310272E0,-2.590230405E-1,4.125824451E0
6.015168260E-1,8.845666885E0,-2.638086975E-1,4.097110748E0
6.038987010E-1,8.869595528E0,-2.590230405E-1,4.082753658E0
6.062805760E-1,8.879166603E0,-2.727817893E-1,4.082753658E0
6.086623990E-1,8.893523216E0,-2.584248483E-1,4.063611031E0
6.110442740E-1,8.907880783E0,-2.775674164E-1,4.039682865E0
6.134261490E-1,8.917451859E0,-2.727817893E-1,4.015754700E0
6.158079720E-1,8.912666321E0,-2.542374134E-1,3.996612072E0
6.181898470E-1,8.912666321E0,-2.536391914E-1,4.006183147E0
6.205717220E-1,8.898308754E0,-2.877369225E-1,4.010969162E0
6.229535970E-1,8.898907661E0,-2.925225794E-1,4.010969162E0
6.253354200E-1,8.889336586E0,-2.973082066E-1,4.010969162E0
6.277172950E-1,8.870193481E0,-3.020938635E-1,4.025325775E0
6.300991700E-1,8.865407944E0,-3.068794906E-1,4.030111313E0
6.324809930E-1,8.856434822E0,-3.403790295E-1,4.034897327E0
6.348628680E-1,8.861220360E0,-3.547359705E-1,4.039682865E0
6.372447430E-1,8.842078209E0,-3.738785386E-1,4.049852371E0
6.396266180E-1,8.813961983E0,-3.984049559E-1,4.054637909E0
6.420084410E-1,8.804390907E0,-4.366901219E-1,4.064209461E0
6.443903160E-1,8.757132530E0,-4.606183469E-1,4.064209461E0
6.467721910E-1,8.743373871E0,-5.324030519E-1,4.074378967E0
6.491540660E-1,8.753543854E0,-5.617151260E-1,4.069592953E0
6.515358890E-1,8.729615211E0,-5.814558864E-1,4.064807415E0
6.539177640E-1,8.724829674E0,-5.904290080E-1,4.093521118E0
6.562996390E-1,8.730213165E0,-6.430711150E-1,4.103690624E0
6.586814620E-1,8.749356270E0,-6.478567123E-1,4.108476639E0
6.610633370E-1,8.758927345E0,-6.334998012E-1,4.103690624E0
6.634452120E-1,8.754141808E0,-6.287141442E-1,4.108476639E0
6.658270870E-1,8.745168686E0,-6.574280262E-1,4.122833252E0
6.682089100E-1,8.749356270E0,-6.478567123E-1,4.089334011E0
6.705907850E-1,8.768498421E0,-6.382854581E-1,4.074976921E0
6.729726600E-1,8.768498421E0,-6.287141442E-1,4.046263218E0
6.753544830E-1,8.810971260E0,-5.898307562E-1,4.012165546E0
6.777363580E-1,8.796614647E0,-5.808576941E-1,4.021736622E0
6.801182330E-1,8.810373306E0,-5.228317380E-1,3.993022680E0
6.825000550E-1,8.781061172E0,-4.558327198E-1,4.006781578E0
6.848819300E-1,8.799605370E0,-3.936193287E-1,4.040280819E0
6.872638050E-1,8.803194046E0,-3.170489967E-1,4.073182583E0
6.896456800E-1,8.779266357E0,-2.835494876E-1,4.101896286E0
6.920275030E-1,8.755337715E0,-2.835494876E-1,4.121038914E0
6.944093780E-1,8.798408508E0,-2.835494876E-1,4.111467361E0
6.967912530E-1,8.827122688E0,-2.781656384E-1,4.077968121E0
6.991731280E-1,8.826524734E0,-2.691925466E-1,4.058825493E0
7.015549510E-1,8.870193481E0,-2.829512656E-1,4.068396568E0
7.039368260E-1,8.889336586E0,-2.823530734E-1,4.068396568E0
7.063187010E-1,8.903693199E0,-2.919243574E-1,4.049253941E0
7.087005240E-1,8.922237396E0,-2.727817893E-1,4.020540237E0
7.110823990E-1,8.955737114E0,-2.440679073E-1,4.024727821E0
7.134642740E-1,8.998209953E0,-2.338984162E-1,4.005585194E0
7.158460970E-1,9.041280746E0,-2.380858511E-1,3.981656790E0
7.182279720E-1,9.065208435E0,-2.572284341E-1,3.986442566E0
7.206098470E-1,9.104091644E0,-2.949153781E-1,3.958326817E0
7.229917220E-1,9.147162437E0,-2.997010350E-1,3.948755503E0
7.253735450E-1,9.161520004E0,-2.991028428E-1,3.943371773E0
7.277554200E-1,9.166305542E0,-2.895315289E-1,3.943371773E0
7.301372950E-1,9.184849739E0,-2.847459018E-1,3.914059639E0
7.325191700E-1,9.184849739E0,-2.656033039E-1,3.909274101E0
7.349009930E-1,9.184849739E0,-2.608176768E-1,3.909274101E0
7.372828680E-1,9.223134995E0,-2.656033039E-1,3.904488325E0
7.396647430E-1,9.261420250E0,-2.697907388E-1,3.909274101E0
7.420465660E-1,9.318847656E0,-2.691925466E-1,3.918845177E0
7.444284410E-1,9.351749420E0,-2.207378894E-1,3.929014683E0
7.468103160E-1,9.332008362E0,-1.591227055E-1,3.937987804E0
7.491921910E-1,9.326624870E0,-9.690931439E-2,3.942773581E0
7.515740140E-1,9.312267303E0,-9.212367237E-2,3.957130432E0
7.539558890E-1,9.288339615E0,-9.690931439E-2,3.957130432E0
7.563377640E-1,9.269196510E0,-1.262213886E-1,3.957130432E0
7.587195870E-1,9.226723671E0,-1.740778536E-1,3.952344894E0
7.611014620E-1,9.165108681E0,-1.890329868E-1,3.952943087E0
7.634833370E-1,9.136395454E0,-2.135594189E-1,3.918845177E0
7.658651600E-1,9.103493690E0,-2.285145670E-1,3.890131474E0
7.682470350E-1,9.079565048E0,-2.243271172E-1,3.866203070E0
7.706289100E-1,9.046066284E0,-2.243271172E-1,3.866203070E0
7.730107850E-1,9.002995491E0,-2.344966233E-1,3.832703590E0
7.753926080E-1,8.979066849E0,-2.255235314E-1,3.799204111E0
7.777744830E-1,8.931210518E0,-2.404786795E-1,3.784847260E0
7.801563580E-1,8.879166603E0,-2.889333367E-1,3.742374659E0
7.825381800E-1,8.855237961E0,-2.895315289E-1,3.732803345E0
7.849200550E-1,8.812167168E0,-2.709871531E-1,3.704089403E0
7.873019300E-1,8.759525299E0,-2.620140910E-1,3.684946775E0
7.896838050E-1,8.754739761E0,-2.524427772E-1,3.675375462E0
7.920656280E-1,8.726025581E0,-2.338984162E-1,3.665804386E0
7.944475030E-1,8.716454506E0,-2.243271172E-1,3.660420418E0
7.968293780E-1,8.687741280E0,-2.291127741E-1,3.656233072E0
7.992112010E-1,8.687741280E0,-2.386840582E-1,3.665804386E0
8.015930760E-1,8.678169250E0,-2.386840582E-1,3.699303865E0
8.039749510E-1,8.692526817E0,-2.291127741E-1,3.704089403E0
8.063568260E-1,8.701499939E0,-2.051845491E-1,3.708276987E0
8.087386490E-1,8.696713448E0,-1.812563092E-1,3.722633839E0
8.111205240E-1,8.730213165E0,-1.710868180E-1,3.746562004E0
8.135023990E-1,8.753543854E0,-1.471585929E-1,3.756133318E0
8.158842740E-1,8.787042618E0,-1.513460279E-1,3.770490170E0
8.182660970E-1,8.834898949E0,-1.794617027E-1,3.775275946E0
8.206479720E-1,8.868398666E0,-1.692921966E-1,3.789632797E0
8.230298470E-1,8.911469460E0,-1.543370634E-1,3.784847260E0
8.254116700E-1,8.954540253E0,-1.633101404E-1,3.803989887E0
8.277935450E-1,9.007183075E0,-1.722832322E-1,3.808775425E0
8.301754200E-1,9.040681839E0,-2.003988922E-1,3.842274904E0
8.325572430E-1,9.055637360E0,-2.291127741E-1,3.856631994E0
8.349391180E-1,9.069993973E0,-2.620140910E-1,3.880560160E0
8.373209930E-1,9.117850304E0,-2.333002090E-1,3.885345697E0
8.397028680E-1,9.184251785E0,-1.986042857E-1,3.890131474E0
8.420846910E-1,9.202795982E0,-1.603191197E-1,3.899104595E0
8.444665660E-1,9.221340179E0,-1.220339537E-1,3.894318819E0
8.468484410E-1,9.259625435E0,-1.166501045E-1,3.884747505E0
8.492302640E-1,9.273982048E0,-1.262213886E-1,3.894318819E0
8.516121390E-1,9.307481766E0,-1.399801224E-1,3.875176191E0
8.539940140E-1,9.331410408E0,-1.495514214E-1,3.870390654E0
8.563758890E-1,9.321838379E0,-1.256231815E-1,3.870390654E0
8.587577120E-1,9.326624870E0,-1.399801224E-1,3.856033802E0
8.611395870E-1,9.336195946E0,-1.304088384E-1,3.846462488E0
8.635214620E-1,9.340981483E0,-1.160518974E-1,3.808177233E0
8.659032850E-1,9.355338097E0,-1.160518974E-1,3.774677753E0
8.682851600E-1,9.355338097E0,-1.262213886E-1,3.741178274E0
8.706670350E-1,9.364311218E0,-1.118644550E-1,3.731606960E0
8.730489100E-1,9.355338097E0,-1.310070455E-1,3.731606960E0
8.754307850E-1,9.345767021E0,-1.310070455E-1,3.693321705E0
8.778126080E-1,9.345767021E0,-1.549352705E-1,3.678964853E0
8.801944830E-1,9.321838379E0,-1.316052526E-1,3.650250912E0
8.825763580E-1,9.293125153E0,-1.417747438E-1,3.597608805E0
8.849581800E-1,9.274580956E0,-1.752742529E-1,3.559323788E0
8.873400550E-1,9.255437851E0,-1.998006850E-1,3.521038532E0
8.897219300E-1,9.232108116E0,-2.380858511E-1,3.502494097E0
8.921037530E-1,9.174679756E0,-2.392822653E-1,3.468994617E0
8.944856280E-1,9.155537605E0,-2.632105052E-1,3.468994617E0
8.968675030E-1,9.132207870E0,-2.775674164E-1,3.468994617E0
8.992493260E-1,9.113064766E0,-3.116651475E-1,3.464209080E0
9.016312010E-1,9.094520569E0,-3.308077157E-1,3.464807272E0
9.040130760E-1,9.104690552E0,-3.690928817E-1,3.483949661E0
9.063949510E-1,9.119047165E0,-3.684946895E-1,3.503092289E0
9.087767740E-1,9.119047165E0,-3.876372576E-1,3.493520975E0
9.111586490E-1,9.142974854E0,-3.876372576E-1,3.512663603E0
9.135405240E-1,9.152546883E0,-3.918247223E-1,3.527020693E0
9.159223990E-1,9.186046600E0,-4.157529473E-1,3.536591768E0
9.183042220E-1,9.196215630E0,-4.677968323E-1,3.575475216E0
9.206860970E-1,9.215357780E0,-4.869394004E-1,3.580260992E0
9.230679720E-1,9.230313301E0,-5.294120312E-1,3.565903902E0
9.254497950E-1,9.226125717E0,-5.635097623E-1,3.546761274E0
9.278316700E-1,9.235696793E0,-5.730810165E-1,3.532404423E0
9.302135450E-1,9.235696793E0,-5.922235847E-1,3.503690481E0
9.325953680E-1,9.236295700E0,-6.209374666E-1,3.533002615E0
9.349772430E-1,9.221938133E0,-6.305087805E-1,3.537788391E0
9.373591180E-1,9.221938133E0,-6.592226624E-1,3.571287870E0
9.397409930E-1,9.198608398E0,-6.783652306E-1,3.590430260E0
9.421228680E-1,9.193822861E0,-6.783652306E-1,3.633501291E0
9.445046910E-1,9.179466248E0,-7.022934556E-1,3.652643681E0
9.468865660E-1,9.146564484E0,-7.357929349E-1,3.681955814E0
9.492683890E-1,9.132805824E0,-7.692924738E-1,3.725026608E0
9.516502640E-1,9.084949493E0,-7.938188910E-1,3.748954773E0
9.540321390E-1,9.075976372E0,-8.081758618E-1,3.782454491E0
9.564140140E-1,9.052047729E0,-8.129615188E-1,3.850051641E0
9.587958370E-1,9.042476654E0,-8.225327730E-1,3.883551121E0
9.611777120E-1,9.028120041E0,-8.315058947E-1,3.936791420E0
9.635595870E-1,9.019146919E0,-8.315058947E-1,3.979862213E0
9.659414100E-1,9.033503532E0,-8.315058947E-1,4.008575916E0
9.683232850E-1,9.061619759E0,-8.309076428E-1,4.022933006E0
9.707051600E-1,9.075976372E0,-8.213363886E-1,4.018147469E0
9.730870350E-1,9.104690552E0,-7.974081635E-1,3.998406649E0
9.754688580E-1,9.113663673E0,-7.441678643E-1,4.007977962E0
9.778507330E-1,9.117850304E0,-7.304090858E-1,3.955335855E0
9.802326080E-1,9.127422333E0,-7.208378315E-1,3.931407690E0
9.826144300E-1,9.160323143E0,-6.777670383E-1,3.887140274E0
9.849963050E-1,9.165108681E0,-6.586244106E-1,3.844069481E0
9.873781800E-1,9.183652878E0,-6.107679605E-1,3.829712629E0
9.897600550E-1,9.197412491E0,-5.479564071E-1,3.795614958E0
9.921418780E-1,9.205786705E0,-4.761717021E-1,3.786043644E0
9.945237530E-1,9.244071960E0,-4.378865361E-1,3.775874138E0
9.969056280E-1,9.243474007E0,-3.852444589E-1,3.766302824E0
9.992875030E-1,9.238089561E0,-3.326023519E-1,3.780659676E0
1.001669326E0,9.270393372E0,-2.608176768E-1,3.784847260E0
1.004051201E0,9.269794464E0,-1.938186288E-1,3.793820381E0
1.006433076E0,9.283554077E0,-1.459621787E-1,3.793820381E0
1.008814899E0,9.287740707E0,-6.939185411E-2,3.793222189E0
1.011196774E0,9.296713829E0,-3.589234129E-2,3.798007727E0
1.013578649E0,9.296713829E0,1.196411345E-2,3.783650875E0
1.015960472E0,9.286544800E0,3.110669367E-2,3.764508247E0
1.018342347E0,9.276973724E0,5.503492057E-2,3.759722471E0
1.020724222E0,9.262018204E0,9.750752151E-2,3.730410576E0
1.023106097E0,9.247661591E0,1.208375469E-1,3.706482172E0
1.025487920E0,9.227920532E0,1.734796464E-1,3.687339783E0
1.027869795E0,9.212965012E0,2.159522474E-1,3.686741590E0
1.030251670E0,9.217751503E0,2.159522474E-1,3.677170277E0
1.032633493E0,9.217751503E0,2.303091735E-1,3.662813187E0
1.035015368E0,9.208179474E0,2.398804724E-1,3.658027649E0
1.037397243E0,9.199206352E0,1.968096644E-1,3.663411379E0
1.039779118E0,9.184849739E0,1.872383654E-1,3.663411379E0
1.042160941E0,9.156135559E0,2.057827413E-1,3.692125320E0
1.044542868E0,9.098708153E0,2.153540403E-1,3.716053486E0
1.046924691E0,9.060422897E0,2.099701911E-1,3.744767427E0
1.049306514E0,9.036494255E0,2.338984162E-1,3.753740549E0
1.051688389E0,9.027522087E0,1.668993831E-1,3.778266907E0
1.054070264E0,8.979664803E0,1.710868180E-1,3.816552162E0
1.056452139E0,8.936594009E0,1.615155339E-1,3.850051641E0
1.058833962E0,8.903095245E0,1.609173268E-1,3.893122435E0
1.061215837E0,8.879166603E0,1.752742529E-1,3.921836376E0
1.063597712E0,8.836095810E0,1.800599098E-1,3.951148272E0
1.065979587E0,8.803194046E0,1.651047617E-1,3.960719585E0
1.068361410E0,8.774480820E0,1.603191197E-1,3.956532240E0
1.070743285E0,8.764909744E0,1.459621787E-1,3.970889091E0
1.073125160E0,8.717651367E0,1.070788130E-1,3.961317778E0
1.075506983E0,8.703293800E0,1.016949639E-1,3.946960926E0
1.077888858E0,8.679366112E0,9.690931439E-2,3.912863255E0
1.080270733E0,8.674580574E0,1.016949639E-1,3.917648792E0
1.082652555E0,8.660821915E0,8.195417374E-2,3.917648792E0
1.085034430E0,8.646464348E0,4.366901144E-2,3.903890133E0
1.087416305E0,8.670990944E0,5.982056726E-3,3.903890133E0
1.089798180E0,8.671588898E0,-5.623133108E-2,3.875176191E0
1.092180003E0,8.686544418E0,-9.451649338E-2,3.875774384E0
1.094561878E0,8.705686569E0,-1.232303679E-1,3.856631994E0
1.096943753E0,8.710473061E0,-1.471585929E-1,3.856631994E0
1.099325628E0,8.730213165E0,-2.039881349E-1,3.861417532E0
1.101707451E0,8.754739761E0,-2.416750938E-1,3.871587038E0
1.104089326E0,8.760123253E0,-2.847459018E-1,3.885943890E0
1.106471201E0,8.788837433E0,-3.080759048E-1,3.914657831E0
1.108853024E0,8.807980537E0,-3.224328458E-1,3.909872293E0
1.111234899E0,8.856434822E0,-3.457628787E-1,3.924229145E0
1.113616774E0,8.875576973E0,-3.834498227E-1,3.939782381E0
1.115998597E0,8.900103569E0,-4.073780477E-1,3.958925009E0
1.118380472E0,8.957531929E0,-4.354937077E-1,3.954139471E0
1.120762347E0,8.995218277E0,-4.205385745E-1,3.924827337E0
1.123144222E0,9.052646637E0,-4.342973232E-1,3.924827337E0
1.125526045E0,9.090931892E0,-4.390829504E-1,3.886542082E0
1.127907920E0,9.138788223E0,-4.480560422E-1,3.872185230E0
1.130289795E0,9.148957253E0,-4.624129832E-1,3.857828379E0
1.132671618E0,9.162715912E0,-4.480560422E-1,3.843471289E0
1.135053545E0,9.177073479E0,-4.528416991E-1,3.809971809E0
1.137435368E0,9.205786705E0,-4.378865361E-1,3.790230989E0
1.139817243E0,9.210572243E0,-4.570291340E-1,3.762115479E0
1.142199066E0,9.230313301E0,-5.048855543E-1,3.776472330E0
1.144580941E0,9.239884377E0,-5.335994363E-1,3.757329702E0
1.146962816E0,9.220742226E0,-5.144568682E-1,3.757329702E0
1.149344639E0,9.192625999E0,-5.437689424E-1,3.752544165E0
1.151726514E0,9.173483849E0,-5.485545993E-1,3.738187075E0
1.154108389E0,9.178269386E0,-5.485545993E-1,3.733401537E0
1.156490264E0,9.154341698E0,-5.533402562E-1,3.733401537E0
1.158872087E0,9.130413055E0,-5.587241054E-1,3.728615999E0
1.161253962E0,9.130413055E0,-5.736792088E-1,3.724428415E0
1.163635837E0,9.106484413E0,-5.491527915E-1,3.723830223E0
1.166017712E0,9.106484413E0,-5.491527915E-1,3.733401537E0
1.168399535E0,9.096913338E0,-5.587241054E-1,3.729214191E0
1.170781410E0,9.096913338E0,-5.641079545E-1,3.743571043E0
1.173163285E0,9.092725754E0,-5.736792088E-1,3.748356581E0
1.175545108E0,9.097511292E0,-5.832505226E-1,3.762713671E0
1.177926983E0,9.092725754E0,-6.023930907E-1,3.772284985E0
1.180308858E0,9.107083321E0,-6.119644046E-1,3.796213150E0
1.182690733E0,9.112466812E0,-6.358926296E-1,3.777070522E0
1.185072555E0,9.150752068E0,-6.735795736E-1,3.791427374E0
1.187454430E0,9.150752068E0,-6.927221417E-1,3.772284985E0
1.189836305E0,9.170493126E0,-7.064808607E-1,3.763311863E0
1.192218128E0,9.180064201E0,-7.160521746E-1,3.744169235E0
1.194600003E0,9.194420815E0,-7.208378315E-1,3.729812384E0
1.196981878E0,9.208179474E0,-7.016952634E-1,3.700500250E0
1.199363753E0,9.222537041E0,-6.729813814E-1,3.676572084E0
1.201745576E0,9.231510162E0,-6.538388133E-1,3.652643681E0
1.204127451E0,9.226723671E0,-6.592226624E-1,3.628715515E0
1.206509326E0,9.241679192E0,-6.735795736E-1,3.600001574E0
1.208891149E0,9.236893654E0,-6.783652306E-1,3.571287870E0
1.211273076E0,9.226723671E0,-6.640082598E-1,3.552145243E0
1.213654899E0,9.212965012E0,-6.741777658E-1,3.518645763E0
1.216036722E0,9.212367058E0,-6.598208547E-1,3.494717360E0
1.218418597E0,9.193224907E0,-6.454638839E-1,3.480360508E0
1.220800472E0,9.183652878E0,-6.317051649E-1,3.466003656E0
1.223182347E0,9.178867340E0,-6.317051649E-1,3.456432343E0
1.225564170E0,9.164510727E0,-6.412764788E-1,3.470789194E0
1.227946045E0,9.169296265E0,-6.364908218E-1,3.470789194E0
1.230327920E0,9.154939651E0,-6.364908218E-1,3.480360508E0
1.232709795E0,9.150154114E0,-6.269195080E-1,3.504288673E0
1.235091618E0,9.135796547E0,-6.173482537E-1,3.504288673E0
1.237473493E0,9.111868858E0,-6.083751321E-1,3.518645763E0
1.239855368E0,9.125627518E0,-5.886343718E-1,3.533002615E0
1.242237191E0,9.111269951E0,-5.653043389E-1,3.551547050E0
1.244619066E0,9.111269951E0,-5.503492355E-1,3.546761274E0
1.247000941E0,9.120243073E0,-5.162515044E-1,3.570689678E0
1.249382816E0,9.125029564E0,-5.018945336E-1,3.575475216E0
1.251764639E0,9.119645119E0,-4.594219327E-1,3.556332588E0
1.254146514E0,9.124430656E0,-4.259224236E-1,3.546163082E0
1.256528389E0,9.138189316E0,-3.876372576E-1,3.531806231E0
1.258910212E0,9.142376900E0,-3.589234054E-1,3.512663603E0
1.261292087E0,9.170493126E0,-3.158525825E-1,3.492922783E0
1.263673962E0,9.156135559E0,-3.110669553E-1,3.459423304E0
1.266055785E0,9.175278664E0,-3.062812984E-1,3.435495138E0
1.268437660E0,9.184849739E0,-3.062812984E-1,3.411566973E0
1.270819535E0,9.175278664E0,-2.967100143E-1,3.368496180E0
1.273201410E0,9.175278664E0,-3.260220885E-1,3.334996462E0
1.275583233E0,9.161520004E0,-3.451646566E-1,3.326023579E0
1.277965108E0,9.166305542E0,-3.834498227E-1,3.306880951E0
1.280346983E0,9.142376900E0,-3.834498227E-1,3.311666489E0
1.282728858E0,9.133403778E0,-4.265206456E-1,3.330809116E0
1.285110680E0,9.134002686E0,-4.600201547E-1,3.350549936E0
1.287492555E0,9.114859581E0,-4.648058116E-1,3.374478102E0
1.289874430E0,9.100502968E0,-4.839483798E-1,3.403192043E0
1.292256253E0,9.091529846E0,-5.078766346E-1,3.412763357E0
1.294638128E0,9.096315384E0,-4.983053207E-1,3.455834150E0
1.297020003E0,9.077172279E0,-5.030909777E-1,3.474976778E0
1.299401878E0,9.105886459E0,-4.833501875E-1,3.503690481E0
1.301783701E0,9.081958771E0,-4.839483798E-1,3.518047571E0
1.304165576E0,9.095717430E0,-4.594219327E-1,3.546761274E0
1.306547451E0,9.090931892E0,-4.546363056E-1,3.570689678E0
1.308929274E0,9.105288506E0,-4.402793646E-1,3.565903902E0
1.311311149E0,9.134002686E0,-4.348955154E-1,3.570091486E0
1.313693024E0,9.152546883E0,-4.253242314E-1,3.555734396E0
1.316074899E0,9.176474571E0,-4.157529473E-1,3.550948858E0
1.318456722E0,9.195617676E0,-4.109672904E-1,3.536591768E0
1.320838597E0,9.219545364E0,-3.912265003E-1,3.522234917E0
1.323220472E0,9.218947411E0,-3.720839322E-1,3.527020693E0
1.325602295E0,9.223732948E0,-3.816552162E-1,3.503092289E0
1.327984170E0,9.233304024E0,-3.720839322E-1,3.488735437E0
1.330366045E0,9.242876053E0,-3.672982752E-1,3.503092289E0
1.332747920E0,9.257232666E0,-3.768695593E-1,3.498306751E0
1.335129743E0,9.257232666E0,-3.481557071E-1,3.498306751E0
1.337511618E0,9.266803741E0,-3.672982752E-1,3.493520975E0
1.339893493E0,9.276374817E0,-3.810569942E-1,3.503092289E0
1.342275368E0,9.276973724E0,-4.241278172E-1,3.512663603E0
1.344657191E0,9.287142754E0,-4.576273263E-1,3.541377544E0
1.347039066E0,9.296713829E0,-4.905286431E-1,3.561118364E0
1.349420941E0,9.287740707E0,-5.288137794E-1,3.580260992E0
1.351802764E0,9.306883812E0,-5.479564071E-1,3.599403381E0
1.354184639E0,9.312267303E0,-5.718846321E-1,3.618546009E0
1.356566514E0,9.317052841E0,-5.718846321E-1,3.671188116E0
1.358948337E0,9.288339615E0,-5.670989752E-1,3.666402578E0
1.361330212E0,9.297910690E0,-5.958128572E-1,3.661616802E0
1.363712087E0,9.288339615E0,-6.053841114E-1,3.681357622E0
1.366093962E0,9.284152031E0,-6.149554253E-1,3.695714474E0
1.368475785E0,9.284152031E0,-6.436693072E-1,3.690928936E0
1.370857660E0,9.293723106E0,-6.675975323E-1,3.676572084E0
1.373239535E0,9.284749985E0,-6.867401004E-1,3.652643681E0
1.375621358E0,9.284749985E0,-6.771687865E-1,3.647858143E0
1.378003233E0,9.260223389E0,-6.586244106E-1,3.657429457E0
1.380385108E0,9.265008926E0,-6.681957245E-1,3.643072367E0
1.382766983E0,9.256035805E0,-6.681957245E-1,3.628715515E0
1.385148858E0,9.260223389E0,-6.538388133E-1,3.614358664E0
1.387530680E0,9.279366493E0,-6.490531564E-1,3.623929977E0
1.389912555E0,9.284152031E0,-6.681957245E-1,3.609572887E0
1.392294378E0,9.300303459E0,-8.506484628E-1,3.380460262E0
1.394676253E0,9.267401695E0,-8.883354068E-1,3.534198999E0
1.397058128E0,9.242876053E0,-7.884350419E-1,3.562314749E0
1.399440003E0,9.217152596E0,-6.113662124E-1,3.566502094E0
1.401821826E0,9.196215630E0,-4.336991012E-1,3.699303865E0
1.404203701E0,9.166305542E0,-3.481557071E-1,3.732803345E0
1.406585576E0,9.138189316E0,-3.583251834E-1,3.665804386E0
1.408967451E0,9.119645119E0,-4.444667995E-1,3.594617844E0
1.411349274E0,9.105886459E0,-5.024927258E-1,3.570689678E0
1.413731149E0,9.091529846E0,-4.881358147E-1,3.532404423E0
1.416113024E0,9.086744308E0,-4.737788737E-1,3.537189960E0
1.418494847E0,9.072386742E0,-4.743770957E-1,3.537189960E0
1.420876722E0,9.038887978E0,-5.030909777E-1,3.527618885E0
1.423258597E0,9.019744873E0,-5.084748268E-1,3.522833109E0
1.425640472E0,8.991629601E0,-5.324030519E-1,3.489333630E0
1.428022295E0,8.948558807E0,-5.521438122E-1,3.470789194E0
1.430404170E0,8.930013657E0,-5.676971674E-1,3.451646566E0
1.432786045E0,8.943773270E0,-5.569294691E-1,3.461217880E0
1.435167868E0,8.943773270E0,-5.473581553E-1,3.480360508E0
1.437549743E0,8.948558807E0,-5.330012441E-1,3.508476257E0
1.439931618E0,8.958129883E0,-5.377869010E-1,3.547359467E0
1.442313493E0,8.982656479E0,-5.712863803E-1,3.566502094E0
1.444695316E0,8.968298912E0,-5.665007830E-1,3.600001574E0
1.447077191E0,8.997013092E0,-6.089733839E-1,3.619144201E0
1.449459066E0,8.982656479E0,-6.137589812E-1,3.609572887E0
1.451840889E0,8.997013092E0,-6.185446382E-1,3.628715515E0
1.454222764E0,9.016754150E0,-6.376872063E-1,3.623929977E0
1.456604639E0,9.006584167E0,-6.041877270E-1,3.604787350E0
1.458986514E0,9.011369705E0,-6.041877270E-1,3.595216036E0
1.461368337E0,8.992227554E0,-5.808576941E-1,3.561716557E0
1.463750212E0,8.991629601E0,-5.617151260E-1,3.547359467E0
1.466132087E0,8.991629601E0,-5.617151260E-1,3.561716557E0
1.468513910E0,8.982057571E0,-5.419743061E-1,3.566502094E0
1.470895785E0,8.953344345E0,-5.324030519E-1,3.570689678E0
1.473277660E0,8.948558807E0,-5.473581553E-1,3.556930780E0
1.475659483E0,8.948558807E0,-5.324030519E-1,3.580859184E0
1.478041358E0,8.953344345E0,-5.324030519E-1,3.585046530E0
1.480423233E0,8.958129883E0,-5.419743061E-1,3.600001574E0
1.482805108E0,8.958129883E0,-5.467599630E-1,3.619144201E0
1.485186930E0,8.953344345E0,-5.515456200E-1,3.633501291E0
1.487568805E0,8.962915421E0,-5.180460811E-1,3.637688637E0
1.489950680E0,8.977272034E0,-5.222335458E-1,3.652045488E0
1.492332555E0,8.967700958E0,-5.036891699E-1,3.656831264E0
1.494714378E0,8.982057571E0,-5.365904570E-1,3.652643681E0
1.497096253E0,8.977272034E0,-5.228317380E-1,3.628117323E0
1.499478128E0,8.986844063E0,-5.084748268E-1,3.618546009E0
1.501859951E0,8.986245155E0,-4.941178858E-1,3.618546009E0
1.504241826E0,9.005388260E0,-4.983053207E-1,3.599403381E0
1.506623701E0,9.025128365E0,-5.222335458E-1,3.589832067E0
1.509005576E0,9.029914856E0,-5.222335458E-1,3.585046530E0
1.511387399E0,9.067601204E0,-5.072783828E-1,3.575475216E0
1.513769274E0,9.081958771E0,-4.929214716E-1,3.570689678E0
1.516151149E0,9.096315384E0,-4.929214716E-1,3.565903902E0
1.518532972E0,9.138788223E0,-4.683950245E-1,3.575475216E0
1.520914847E0,9.157930374E0,-4.588237405E-1,3.589832067E0
1.523296722E0,9.186644554E0,-4.438686073E-1,3.622733593E0
1.525678597E0,9.220144272E0,-4.336991012E-1,3.637090445E0
1.528060420E0,9.233304024E0,-3.714857101E-1,3.665804386E0
1.530442295E0,9.266803741E0,-3.373879790E-1,3.689732552E0
1.532824170E0,9.275776863E0,-2.895315289E-1,3.708276987E0
1.535205993E0,9.314062119E0,-2.847459018E-1,3.693919897E0
1.537587868E0,9.323633194E0,-2.985046208E-1,3.708276987E0
1.539969743E0,9.323633194E0,-3.272185028E-1,3.684348583E0
1.542351618E0,9.357730865E0,-3.559323549E-1,3.670589924E0
1.544733441E0,9.367302895E0,-3.942175210E-1,3.656233072E0
1.547115316E0,9.377471924E0,-4.079762697E-1,3.646661758E0
1.549497191E0,9.377471924E0,-4.079762697E-1,3.661018610E0
1.551879014E0,9.376873970E0,-3.744767308E-1,3.665804386E0
1.554260941E0,9.376873970E0,-3.840480447E-1,3.656233072E0
1.556642764E0,9.386445045E0,-3.553341627E-1,3.637090445E0
1.559024639E0,9.404989243E0,-3.361915946E-1,3.631706476E0
1.561406462E0,9.415159225E0,-3.553341627E-1,3.617349625E0
1.563788337E0,9.434301376E0,-3.984049559E-1,3.622733593E0
1.566170212E0,9.453444481E0,-4.073780477E-1,3.598805189E0
1.568552087E0,9.458230019E0,-4.121637046E-1,3.584448338E0
1.570933910E0,9.463015556E0,-3.882354796E-1,3.598805189E0
1.573315785E0,9.453444481E0,-3.649054468E-1,3.593421459E0
1.575697660E0,9.448657990E0,-3.649054468E-1,3.579064369E0
1.578079483E0,9.428917885E0,-3.361915946E-1,3.583850145E0
1.580461358E0,9.400203705E0,-3.080759048E-1,3.593421459E0
1.582843233E0,9.352347374E0,-3.086741269E-1,3.598206997E0
1.585225055E0,9.300303459E0,-3.379862010E-1,3.569493294E0
1.587606930E0,9.266803741E0,-3.475574851E-1,3.541377544E0
1.589988805E0,9.233304024E0,-3.529413342E-1,3.488735437E0
1.592370680E0,9.214161873E0,-3.535395563E-1,3.460021496E0
1.594752503E0,9.185447693E0,-3.780659735E-1,3.431307554E0
1.597134378E0,9.166305542E0,-3.780659735E-1,3.407379389E0
1.599516253E0,9.142974854E0,-3.882354796E-1,3.388236761E0
1.601898128E0,9.119047165E0,-3.930211067E-1,3.378665686E0
1.604279951E0,9.105288506E0,-4.366901219E-1,3.359523058E0
1.606661826E0,9.086145401E0,-4.319044948E-1,3.335594654E0
1.609043701E0,9.071788788E0,-4.277170599E-1,3.316452265E0
1.611425524E0,9.061619759E0,-4.229314029E-1,3.316452265E0
1.613807399E0,9.061619759E0,-4.229314029E-1,3.311666489E0
1.616189274E0,9.061619759E0,-4.229314029E-1,3.321237803E0
1.618571097E0,9.033503532E0,-4.181457460E-1,3.354737282E0
1.620952972E0,9.038289070E0,-4.229314029E-1,3.393022537E0
1.623334847E0,9.009575844E0,-4.277170599E-1,3.417548895E0
1.625716722E0,8.995218277E0,-4.229314029E-1,3.436691523E0
1.628098545E0,8.995218277E0,-4.133601189E-1,3.469592810E0
1.630480472E0,8.985049248E0,-3.942175210E-1,3.474378586E0
1.632862295E0,8.985049248E0,-3.942175210E-1,3.474378586E0
1.635244170E0,8.961718559E0,-3.942175210E-1,3.503092289E0
1.637625993E0,8.970691681E0,-3.846462369E-1,3.531806231E0
1.640007868E0,8.980861664E0,-3.936193287E-1,3.546163082E0
1.642389743E0,9.004191399E0,-3.888336718E-1,3.579662561E0
1.644771618E0,9.004789352E0,-3.984049559E-1,3.594019651E0
1.647153441E0,9.004191399E0,-3.834498227E-1,3.622733593E0
1.649535316E0,9.009575844E0,-4.121637046E-1,3.642474174E0
1.651917191E0,9.023932457E0,-4.121637046E-1,3.670589924E0
1.654299014E0,9.019146919E0,-4.265206456E-1,3.685544968E0
1.656680889E0,9.038289070E0,-4.259224236E-1,3.704687595E0
1.659062764E0,9.057432175E0,-4.402793646E-1,3.719044685E0
1.661444587E0,9.058030128E0,-4.492524564E-1,3.747758389E0
1.663826462E0,9.077172279E0,-4.540380836E-1,3.742972851E0
1.666208337E0,9.077172279E0,-4.636093974E-1,3.742972851E0
1.668590212E0,9.077172279E0,-4.731806815E-1,3.757329702E0
1.670972035E0,9.091529846E0,-4.971089065E-1,3.752544165E0
1.673353910E0,9.105886459E0,-5.012963414E-1,3.752544165E0
1.675735785E0,9.105886459E0,-5.060819983E-1,3.757329702E0
1.678117660E0,9.101698875E0,-5.156532526E-1,3.790829182E0
1.680499483E0,9.116056442E0,-5.252245665E-1,3.781257868E0
1.682881358E0,9.125627518E0,-5.252245665E-1,3.776472330E0
1.685263233E0,9.125627518E0,-5.443671346E-1,3.781257868E0
1.687645055E0,9.130413055E0,-5.389832854E-1,3.814757586E0
1.690026930E0,9.140582085E0,-5.778666735E-1,3.839283943E0
1.692408805E0,9.135198593E0,-5.682953596E-1,3.848855257E0
1.694790628E0,9.150154114E0,-5.964110494E-1,3.858426571E0
1.697172503E0,9.140582085E0,-6.203392744E-1,3.896711588E0
1.699554378E0,9.136395454E0,-6.442674994E-1,3.896711588E0
1.701936253E0,9.122037888E0,-6.490531564E-1,3.925425529E0
1.704318076E0,9.117252350E0,-6.490531564E-1,3.949951887E0
1.706699951E0,9.112466812E0,-6.681957245E-1,3.973880291E0
1.709081826E0,9.093324661E0,-6.634100676E-1,3.993022680E0
1.711463701E0,9.074779510E0,-6.687939167E-1,3.993022680E0
1.713845524E0,9.074181557E0,-6.592226624E-1,3.988237143E0
1.716227399E0,9.050253868E0,-6.448656917E-1,3.993022680E0
1.718609274E0,9.045467377E0,-6.496513486E-1,4.002593994E0
1.720991149E0,9.040681839E0,-6.400800347E-1,4.007379532E0
1.723372972E0,9.055039406E0,-6.305087805E-1,4.002593994E0
1.725754847E0,9.059824944E0,-6.544370055E-1,4.021736622E0
1.728136670E0,9.055637360E0,-6.879364848E-1,4.046263218E0
1.730518545E0,9.050851822E0,-6.879364848E-1,4.036691666E0
1.732900420E0,9.060422897E0,-6.687939167E-1,4.022335052E0
1.735282295E0,9.059824944E0,-6.448656917E-1,4.016951084E0
1.737664118E0,9.059226990E0,-6.017948985E-1,3.997808456E0
1.740045993E0,9.064610481E0,-6.496513486E-1,4.007379532E0
1.742427868E0,9.060422897E0,-6.687939167E-1,4.003192425E0
1.744809743E0,9.069993973E0,-6.927221417E-1,3.988835335E0
1.747191618E0,9.069396019E0,-6.592226624E-1,3.969094515E0
1.749573441E0,9.059824944E0,-6.113662124E-1,3.973880291E0
1.751955316E0,9.049654961E0,-5.491527915E-1,3.935595036E0
1.754337139E0,9.025128365E0,-5.395814776E-1,3.954737663E0
1.756719014E0,9.005986214E0,-5.347958803E-1,3.978665829E0
1.759100889E0,9.001798630E0,-5.736792088E-1,3.983451605E0
1.761482764E0,8.992227554E0,-5.587241054E-1,3.988237143E0
1.763864587E0,8.968298912E0,-5.401797295E-1,3.964308977E0
1.766246462E0,8.943773270E0,-5.216353536E-1,3.940380573E0
1.768628337E0,8.934201241E0,-4.881358147E-1,3.930211306E0
1.771010212E0,8.905488014E0,-4.887340367E-1,3.920041800E0
1.773392035E0,8.862417221E0,-4.941178858E-1,3.905684710E0
1.775773910E0,8.848658562E0,-5.228317380E-1,3.882354736E0
1.778155785E0,8.834300995E0,-5.419743061E-1,3.853640795E0
1.780537608E0,8.819944382E0,-5.521438122E-1,3.834498405E0
1.782919483E0,8.805587769E0,-5.623133183E-1,3.805784464E0
1.785301358E0,8.801400185E0,-6.053841114E-1,3.786641836E0
1.787683180E0,8.791828156E0,-6.251249313E-1,3.772284985E0
1.790065055E0,8.791828156E0,-6.107679605E-1,3.762713671E0
1.792446930E0,8.791828156E0,-6.155536175E-1,3.729214191E0
1.794828753E0,8.787641525E0,-6.538388133E-1,3.734597921E0
1.797210628E0,8.778069496E0,-6.777670383E-1,3.734597921E0
1.799592503E0,8.801998138E0,-6.634100676E-1,3.734597921E0
1.801974378E0,8.801998138E0,-6.729813814E-1,3.734597921E0
1.804356253E0,8.821739197E0,-7.010970116E-1,3.734597921E0
1.806738076E0,8.836095810E0,-7.345965505E-1,3.739383698E0
1.809119951E0,8.849854469E0,-6.957131624E-1,3.753740549E0
1.811501826E0,8.874381065E0,-7.387840152E-1,3.758526087E0
1.813883649E0,8.888737679E0,-7.483552694E-1,3.772883177E0
1.816265524E0,8.912666321E0,-7.525427341E-1,3.753740549E0
1.818647399E0,8.931808472E0,-7.525427341E-1,3.758526087E0
1.821029222E0,8.941379547E0,-7.573283911E-1,3.753740549E0
1.823411097E0,8.946166039E0,-7.525427341E-1,3.748954773E0
1.825792972E0,8.974879265E0,-7.567301393E-1,3.753740549E0
1.828174847E0,8.979664803E0,-7.423732281E-1,3.758526087E0
1.830556670E0,9.013164520E0,-7.417750359E-1,3.753740549E0
1.832938545E0,9.027522087E0,-7.561319470E-1,3.744169235E0
1.835320420E0,9.032307625E0,-7.417750359E-1,3.748954773E0
1.837702243E0,9.080163956E0,-7.459624410E-1,3.768097401E0
1.840084118E0,9.089735031E0,-7.507480979E-1,3.772883177E0
1.842465993E0,9.094520569E0,-7.555337548E-1,3.768097401E0
1.844847868E0,9.094520569E0,-7.459624410E-1,3.777668715E0
1.847229691E0,9.084949493E0,-7.507480979E-1,3.787240028E0
1.849611566E0,9.122636795E0,-7.357929349E-1,3.772883177E0
1.851993441E0,9.117850304E0,-7.357929349E-1,3.758526087E0
1.854375316E0,9.117850304E0,-7.310073376E-1,3.758526087E0
1.856757139E0,9.117850304E0,-7.310073376E-1,3.758526087E0
1.859139014E0,9.113064766E0,-7.124629617E-1,3.729812384E0
1.861520889E0,9.108279228E0,-7.076773047E-1,3.729812384E0
1.863902764E0,9.093922615E0,-7.172485590E-1,3.729812384E0
1.866284587E0,9.069993973E0,-7.130611539E-1,3.715455294E0
1.868666462E0,9.074779510E0,-7.082754970E-1,3.729812384E0
1.871048337E0,9.074779510E0,-7.028916478E-1,3.734597921E0
1.873430160E0,9.046066284E0,-6.891329288E-1,3.753740549E0
1.875812035E0,9.046066284E0,-6.843472719E-1,3.772883177E0
1.878193910E0,9.040681839E0,-6.652047038E-1,3.757927895E0
1.880575733E0,9.055637360E0,-6.795616150E-1,3.777668715E0
1.882957608E0,9.036494255E0,-6.843472719E-1,3.792025566E0
1.885339483E0,9.031708717E0,-6.795616150E-1,3.782454491E0
1.887721358E0,9.031110764E0,-6.508477330E-1,3.796213150E0
1.890103180E0,9.016754150E0,-6.508477330E-1,3.791427374E0
1.892485055E0,9.026325226E0,-6.460621357E-1,3.781856298E0
1.894866930E0,9.016754150E0,-6.364908218E-1,3.786641836E0
1.897248753E0,9.016754150E0,-6.412764788E-1,3.772284985E0
1.899630628E0,9.016754150E0,-6.364908218E-1,3.762713671E0
1.902012503E0,9.011968613E0,-6.227321029E-1,3.748356581E0
1.904394378E0,9.011968613E0,-6.275177598E-1,3.757927895E0
1.906776201E0,9.006584167E0,-6.035895348E-1,3.743571043E0
1.909158076E0,9.016156197E0,-6.083751321E-1,3.733999729E0
1.911539951E0,9.025727272E0,-5.844469070E-1,3.748356581E0
1.913921774E0,9.035298347E0,-5.748756528E-1,3.733999729E0
1.916303649E0,9.025727272E0,-5.599204898E-1,3.743571043E0
1.918685524E0,9.020342827E0,-5.503492355E-1,3.757927895E0
1.921067399E0,9.015557289E0,-5.407779217E-1,3.777070522E0
1.923449222E0,9.029914856E0,-5.210371017E-1,3.786043644E0
1.925831097E0,9.058628082E0,-5.449653864E-1,3.790829182E0
1.928212972E0,9.068199158E0,-5.156532526E-1,3.814757586E0
1.930594795E0,9.049057007E0,-5.210371017E-1,3.805186272E0
1.932976670E0,9.063413620E0,-5.300102234E-1,3.829114437E0
1.935358545E0,9.068199158E0,-5.347958803E-1,3.824328899E0
1.937740368E0,9.058030128E0,-5.018945336E-1,3.814757586E0
1.940122243E0,9.049057007E0,-5.066801906E-1,3.829114437E0
1.942504118E0,9.063413620E0,-5.114658475E-1,3.819543123E0
1.944885993E0,9.053842545E0,-5.066801906E-1,3.824328899E0
1.947267816E0,9.058030128E0,-5.018945336E-1,3.814757586E0
1.949649691E0,9.049057007E0,-5.162515044E-1,3.809971809E0
1.952031566E0,9.044271469E0,-5.210371017E-1,3.814757586E0
1.954413441E0,9.034700394E0,-5.018945336E-1,3.805186272E0
1.956795264E0,9.015557289E0,-5.258227587E-1,3.814757586E0
1.959177139E0,9.005986214E0,-5.072783828E-1,3.829114437E0
1.961559014E0,9.001200676E0,-5.024927258E-1,3.829114437E0
1.963940837E0,8.986844063E0,-5.168496966E-1,3.848257065E0
1.966322712E0,8.977272034E0,-5.264210105E-1,3.862613916E0
1.968704587E0,8.953344345E0,-5.359922647E-1,3.863212109E0
1.971086462E0,8.944371223E0,-5.551348329E-1,3.882354736E0
1.973468285E0,8.925228119E0,-5.653043389E-1,3.891926050E0
1.975850160E0,8.910871506E0,-5.605186820E-1,3.896711588E0
1.978232035E0,8.901300430E0,-5.557330847E-1,3.920639992E0
1.980613858E0,8.886942863E0,-5.659025311E-1,3.911068678E0
1.982995733E0,8.868398666E0,-5.754738450E-1,3.906282902E0
1.985377608E0,8.868398666E0,-5.850451589E-1,3.906282902E0
1.987759483E0,8.858827591E0,-5.802595019E-1,3.906282902E0
1.990141305E0,8.863613129E0,-5.898307562E-1,3.891926050E0
1.992523180E0,8.863613129E0,-5.808576941E-1,3.877569199E0
1.994905055E0,8.863613129E0,-5.808576941E-1,3.872783422E0
1.997286878E0,8.868398666E0,-5.898307562E-1,3.872783422E0
1.999668753E0,8.877969742E0,-5.946164131E-1,3.858426571E0
2.002050628E0,8.897112846E0,-5.946164131E-1,3.863212109E0
2.004432503E0,8.906683922E0,-5.994020700E-1,3.858426571E0
2.006814326E0,8.916254997E0,-6.233302951E-1,3.853640795E0
2.009196201E0,8.949754715E0,-6.227321029E-1,3.844069481E0
2.011578076E0,8.954540253E0,-6.370890141E-1,3.853640795E0
2.013959951E0,8.973683357E0,-6.370890141E-1,3.820141315E0
2.016341774E0,8.992825508E0,-6.370890141E-1,3.810570002E0
2.018723649E0,9.002396584E0,-6.364908218E-1,3.820141315E0
2.021105524E0,9.002396584E0,-6.125625968E-1,3.815355778E0
2.023487347E0,9.026325226E0,-6.269195080E-1,3.810570002E0
2.025869222E0,9.040083885E0,-6.125625968E-1,3.815355778E0
2.028251097E0,9.044869423E0,-6.167500615E-1,3.815355778E0
2.030632972E0,9.059824944E0,-6.358926296E-1,3.796213150E0
2.033014795E0,9.073583603E0,-6.167500615E-1,3.800998688E0
2.035396670E0,9.059226990E0,-6.167500615E-1,3.810570002E0
2.037778545E0,9.049654961E0,-6.071787477E-1,3.810570002E0
2.040160368E0,9.040083885E0,-6.077769399E-1,3.820141315E0
2.042542243E0,9.068798065E0,-5.976074338E-1,3.834498405E0
2.044924118E0,9.078369141E0,-6.023930907E-1,3.848855257E0
2.047305993E0,9.083154678E0,-6.065805554E-1,3.863212109E0
2.049687816E0,9.107083321E0,-6.161518097E-1,3.872783422E0
2.052069691E0,9.111868858E0,-6.209374666E-1,3.872783422E0
2.054451566E0,9.126225471E0,-6.065805554E-1,3.872783422E0
2.056833389E0,9.131011009E0,-5.922235847E-1,3.872783422E0
2.059215264E0,9.155537605E0,-6.346961856E-1,3.882354736E0
2.061597139E0,9.160323143E0,-6.394818425E-1,3.863212109E0
2.063979014E0,9.165108681E0,-6.825526357E-1,3.858426571E0
2.066360837E0,9.180064201E0,-7.298108935E-1,3.849453449E0
2.068742712E0,9.189635277E0,-7.393822074E-1,3.844667673E0
2.071124587E0,9.199206352E0,-7.537391186E-1,3.830310822E0
2.073506410E0,9.195018768E0,-7.776673436E-1,3.844667673E0
2.075888285E0,9.175876617E0,-8.015955687E-1,3.839882135E0
2.078270160E0,9.185447693E0,-8.111668825E-1,3.830310822E0
2.080652035E0,9.186046600E0,-8.350951076E-1,3.821337700E0
2.083033858E0,9.195617676E0,-8.685946465E-1,3.826123476E0
2.085415733E0,9.205786705E0,-9.020941257E-1,3.826123476E0
2.087797608E0,9.196215630E0,-9.116654396E-1,3.845266104E0
2.090179483E0,9.206384659E0,-9.355936646E-1,3.845266104E0
2.092561305E0,9.206384659E0,-9.493523836E-1,3.859622955E0
2.094943180E0,9.192625999E0,-9.828519225E-1,3.874577999E0
2.097325055E0,9.187840462E0,-1.011565804E0,3.879363775E0
2.099706930E0,9.173483849E0,-1.026520967E0,3.874577999E0
2.102088753E0,9.150154114E0,-1.064806104E0,3.865006685E0
2.104470628E0,9.145368576E0,-1.055234790E0,3.865006685E0
2.106852503E0,9.135796547E0,-1.050449133E0,3.860221148E0
2.109234326E0,9.121439934E0,-1.060618639E0,3.836292982E0
2.111616201E0,9.097511292E0,-1.070189953E0,3.831507206E0
2.113998076E0,9.097511292E0,-1.066002488E0,3.798007727E0
2.116379899E0,9.087940216E0,-1.080359459E0,3.755535126E0
2.118761774E0,9.069396019E0,-1.085743308E0,3.722035646E0
2.121143649E0,9.055039406E0,-1.114457130E0,3.707678795E0
2.123525524E0,9.045467377E0,-1.128814101E0,3.674179077E0
2.125907399E0,9.026923180E0,-1.143769264E0,3.621536970E0
2.128289222E0,9.007781029E0,-1.143769264E0,3.611965895E0
2.130671097E0,9.002995491E0,-1.149153113E0,3.559323788E0
2.133052920E0,8.993423462E0,-1.177866936E0,3.530609846E0
2.135434795E0,8.993423462E0,-1.173081279E0,3.497110367E0
2.137816670E0,8.993423462E0,-1.192223907E0,3.487539053E0
2.140198545E0,9.003593445E0,-1.216152072E0,3.488137245E0
2.142580368E0,9.008378983E0,-1.225723386E0,3.478565931E0
2.144962243E0,9.017950058E0,-1.225723386E0,3.473780155E0
2.147344118E0,9.013164520E0,-1.240080357E0,3.483351469E0
2.149725993E0,9.022735596E0,-1.240080357E0,3.502494097E0
2.152107816E0,9.027522087E0,-1.240080357E0,3.507279873E0
2.154489691E0,9.032307625E0,-1.230509043E0,3.512065411E0
2.156871566E0,9.022735596E0,-1.220937729E0,3.516851187E0
2.159253389E0,9.013164520E0,-1.220937729E0,3.521636724E0
2.161635264E0,8.998807907E0,-1.201795220E0,3.516851187E0
2.164017139E0,9.017352104E0,-1.177866936E0,3.525824070E0
2.166398962E0,9.007781029E0,-1.168295622E0,3.530609846E0
2.168780837E0,9.011968613E0,-1.139581800E0,3.521038532E0
2.171162712E0,8.997611046E0,-1.134796143E0,3.506681681E0
2.173544587E0,8.978468895E0,-1.140179992E0,3.482753277E0
2.175926410E0,8.969495773E0,-1.149751306E0,3.458825111E0
2.178308285E0,8.959924698E0,-1.150349498E0,3.425325632E0
2.180690160E0,8.964112282E0,-1.126421213E0,3.353540897E0
2.183071983E0,8.954540253E0,-1.127019525E0,3.286541939E0
2.185453858E0,8.954540253E0,-1.146162033E0,3.229114056E0
2.187835733E0,8.931210518E0,-1.161117196E0,3.157329559E0
2.190217608E0,8.931210518E0,-1.161715388E0,3.119044304E0
2.192599430E0,8.930612564E0,-1.156929731E0,3.075973511E0
2.194981305E0,8.887541771E0,-1.152742267E0,3.061616659E0
2.197363180E0,8.873783112E0,-1.167099237E0,3.071187973E0
2.199745003E0,8.873783112E0,-1.162313581E0,3.090330362E0
2.202126930E0,8.859425545E0,-1.147956610E0,3.119044304E0
2.204508753E0,8.873184204E0,-1.137787223E0,3.181257725E0
2.206890628E0,8.901898384E0,-1.132403374E0,3.267399311E0
2.209272451E0,8.964112282E0,-1.116850019E0,3.372683525E0
2.211654326E0,9.007183075E0,-1.120439172E0,3.482753277E0
2.214036201E0,9.083752632E0,-1.124028444E0,3.611965895E0
2.216418076E0,9.150752068E0,-1.137188911E0,3.712464333E0
2.218799899E0,9.236893654E0,-1.149751306E0,3.841676712E0
2.221181774E0,9.327820778E0,-1.158126116E0,3.933202267E0
2.223563649E0,9.418747902E0,-1.176072359E0,4.014558315E0
2.225945472E0,9.524032593E0,-1.179661512E0,4.071985722E0
2.228327347E0,9.620343208E0,-1.182652593E0,4.129413605E0
2.230709222E0,9.706484795E0,-1.186241865E0,4.172484398E0
2.233091097E0,9.792028427E0,-1.176072359E0,4.210171223E0
2.235472920E0,9.878170013E0,-1.165304661E0,4.214957237E0
2.237854795E0,9.954740524E0,-1.159920812E0,4.219742775E0
2.240236670E0,1.004028416E1,-1.139581800E0,4.181457520E0
2.242618493E0,1.008814049E1,-1.125224829E0,4.162314892E0
2.245000368E0,1.014975548E1,-1.091127157E0,4.104289055E0
2.247382243E0,1.019222832E1,-1.062413216E0,4.037290096E0
2.249764118E0,1.022034359E1,-1.043270707E0,3.960719585E0
2.252145993E0,1.025384331E1,-1.009771109E0,3.897309780E0
2.254527816E0,1.026281643E1,-9.810572863E-1,3.844667673E0
2.256909691E0,1.020538902E1,-9.631111026E-1,3.825525284E0
2.259291514E0,1.013360405E1,-9.349954724E-1,3.796811342E0
2.261673389E0,1.007557774E1,-9.164510965E-1,3.777668715E0
2.264055264E0,9.980463028E0,-9.176474810E-1,3.748954773E0
2.266437139E0,9.932008743E0,-8.901300430E-1,3.729812384E0
2.268818962E0,9.841679573E0,-9.050851464E-1,3.734597921E0
2.271200837E0,9.760323524E0,-9.056833982E-1,3.748954773E0
2.273582712E0,9.660423279E0,-9.020941257E-1,3.753740549E0
2.275964535E0,9.574281693E0,-9.128618240E-1,3.725624800E0
2.278346410E0,9.501898766E0,-9.236295223E-1,3.696911097E0
2.280728285E0,9.421140671E0,-9.242277741E-1,3.649054527E0
2.283110160E0,9.268000603E0,-9.355936646E-1,3.634697676E0
2.285491983E0,9.114859581E0,-9.134600163E-1,3.634697676E0
2.287873858E0,8.937790871E0,-8.913264275E-1,3.620340586E0
2.290255733E0,8.760722160E0,-8.458628058E-1,3.620340586E0
2.292637608E0,8.617152214E0,-8.093722463E-1,3.596412420E0
2.295019430E0,8.487939835E0,-7.579265833E-1,3.605983734E0
2.297401305E0,8.410173416E0,-7.399803996E-1,3.596412420E0
2.299783180E0,8.400602341E0,-7.160521746E-1,3.605983734E0
2.302165003E0,8.425128937E0,-6.963114142E-1,3.634697676E0
2.304546878E0,8.486743927E0,-6.813562512E-1,3.672384501E0
2.306928753E0,8.514859200E0,-6.281159520E-1,3.744169235E0
2.309310576E0,8.447860718E0,-5.808576941E-1,3.796811342E0
2.311692451E0,8.356334686E0,-5.718846321E-1,3.897309780E0
2.314074326E0,8.299505234E0,-6.149554253E-1,4.012763500E0
2.316456201E0,8.233104706E0,-6.484549642E-1,4.152145386E0
2.318838076E0,8.175676346E0,-6.388836503E-1,4.295714855E0
2.321219899E0,8.099704742E0,-6.293123364E-1,4.410570145E0
2.323601774E0,8.032705307E0,-6.442674994E-1,4.463212490E0
2.325983649E0,7.956733704E0,-6.783652306E-1,4.496711731E0
2.328365472E0,7.914260864E0,-6.981059909E-1,4.526023865E0
2.330747347E0,7.914260864E0,-7.214360237E-1,4.530809879E0
2.333129222E0,7.909475327E0,-7.220342159E-1,4.530809879E0
2.335511045E0,7.923832417E0,-7.214360237E-1,4.540380955E0
2.337892920E0,7.928617954E0,-7.262216806E-1,4.521238327E0
2.340274795E0,7.962117195E0,-7.118647099E-1,4.511667252E0
2.342656670E0,8.029116631E0,-7.543373108E-1,4.497310162E0
2.345038493E0,8.105687141E0,-7.770691514E-1,4.516452789E0
2.347420368E0,8.177471161E0,-7.471588850E-1,4.549952030E0
2.349802243E0,8.306085587E0,-7.411768436E-1,4.549354076E0
2.352184066E0,8.450253487E0,-7.776673436E-1,4.601995945E0
2.354565941E0,8.632107735E0,-7.998009920E-1,4.597210407E0
2.356947816E0,8.775676727E0,-8.410771489E-1,4.649852753E0
2.359329691E0,8.929415703E0,-8.913264275E-1,4.741377831E0
2.361711514E0,9.082556725E0,-9.320043921E-1,4.832305431E0
2.364093389E0,9.231510162E0,-9.780662656E-1,4.923232555E0
2.366475264E0,9.351150513E0,-1.028913736E0,4.975874901E0
2.368857087E0,9.509077072E0,-1.060618639E0,5.018945694E0
2.371238962E0,9.649057388E0,-1.111466169E0,4.980660439E0
2.373620837E0,9.759127617E0,-1.130010486E0,4.966303349E0
2.376002712E0,9.830911636E0,-1.134197950E0,4.918447018E0
2.378384535E0,9.892526627E0,-1.124028444E0,4.899304390E0
2.380766410E0,9.930811882E0,-1.113858938E0,4.880161762E0
2.383148285E0,9.949954987E0,-1.113858938E0,4.856233597E0
2.385530160E0,9.945169449E0,-1.119242787E0,4.789234638E0
2.387911983E0,9.939785004E0,-1.100100160E0,4.722235680E0
2.390293858E0,9.891928673E0,-1.077368379E0,4.650450706E0
2.392675733E0,9.820143700E0,-1.054636598E0,4.540380955E0
2.395057555E0,9.743574142E0,-1.065404296E0,4.463810444E0
2.397439430E0,9.662218094E0,-1.061815023E0,4.372883320E0
2.399821305E0,9.604789734E0,-1.077368379E0,4.286741734E0
2.402203180E0,9.485149384E0,-1.092921734E0,4.210171223E0
2.404585003E0,9.388837814E0,-1.051645517E0,4.128815651E0
2.406966878E0,9.270393372E0,-1.091127157E0,4.119244099E0
2.409348753E0,9.160921097E0,-1.125823021E0,4.119842529E0
2.411730576E0,9.069993973E0,-1.135992527E0,4.134199142E0
2.414112451E0,9.046066284E0,-1.136590719E0,4.148556232E0
2.416494326E0,9.008378983E0,-1.174875975E0,4.153940201E0
2.418876201E0,8.942576408E0,-1.261615753E0,4.240081787E0
2.421258024E0,8.837890625E0,-1.305284739E0,4.322035789E0
2.423639899E0,8.714061737E0,-1.311266780E0,4.365106583E0
2.426021774E0,8.584849358E0,-1.331007600E0,4.422534466E0
2.428403597E0,8.470592499E0,-1.351944804E0,4.423132420E0
2.430785472E0,8.370692253E0,-1.414756417E0,4.427918434E0
2.433167347E0,8.309076309E0,-1.482353687E0,4.438087940E0
2.435549222E0,8.237890244E0,-1.506880045E0,4.442873478E0
2.437931045E0,8.180462837E0,-1.497906923E0,4.462016106E0
2.440312920E0,8.112865448E0,-1.441675663E0,4.438087940E0
2.442694795E0,8.040482521E0,-1.408774376E0,4.414159775E0
2.445076670E0,8.001599312E0,-1.347159147E0,4.389633179E0
2.447458493E0,7.968099594E0,-1.299900889E0,4.351347923E0
2.449840368E0,7.938787460E0,-1.271785259E0,4.322634220E0
2.452222243E0,7.895716667E0,-1.258026481E0,4.317848682E0
2.454604066E0,7.905287743E0,-1.267597795E0,4.274777889E0
2.456985941E0,7.905886173E0,-1.291526079E0,4.241278172E0
2.459367816E0,7.920242786E0,-1.325025558E0,4.207778454E0
2.461749691E0,7.886743546E0,-1.325623751E0,4.183850288E0
2.464131514E0,7.848458290E0,-1.326221943E0,4.159922123E0
2.466513389E0,7.819744587E0,-1.326820135E0,4.112065792E0
2.468895264E0,7.771887779E0,-1.313061476E0,4.092923164E0
2.471277139E0,7.733603001E0,-1.313659668E0,4.049852371E0
2.473658962E0,7.691130161E0,-1.328016520E0,4.069592953E0
2.476040837E0,7.686344624E0,-1.342373490E0,4.107878208E0
2.478422712E0,7.677371502E0,-1.375872970E0,4.107878208E0
2.480804535E0,7.686942577E0,-1.390229940E0,4.098307133E0
2.483186410E0,7.677371502E0,-1.395015597E0,4.127020836E0
2.485568285E0,7.686942577E0,-1.380658627E0,4.136591911E0
2.487950108E0,7.701299667E0,-1.403988719E0,4.155734539E0
2.490331983E0,7.720442295E0,-1.403988719E0,4.198805332E0
2.492713858E0,7.730013371E0,-1.389033556E0,4.222733974E0
2.495095733E0,7.744370461E0,-1.384247899E0,4.284946918E0
2.497477555E0,7.762914658E0,-1.345364571E0,4.337589264E0
2.499859430E0,7.758129120E0,-1.326221943E0,4.409373760E0
2.502241305E0,7.738986492E0,-1.335793257E0,4.433301926E0
2.504623180E0,7.815557003E0,-1.325025558E0,4.433301926E0
2.507005003E0,7.868198872E0,-1.329213023E0,4.437489510E0
2.509386878E0,7.901698589E0,-1.329213023E0,4.408775806E0
2.511768753E0,7.906484127E0,-1.343569875E0,4.380660057E0
2.514150576E0,7.958528042E0,-1.338784218E0,4.336990833E0
2.516532451E0,8.026124954E0,-1.371685624E0,4.294518471E0
2.518914326E0,8.102097511E0,-1.370489120E0,4.265206337E0
2.521296149E0,8.121239662E0,-1.346560955E0,4.293920040E0
2.523678024E0,8.159524918E0,-1.341177106E0,4.289134502E0
2.526059899E0,8.206783295E0,-1.317248821E0,4.269991875E0
2.528441774E0,8.254639626E0,-1.292722464E0,4.265206337E0
2.530823597E0,8.316255569E0,-1.277767301E0,4.264608383E0
2.533205472E0,8.378468513E0,-1.272383451E0,4.264608383E0
2.535587347E0,8.479565620E0,-1.304088354E0,4.302893162E0
2.537969170E0,8.589036942E0,-1.259821177E0,4.336392879E0
2.540351045E0,8.650651932E0,-1.220937729E0,4.412364960E0
2.542732920E0,8.641080856E0,-1.201196909E0,4.488935471E0
2.545114795E0,8.621937752E0,-1.167697430E0,4.532006264E0
2.547496618E0,8.673981667E0,-1.157527924E0,4.565505505E0
2.549878493E0,8.707481384E0,-1.137787223E0,4.594219685E0
2.552260368E0,8.726624489E0,-1.128215909E0,4.637290478E0
2.554642243E0,8.707481384E0,-1.118644595E0,4.661218643E0
2.557024066E0,8.736195564E0,-1.127617717E0,4.680361271E0
2.559405941E0,8.797810555E0,-1.117448211E0,4.670789719E0
2.561787816E0,8.831310272E0,-1.131805062E0,4.666004181E0
2.564169639E0,8.831310272E0,-1.088734269E0,4.636692047E0
2.566551514E0,8.806783676E0,-1.046261668E0,4.617549419E0
2.568933389E0,8.792427063E0,-1.046261668E0,4.593621254E0
2.571315264E0,8.816953659E0,-1.108475089E0,4.550550461E0
2.573697087E0,8.874381065E0,-1.136590719E0,4.498506546E0
2.576078962E0,8.898308754E0,-1.165304661E0,4.455435753E0
2.578460837E0,8.922835350E0,-1.179661512E0,4.426722050E0
2.580842660E0,8.960522652E0,-1.150349498E0,4.392624378E0
2.583224535E0,8.979664803E0,-1.131206870E0,4.368695736E0
2.585606410E0,8.970093727E0,-1.140778184E0,4.368695736E0
2.587988285E0,8.955737114E0,-1.155733347E0,4.378865242E0
2.590370108E0,8.979664803E0,-1.159920812E0,4.364508629E0
2.592752035E0,9.003593445E0,-1.183848977E0,4.369294167E0
2.595133858E0,9.013164520E0,-1.192822099E0,4.383651257E0
2.597515733E0,9.008976936E0,-1.192822099E0,4.417150497E0
2.599897555E0,9.017950058E0,-1.188036442E0,4.417150497E0
2.602279430E0,9.003593445E0,-1.164108157E0,4.412364960E0
2.604661305E0,8.999405861E0,-1.192822099E0,4.455435753E0
2.607043128E0,8.999405861E0,-1.226321578E0,4.488935471E0
2.609425003E0,8.995218277E0,-1.283749342E0,4.503292084E0
2.611806878E0,9.005388260E0,-1.307079315E0,4.537389755E0
2.614188753E0,8.952746391E0,-1.298106313E0,4.561318398E0
2.616570576E0,8.899505615E0,-1.265205026E0,4.585246563E0
2.618952451E0,8.856434822E0,-1.213161111E0,4.579862595E0
2.621334326E0,8.851051331E0,-1.155733347E0,4.570291042E0
2.623716149E0,8.845666885E0,-1.127019525E0,4.570291042E0
2.626098076E0,8.802596092E0,-1.094118118E0,4.564907551E0
2.628479899E0,8.768498421E0,-1.066002488E0,4.588835716E0
2.630861774E0,8.749356270E0,-1.022931695E0,4.588835716E0
2.633243597E0,8.720044136E0,-9.852447510E-1,4.598406792E0
2.635625472E0,8.696115494E0,-9.756734371E-1,4.574478626E0
2.638007347E0,8.705686569E0,-9.948160052E-1,4.545764923E0
2.640389170E0,8.711071014E0,-1.014556766E0,4.507479668E0
2.642771045E0,8.691927910E0,-1.019342422E0,4.473979950E0
2.645152920E0,8.634500504E0,-1.048654556E0,4.445266247E0
2.647534795E0,8.639286041E0,-1.054038405E0,4.387838364E0
2.649916618E0,8.587242126E0,-1.064207911E0,4.335196495E0
2.652298493E0,8.577671051E0,-1.073779106E0,4.296911240E0
2.654680368E0,8.557929993E0,-1.055234790E0,4.253840446E0
2.657062243E0,8.525029182E0,-1.065404296E0,4.229912281E0
2.659444066E0,8.477172852E0,-1.066002488E0,4.244867325E0
2.661825941E0,8.476573944E0,-1.042074203E0,4.205984116E0
2.664207816E0,8.467600822E0,-1.089930773E0,4.173082829E0
2.666589639E0,8.463413239E0,-1.137787223E0,4.206582069E0
2.668971514E0,8.454441071E0,-1.185643673E0,4.216153622E0
2.671353389E0,8.430512428E0,-1.195214868E0,4.250251293E0
2.673735264E0,8.382058144E0,-1.191027522E0,4.269393921E0
2.676117087E0,8.386843681E0,-1.181456208E0,4.283750534E0
2.678498962E0,8.372486115E0,-1.181456208E0,4.298107624E0
2.680880837E0,8.344370842E0,-1.191027522E0,4.298107624E0
2.683262660E0,8.334799767E0,-1.191027522E0,4.312464714E0
2.685644535E0,8.358727455E0,-1.191027522E0,4.302893162E0
2.688026410E0,8.349156380E0,-1.214955688E0,4.331607342E0
2.690408285E0,8.339585304E0,-1.191027522E0,4.369892120E0
2.692790108E0,8.334799767E0,-1.210170031E0,4.403391838E0
2.695171983E0,8.339585304E0,-1.180858016E0,4.432105541E0
2.697553858E0,8.315058708E0,-1.162313581E0,4.475176334E0
2.699935680E0,8.252845764E0,-1.124626637E0,4.498506546E0
2.702317555E0,8.243273735E0,-1.100698471E0,4.498506546E0
2.704699430E0,8.252246857E0,-1.071984529E0,4.460221291E0
2.707081305E0,8.275577545E0,-1.038485050E0,4.431507587E0
2.709463128E0,8.309076309E0,-1.013958573E0,4.440480709E0
2.711845003E0,8.370692253E0,-9.894321561E-1,4.459623337E0
2.714226878E0,8.394619942E0,-9.702895880E-1,4.488337040E0
2.716608753E0,8.413763046E0,-9.696913958E-1,4.560121536E0
2.718990576E0,8.399405479E0,-9.643075466E-1,4.622334957E0
2.721372451E0,8.413763046E0,-9.786644578E-1,4.674977303E0
2.723754326E0,8.434102058E0,-1.006780148E0,4.751547337E0
2.726136149E0,8.424530029E0,-1.044467092E0,4.823930264E0
2.728518024E0,8.439485550E0,-1.072582722E0,4.890929699E0
2.730899899E0,8.439485550E0,-1.096511006E0,4.943571568E0
2.733281774E0,8.435297966E0,-1.106082320E0,4.977071285E0
2.735663597E0,8.449654579E0,-1.153340459E0,4.977071285E0
2.738045472E0,8.464610100E0,-1.205982566E0,4.992026329E0
2.740427347E0,8.517850876E0,-1.248455167E0,4.982454777E0
2.742809170E0,8.566305161E0,-1.314856052E0,4.992624283E0
2.745191045E0,8.609973907E0,-1.362114310E0,5.006981373E0
2.747572920E0,8.662615776E0,-1.409372568E0,5.011766911E0
2.749954795E0,8.696713448E0,-1.451845169E0,5.011766911E0
2.752336618E0,8.730812073E0,-1.494317770E0,5.026721954E0
2.754718493E0,8.726025581E0,-1.518245935E0,5.060820103E0
2.757100368E0,8.749954224E0,-1.508076429E0,5.113461971E0
2.759482191E0,8.730812073E0,-1.508076429E0,5.156532764E0
2.761864066E0,8.711071014E0,-1.465005636E0,5.199603558E0
2.764245941E0,8.691927910E0,-1.445863128E0,5.213362217E0
2.766627816E0,8.687142372E0,-1.432104349E0,5.208576679E0
2.769009639E0,8.681758881E0,-1.398604870E0,5.175076962E0
2.771391514E0,8.672187805E0,-1.370489120E0,5.103292465E0
2.773773389E0,8.633902550E0,-1.375872970E0,5.050052166E0
2.776155212E0,8.605188370E0,-1.390828133E0,4.978267670E0
2.778537087E0,8.557332039E0,-1.377069473E0,4.901697159E0
2.780918962E0,8.494520187E0,-1.339980721E0,4.810770035E0
2.783300837E0,8.465806961E0,-1.307079315E0,4.748556614E0
2.785682660E0,8.422137260E0,-1.260419369E0,4.690530777E0
2.788064535E0,8.373682976E0,-1.232303619E0,4.647459984E0
2.790446410E0,8.339585304E0,-1.185045362E0,4.628317356E0
2.792828285E0,8.301300049E0,-1.156331539E0,4.657031059E0
2.795210108E0,8.262416840E0,-1.123430252E0,4.689932346E0
2.797591983E0,8.262416840E0,-1.099501967E0,4.694717884E0
2.799973858E0,8.275577545E0,-1.013360381E0,4.709074974E0
2.802355680E0,8.284550667E0,-9.511470199E-1,4.756333351E0
2.804737608E0,8.303692818E0,-9.409775138E-1,4.765904427E0
2.807119430E0,8.309076309E0,-9.882357717E-1,4.852046013E0
2.809501305E0,8.342576027E0,-1.021137118E0,4.919643402E0
2.811883128E0,8.361719131E0,-1.010967612E0,4.986044407E0
2.814265003E0,8.375477791E0,-9.487541914E-1,5.014758110E0
2.816646878E0,8.404191017E0,-9.146564603E-1,5.058426857E0
2.819028753E0,8.408378601E0,-8.955138922E-1,5.087141037E0
2.821410576E0,8.423334122E0,-8.757730722E-1,5.124827862E0
2.823792451E0,8.437092781E0,-8.327022791E-1,5.167898655E0
2.826174326E0,8.460422516E0,-7.794619799E-1,5.187041283E0
2.828556149E0,8.484351158E0,-7.507480979E-1,5.210371494E0
2.830938024E0,8.498109818E0,-7.076773047E-1,5.215157032E0
2.833319899E0,8.530412674E0,-6.400800347E-1,5.200201988E0
2.835701774E0,8.568099976E0,-5.922235847E-1,5.157131195E0
2.838083597E0,8.596215248E0,-5.054838061E-1,5.127819061E0
2.840465472E0,8.618947029E0,-4.193421602E-1,5.099104881E0
2.842847347E0,8.632705688E0,-3.427718580E-1,5.065007210E0
2.845229170E0,8.646464348E0,-2.949153781E-1,5.021338463E0
2.847611097E0,8.636893272E0,-2.907279432E-1,4.987240791E0
2.849992920E0,8.645866394E0,-2.620140910E-1,4.958526611E0
2.852374795E0,8.630910873E0,-2.237289101E-1,4.939383984E0
2.854756618E0,8.606983185E0,-1.956132501E-1,4.915455818E0
2.857138493E0,8.602197647E0,-2.105683982E-1,4.877170563E0
2.859520368E0,8.593224525E0,-2.392822653E-1,4.853242397E0
2.861902191E0,8.602795601E0,-2.584248483E-1,4.810171604E0
2.864284066E0,8.608179092E0,-2.967100143E-1,4.782055855E0
2.866665941E0,8.618349075E0,-4.019941986E-1,4.767699242E0
2.869047816E0,8.629117012E0,-5.210371017E-1,4.725226402E0
2.871429639E0,8.639883995E0,-6.077769399E-1,4.701896667E0
2.873811514E0,8.683553696E0,-6.843472719E-1,4.658825874E0
2.876193389E0,8.746364594E0,-7.746763229E-1,4.606781960E0
2.878575264E0,8.837890625E0,-8.410771489E-1,4.491926193E0
2.880957087E0,8.924032211E0,-8.787640929E-1,4.400999069E0
2.883338962E0,9.025128365E0,-9.206385016E-1,4.305884361E0
2.885720837E0,9.153742790E0,-9.296116233E-1,4.176073551E0
2.888102660E0,9.282955170E0,-9.625129104E-1,4.037290096E0
2.890484535E0,9.425926208E0,-9.469595551E-1,3.907479286E0
2.892866410E0,9.594022751E0,-9.936196208E-1,3.768695593E0
2.895248285E0,9.742377281E0,-1.006780148E0,3.672982693E0
2.897630108E0,9.900303841E0,-1.024726272E0,3.591626883E0
2.900011983E0,1.008156013E1,-1.046859860E0,3.553341627E0
2.902393858E0,1.029272652E1,-1.101894855E0,3.524627686E0
2.904775680E0,1.050329494E1,-1.161715388E0,3.529413462E0
2.907157555E0,1.070010471E1,-1.211964726E0,3.577269793E0
2.909539430E0,1.088255692E1,-1.300499082E0,3.654438496E0
2.911921305E0,1.106501007E1,-1.365105271E0,3.745365620E0
2.914303128E0,1.127139091E1,-1.429113269E0,3.855435371E0
2.916685003E0,1.142991543E1,-1.498505235E0,4.009174347E0
2.919066878E0,1.160698414E1,-1.552941918E0,4.172484398E0
2.921448753E0,1.176550865E1,-1.607378602E0,4.359124660E0
2.923830576E0,1.194796181E1,-1.643270969E0,4.560121536E0
2.926212451E0,1.210110188E1,-1.664208174E0,4.727619171E0
2.928594326E0,1.227817154E1,-1.676172256E0,4.923830986E0
2.930976149E0,1.246002579E1,-1.697707653E0,5.115854740E0
2.933344743E0,1.261795235E1,-1.685145378E0,5.331208706E0
2.935739899E0,1.278485107E1,-1.663011789E0,5.531607628E0
2.938121722E0,1.292363548E1,-1.617548108E0,5.703890800E0
2.940503597E0,1.303789234E1,-1.539183140E0,5.880361557E0
2.942885472E0,1.313719463E1,-1.446461320E0,6.032904148E0
2.945267347E0,1.320778275E1,-1.325623751E0,6.151947021E0
2.947649222E0,1.327358532E1,-1.234098315E0,6.228517532E0
2.950031045E0,1.330110264E1,-1.118644595E0,6.275775433E0
2.952412920E0,1.330469227E1,-1.027717352E0,6.314060688E0
2.954794795E0,1.330887985E1,-9.702895880E-1,6.313462734E0
2.957176618E0,1.328495121E1,-9.421738982E-1,6.294320107E0
2.959558493E0,1.324666595E1,-9.565308690E-1,6.284748554E0
2.961940368E0,1.318026543E1,-9.816554785E-1,6.251847267E0
2.964322191E0,1.310907841E1,-1.068395257E0,6.218348026E0
2.966704066E0,1.305823135E1,-1.193420291E0,6.117849350E0
2.969085941E0,1.297807217E1,-1.314856052E0,5.998806477E0
2.971467816E0,1.289252853E1,-1.454836130E0,5.831906796E0
2.973849639E0,1.279382420E1,-1.571486235E0,5.650650501E0
2.976231566E0,1.271366501E1,-1.702493310E0,5.484349728E0
2.978613389E0,1.262871933E1,-1.823929071E0,5.264808178E0
2.980995212E0,1.254377460E1,-1.945364833E0,5.030311584E0
2.983377087E0,1.245882893E1,-2.071586132E0,4.839483738E0
2.985758962E0,1.238345528E1,-2.178664923E0,4.643272400E0
2.988140837E0,1.233200932E1,-2.313859463E0,4.429114819E0
2.990522712E0,1.229492092E1,-2.415554523E0,4.213760853E0
2.992904535E0,1.227218914E1,-2.507678032E0,4.008575916E0
2.995286410E0,1.225843048E1,-2.575275421E0,3.821337700E0
2.997668285E0,1.222552872E1,-2.662613392E0,3.620938778E0
3.000050108E0,1.224526978E1,-2.768495798E0,3.410968781E0
3.002431983E0,1.227039433E1,-2.860619545E0,3.243471146E0
3.004800576E0,1.229492092E1,-2.922832966E0,3.086143017E0
3.007195680E0,1.231466198E1,-3.028715372E0,2.933600664E0
3.009577555E0,1.230090332E1,-3.105883837E0,2.803789854E0
3.011959430E0,1.231585789E1,-3.168097258E0,2.684746981E0
3.014341305E0,1.229252815E1,-3.202793121E0,2.555534601E0
3.016723128E0,1.227338600E1,-3.232105255E0,2.459821701E0
3.019105003E0,1.222612762E1,-3.261417150E0,2.359323025E0
3.021486878E0,1.215912819E1,-3.276970625E0,2.273779631E0
3.023868753E0,1.213520050E1,-3.287140131E0,2.206780672E0
3.026250576E0,1.207777214E1,-3.273979664E0,2.134995937E0
3.028632451E0,1.199163055E1,-3.227319479E0,2.105684042E0
3.031014326E0,1.192822075E1,-3.136990547E0,2.072184324E0
3.033396149E0,1.187976646E1,-3.041875839E0,2.047657967E0
3.035778024E0,1.180199909E1,-2.947359324E0,2.066202402E0
3.038159899E0,1.171406364E1,-2.818745136E0,2.123630047E0
3.040541722E0,1.162612724E1,-2.632703066E0,2.179861546E0
3.042923597E0,1.156271744E1,-2.475374937E0,2.231905222E0
3.045305472E0,1.149930763E1,-2.346760750E0,2.322234392E0
3.047687347E0,1.144068336E1,-2.199003935E0,2.446063042E0
3.050069170E0,1.139641571E1,-2.084148407E0,2.565704107E0
3.052451045E0,1.132822037E1,-1.954936147E0,2.703889608E0
3.054832920E0,1.127438164E1,-1.830509305E0,2.842673302E0
3.057214743E0,1.118764210E1,-1.707278967E0,2.942573547E0
3.059596618E0,1.111884880E1,-1.558923960E0,3.028116941E0
3.061978493E0,1.106979561E1,-1.434497118E0,3.128017426E0
3.064360368E0,1.099262714E1,-1.353739381E0,3.180659533E0
3.066742191E0,1.093460083E1,-1.258624673E0,3.247060299E0
3.069124066E0,1.083829021E1,-1.192822099E0,3.266202927E0
3.071505941E0,1.076590729E1,-1.102493048E0,3.284747362E0
3.073887816E0,1.067438221E1,-1.046261668E0,3.222533941E0
3.076269639E0,1.058225822E1,-9.756734371E-1,3.202793121E0
3.078651514E0,1.048594666E1,-8.817551732E-1,3.131008387E0
3.081033389E0,1.035613632E1,-8.021938205E-1,3.068196774E0
3.083415212E0,1.022572803E1,-7.082754970E-1,2.977269650E0
3.085797087E0,1.008156013E1,-6.005984545E-1,2.880958557E0
3.088178962E0,9.942177773E0,-5.443671346E-1,2.794218540E0
3.090560837E0,9.812367439E0,-4.510470629E-1,2.697907448E0
3.092942660E0,9.696913719E0,-3.804588020E-1,2.621337175E0
3.095324535E0,9.586245537E0,-3.391826153E-1,2.554338217E0
3.097706410E0,9.456435204E0,-3.074777126E-1,2.477767944E0
3.100088233E0,9.293723106E0,-2.859423161E-1,2.425125837E0
3.102470108E0,9.150752068E0,-3.068794906E-1,2.372483730E0
3.104851983E0,9.002995491E0,-3.272185028E-1,2.362912416E0
3.107233858E0,8.825926781E0,-3.385843933E-1,2.358724833E0
3.109615680E0,8.673383713E0,-3.355933726E-1,2.349153519E0
3.111997555E0,8.525029182E0,-3.230310678E-1,2.339582443E0
3.114379430E0,8.328817368E0,-3.349951804E-1,2.349153519E0
3.116761305E0,8.171489716E0,-3.409772217E-1,2.373680115E0
3.119143128E0,7.994420528E0,-3.188436031E-1,2.388036966E0
3.121525003E0,7.841279984E0,-3.206382394E-1,2.364108801E0
3.123906878E0,7.683353424E0,-2.943171859E-1,2.316252232E0
3.126288701E0,7.539783955E0,-2.673979402E-1,2.244467735E0
3.128670576E0,7.387241840E0,-2.644068897E-1,2.172683001E0
3.131052451E0,7.290332317E0,-2.470589429E-1,2.043470621E0
3.133434326E0,7.199405193E0,-2.297109663E-1,1.933400750E0
3.135816149E0,7.156932354E0,-2.685943544E-1,1.771286964E0
3.138198024E0,7.119245529E0,-3.230310678E-1,1.574477315E0
3.140579899E0,7.119245529E0,-3.523431420E-1,1.383051515E0
3.142961722E0,7.104888439E0,-3.535395563E-1,1.210768223E0
3.145343597E0,7.071389198E0,-3.595215976E-1,1.019342422E0
3.147725472E0,7.075576782E0,-3.505485058E-1,8.422735929E-1
3.150107347E0,7.055835724E0,-3.038884699E-1,6.939185858E-1
3.152489170E0,7.040880680E0,-2.374876440E-1,5.784648657E-1
3.154871045E0,7.016354084E0,-1.950150430E-1,4.725824594E-1
3.157252920E0,6.992425919E0,-1.812563092E-1,3.960121572E-1
3.159634795E0,6.987640381E0,-1.722832322E-1,3.529413342E-1
3.162016618E0,7.040282249E0,-2.147558331E-1,3.242274821E-1
3.164398493E0,7.122236729E0,-2.566302419E-1,3.385843933E-1
3.166780368E0,7.218547821E0,-3.128615618E-1,4.199403822E-1
3.169162191E0,7.344171047E0,-3.774677813E-1,5.162515044E-1
3.171544066E0,7.449455261E0,-4.283152521E-1,6.508477330E-1
3.173925941E0,7.526623726E0,-4.839483798E-1,8.279166222E-1
3.176307816E0,7.618149281E0,-5.204389095E-1,1.010369420E0
3.178689639E0,7.680362701E0,-5.335994363E-1,1.225723386E0
3.181071514E0,7.747361660E0,-5.461617708E-1,1.426720500E0
3.183453389E0,7.795815945E0,-5.587241054E-1,1.622931957E0
3.185835264E0,7.829914093E0,-6.203392744E-1,1.838884234E0
3.188217087E0,7.916055679E0,-6.568298340E-1,2.001596212E0
3.190598962E0,7.989036560E0,-7.172485590E-1,2.136192322E0
3.192980837E0,8.032107353E0,-7.597211599E-1,2.265404940E0
3.195362660E0,8.013563156E0,-7.686942816E-1,2.418545485E0
3.197744535E0,8.056633949E0,-8.009973764E-1,2.505285263E0
3.200126410E0,8.129016876E0,-8.530412912E-1,2.510071039E0
3.202508285E0,8.148757935E0,-9.194421172E-1,2.514856577E0
3.204890160E0,8.125427246E0,-9.822536707E-1,2.467598438E0
3.207271983E0,8.059026718E0,-1.036092162E0,2.371885538E0
3.209653858E0,8.030911446E0,-1.055832982E0,2.285743713E0
3.212035680E0,7.978269100E0,-1.066002488E0,2.171486616E0
3.214417555E0,7.950153351E0,-1.124626637E0,2.075773716E0
3.216799430E0,7.978867054E0,-1.171884894E0,2.018345833E0
3.219181305E0,8.007580757E0,-1.167099237E0,1.951346874E0
3.221563128E0,8.007580757E0,-1.191027522E0,1.927418590E0
3.223945003E0,8.037490845E0,-1.262812138E0,1.894517303E0
3.226326878E0,7.995018482E0,-1.325623751E0,1.884945989E0
3.228708701E0,7.923832417E0,-1.364507079E0,1.856830359E0
3.231090576E0,7.828119278E0,-1.370489120E0,1.828116536E0
3.233472451E0,7.765905857E0,-1.338186026E0,1.775474429E0
3.235854326E0,7.712665558E0,-1.295713425E0,1.756331801E0
3.238236201E0,7.697710514E0,-1.205384374E0,1.746162295E0
3.240618024E0,7.648657799E0,-1.124626637E0,1.740778446E0
3.242999899E0,7.580461979E0,-9.768698215E-1,1.764108539E0
3.245381774E0,7.540980339E0,-8.482556343E-1,1.797009826E0
3.247763597E0,7.520043373E0,-6.957131624E-1,1.810768485E0
3.250145472E0,7.533204079E0,-5.467599630E-1,1.776670814E0
3.252527347E0,7.550551891E0,-3.984049559E-1,1.752144337E0
3.254909170E0,7.510472298E0,-2.362912297E-1,1.746760488E0
3.257291045E0,7.490133286E0,-8.853443712E-2,1.741376638E0
3.259672920E0,7.479365349E0,2.093719877E-2,1.755135417E0
3.262054795E0,7.516454220E0,9.810572863E-2,1.759322882E0
3.264436618E0,7.625925541E0,1.423729509E-1,1.778465390E0
3.266818493E0,7.754539967E0,1.818545163E-1,1.777867198E0
3.269200368E0,7.902296543E0,2.315055877E-1,1.801795483E0
3.271582243E0,8.006384850E0,3.140579760E-1,1.887338877E0
3.273964066E0,8.025527000E0,3.385843933E-1,1.930409670E0
3.276345941E0,8.063214302E0,3.678964674E-1,1.968096614E0
3.278727816E0,8.111070633E0,3.637090325E-1,2.025524378E0
3.281109639E0,8.148757935E0,4.073780477E-1,2.063809633E0
3.283491514E0,8.229515076E0,4.510470629E-1,2.058425665E0
3.285873389E0,8.324629784E0,5.144568682E-1,2.072782516E0
3.288255264E0,8.395217896E0,5.778666735E-1,2.048256159E0
3.290637139E0,8.505886078E0,5.838487148E-1,2.043470621E0
3.293018962E0,8.572287560E0,6.035895348E-1,2.053041935E0
3.295400837E0,8.658429146E0,5.808576941E-1,2.062613010E0
3.297782660E0,8.748757362E0,6.299105883E-1,2.119442701E0
3.300164535E0,8.810373306E0,6.735795736E-1,2.157727718E0
3.302546410E0,8.882157326E0,6.795616150E-1,2.210369825E0
3.304928285E0,8.968897820E0,6.281159520E-1,2.272583246E0
3.307310160E0,9.031708717E0,5.766702294E-1,2.334796667E0
3.309691983E0,9.104091644E0,5.102694035E-1,2.388036966E0
3.312073858E0,9.142974854E0,4.582255483E-1,2.440679073E0
3.314455733E0,9.181859016E0,3.870390654E-1,2.465205431E0
3.316837555E0,9.225527763E0,3.302095234E-1,2.513062000E0
3.319219430E0,9.269196510E0,2.452643216E-1,2.566302299E0
3.321601305E0,9.317651749E0,1.836491376E-1,2.590230465E0
3.323983128E0,9.375677109E0,1.220339537E-1,2.600399971E0
3.326365003E0,9.395418167E0,6.041877344E-2,2.624328136E0
3.328746878E0,9.391230583E0,-1.196411322E-3,2.686541557E0
3.331128753E0,9.387641907E0,-8.255238086E-2,2.701496840E0
3.333510576E0,9.393025398E0,-1.591227055E-1,2.740380049E0
3.335892451E0,9.455837250E0,-2.488535494E-1,2.778665304E0
3.338274326E0,9.514460564E0,-3.768695593E-1,2.813361168E0
3.340656149E0,9.538987160E0,-4.199403822E-1,2.833101988E0
3.343038024E0,9.569496155E0,-5.000999570E-1,2.895315409E0
3.345419899E0,9.632905960E0,-6.287141442E-1,2.996412039E0
3.347801774E0,9.591031075E0,-7.531409264E-1,3.068794966E0
3.350183597E0,9.372088432E0,-8.512466550E-1,3.045464993E0
3.352565472E0,8.976076126E0,-8.985049129E-1,3.007778168E0
3.354947347E0,8.709874153E0,-1.054038405E0,3.052045345E0
3.357329170E0,8.684151649E0,-1.292124271E0,3.287738323E0
3.359711045E0,8.772686005E0,-1.515254974E0,3.422334671E0
3.362092920E0,8.912068367E0,-1.633101463E0,3.442075491E0
3.364474795E0,9.017950058E0,-1.690529227E0,3.370290756E0
3.366856618E0,9.108877182E0,-1.713859200E0,3.269792080E0
3.369238493E0,9.209376335E0,-1.727617979E0,3.131008387E0
3.371620368E0,9.314660072E0,-1.755733609E0,2.968296528E0
3.374002191E0,9.413962364E0,-1.731805444E0,2.737987280E0
3.376384066E0,9.447462082E0,-1.704287887E0,2.488535643E0
3.378765941E0,9.527621269E0,-1.655833244E0,2.301895380E0
3.381147816E0,9.617950439E0,-1.584048629E0,2.138585329E0
3.383529639E0,9.655637741E0,-1.502692580E0,2.042274237E0
3.385911514E0,9.673583984E0,-1.402194023E0,1.960918188E0
3.388293389E0,9.715457916E0,-1.306481123E0,1.922034740E0
3.390675264E0,9.795618057E0,-1.195813060E0,1.931007862E0
3.393057139E0,9.894919395E0,-1.122832060E0,1.973480463E0
3.395438962E0,9.985248566E0,-1.049850941E0,2.035095692E0
3.397820837E0,1.005105114E1,-9.720842242E-1,2.154736757E0
3.400202660E0,1.007438183E1,-8.997012973E-1,2.316850424E0
3.402584535E0,1.010249710E1,-8.506484628E-1,2.489133835E0
3.404966410E0,1.009292603E1,-7.974081635E-1,2.666202545E0
3.407348285E0,1.006361389E1,-7.250252366E-1,2.819343328E0
3.409730108E0,9.977472305E0,-6.873382926E-1,2.991626501E0
3.412111983E0,9.900901794E0,-6.634100676E-1,3.149552822E0
3.414493858E0,9.891330719E0,-6.771687865E-1,3.264408350E0
3.416875733E0,9.839286804E0,-7.106683254E-1,3.364906788E0
3.419257555E0,9.720243454E0,-7.166503668E-1,3.489931822E0
3.421639430E0,9.590433121E0,-6.406782866E-1,3.613760471E0
3.424021305E0,9.503693581E0,-6.269195080E-1,3.661616802E0
3.426403128E0,9.451051712E0,-6.089733839E-1,3.652045488E0
3.428785003E0,9.402596474E0,-5.515456200E-1,3.580260992E0
3.431166878E0,9.296713829E0,-4.863412082E-1,3.508476257E0
3.433548753E0,9.190233231E0,-3.535395563E-1,3.464807272E0
3.435930628E0,9.122636795E0,-2.685943544E-1,3.382853031E0
3.438312451E0,9.078967094E0,-2.075773627E-1,3.277568817E0
3.440694326E0,9.059226990E0,-1.507478207E-1,3.186043262E0
3.443076201E0,9.015557289E0,-1.322034448E-1,3.166900873E0
3.445458024E0,8.953344345E0,-9.990034252E-2,3.162115097E0
3.447839899E0,8.905488014E0,-7.657032460E-2,3.123830080E0
3.450221774E0,8.852247238E0,-5.324030295E-2,3.114258766E0
3.452603597E0,8.818747520E0,-5.383851007E-2,3.123830080E0
3.454985472E0,8.785248756E0,3.589233849E-3,3.123231649E0
3.457367347E0,8.775078773E0,4.127619043E-2,3.123231649E0
3.459749222E0,8.726624489E0,9.810572863E-2,3.132802963E0
3.462131097E0,8.706883430E0,1.603191197E-1,3.136990547E0
3.464512920E0,8.701499939E0,2.368894368E-1,3.136990547E0
3.466894795E0,8.681758881E0,3.086741269E-1,3.189034462E0
3.469276618E0,8.700303078E0,3.469592929E-1,3.222533941E0
3.471658493E0,8.733204842E0,3.714857101E-1,3.222533941E0
3.474040368E0,8.737990379E0,3.810569942E-1,3.236890793E0
3.476422243E0,8.742775917E0,4.049852192E-1,3.226721287E0
3.478804066E0,8.761918068E0,3.954139352E-1,3.241676569E0
3.481185941E0,8.752346992E0,3.858426511E-1,3.260818958E0
3.483567816E0,8.714659691E0,3.619144261E-1,3.279961586E0
3.485949639E0,8.686544418E0,3.140579760E-1,3.327818155E0
3.488331514E0,8.672785759E0,2.566302419E-1,3.314059258E0
3.490713389E0,8.711071014E0,2.183450609E-1,3.294916868E0
3.493095264E0,8.696713448E0,2.470589429E-1,3.304488182E0
3.495477087E0,8.648259163E0,2.895315289E-1,3.290131092E0
3.497858962E0,8.601000786E0,2.697907388E-1,3.275774240E0
3.500240837E0,8.572287560E0,2.644068897E-1,3.261417150E0
3.502622712E0,8.524430275E0,2.452643216E-1,3.294916868E0
3.505004535E0,8.467002869E0,2.590230405E-1,3.299702406E0
3.507386410E0,8.452646255E0,2.679961324E-1,3.294916868E0
3.509768285E0,8.452646255E0,2.733799815E-1,3.323630571E0
3.512150108E0,8.505288124E0,3.020938635E-1,3.304488182E0
3.514531983E0,8.542376518E0,3.553341627E-1,3.318246841E0
3.516913858E0,8.465806961E0,4.073780477E-1,3.380460262E0
3.519295733E0,8.411968231E0,4.929214716E-1,3.427718401E0
3.521677555E0,8.388039589E0,4.929214716E-1,3.461217880E0
3.524059430E0,8.364111900E0,4.833501875E-1,3.485146284E0
3.526441305E0,8.359924316E0,4.211367965E-1,3.514458179E0
3.528823128E0,8.327022552E0,3.684946895E-1,3.538386583E0
3.531205003E0,8.308478355E0,3.391826153E-1,3.529413462E0
3.533586878E0,8.303692818E0,3.343969584E-1,3.534198999E0
3.535968753E0,8.298907280E0,3.343969584E-1,3.524627686E0
3.538350576E0,8.289336205E0,3.343969584E-1,3.524627686E0
3.540732451E0,8.279166222E0,3.631108403E-1,3.529413462E0
3.543114326E0,8.264809608E0,3.774677813E-1,3.581457376E0
3.545496201E0,8.260024071E0,3.726821244E-1,3.625126362E0
3.547878024E0,8.265407562E0,3.541377485E-1,3.663411379E0
3.550259899E0,8.242077827E0,3.062812984E-1,3.701696634E0
3.552641774E0,8.242675781E0,2.632105052E-1,3.739981890E0
3.555023649E0,8.224131584E0,2.153540403E-1,3.783650875E0
3.557405472E0,8.238488197E0,1.872383654E-1,3.817150354E0
3.559787347E0,8.257631302E0,1.639083475E-1,3.879363775E0
3.562169222E0,8.248658180E0,1.447657645E-1,3.912863255E0
3.564551045E0,8.253443718E0,1.543370634E-1,3.922434568E0
3.566932920E0,8.239086151E0,1.543370634E-1,3.951746702E0
3.569314795E0,8.234300613E0,1.399801224E-1,3.946960926E0
3.571696670E0,8.238488197E0,1.776670814E-1,3.908077478E0
3.574078493E0,8.233104706E0,2.303091735E-1,3.869792461E0
3.576460368E0,8.204390526E0,2.775674164E-1,3.816552162E0
3.578842243E0,8.199007034E0,3.200400174E-1,3.787838221E0
3.581224066E0,8.169694901E0,3.583251834E-1,3.768695593E0
3.583605941E0,8.149953842E0,4.055834413E-1,3.748954773E0
3.585987816E0,8.134998322E0,4.671986103E-1,3.739383698E0
3.588369691E0,8.120641708E0,5.102694035E-1,3.744169235E0
3.590751514E0,8.091329575E0,5.389832854E-1,3.758526087E0
3.593133389E0,8.081758499E0,5.772684813E-1,3.772284985E0
3.595515264E0,8.066802979E0,6.155536175E-1,3.810570002E0
3.597897087E0,8.071588516E0,6.017948985E-1,3.882354736E0
3.600278962E0,8.072187424E0,5.976074338E-1,3.945166349E0
3.602660837E0,8.067401886E0,5.880361795E-1,4.016951084E0
3.605042712E0,8.096115112E0,5.694918036E-1,4.069592953E0
3.607424535E0,8.087141991E0,5.258227587E-1,4.113262177E0
3.609806410E0,8.082955360E0,4.881358147E-1,4.165904045E0
3.612188285E0,8.131409645E0,4.313062727E-1,4.199403763E0
3.614570160E0,8.198408127E0,4.079762697E-1,4.204787731E0
3.616951983E0,8.256434441E0,3.559323549E-1,4.185645103E0
3.619333858E0,8.322834969E0,3.469592929E-1,4.152145386E0
3.621715733E0,8.419744492E0,3.050848842E-1,4.123431683E0
3.624097555E0,8.501100540E0,2.530409992E-1,4.094717979E0
3.626479430E0,8.626125336E0,2.117647976E-1,4.075575352E0
3.628861305E0,8.740981102E0,1.794617027E-1,4.061218262E0
3.631243180E0,8.870193481E0,1.232303679E-1,4.066602230E0
3.633625003E0,8.980861664E0,1.010967568E-1,4.114458561E0
3.636006878E0,9.095717430E0,6.400800496E-2,4.167100430E0
3.638388753E0,9.162715912E0,4.127619043E-2,4.219742775E0
3.640770628E0,9.263215065E0,3.768695518E-2,4.277170658E0
3.643152503E0,9.358927727E0,-3.589233849E-3,4.363312244E0
3.645534326E0,9.473783493E0,-1.136590727E-2,4.439882278E0
3.647916201E0,9.570692062E0,-4.845465720E-2,4.502095699E0
3.650298076E0,9.651450157E0,-3.768695518E-2,4.545166492E0
3.652679899E0,9.733404160E0,-6.520441920E-2,4.631308079E0
3.655061774E0,9.800403595E0,-9.810572863E-2,4.664807796E0
3.657443649E0,9.939187050E0,-9.631111473E-2,4.679164886E0
3.659825472E0,1.010189915E1,-1.226321608E-1,4.741377831E0
3.662207347E0,1.011745262E1,-2.368894368E-1,4.852046013E0
3.664589222E0,1.008455086E1,-2.847459018E-1,4.928616524E0
3.666971045E0,1.007976532E1,-3.086741269E-1,4.904688358E0
3.669352920E0,1.011864853E1,-3.373879790E-1,4.867001057E0
3.671734795E0,1.016650486E1,-3.607180119E-1,4.876572609E0
3.674116670E0,1.018983555E1,-3.457628787E-1,4.881358147E0
3.676498493E0,1.022333431E1,-3.361915946E-1,4.866403103E0
3.678880368E0,1.026161957E1,-3.308077157E-1,4.856831551E0
3.681262243E0,1.028554821E1,-3.308077157E-1,4.799404144E0
3.683644118E0,1.029452133E1,-3.164508045E-1,4.804189682E0
3.686025993E0,1.030409241E1,-2.685943544E-1,4.799404144E0
3.688407816E0,1.030289650E1,-1.968096644E-1,4.779663086E0
3.690789691E0,1.030708313E1,-1.298106313E-1,4.779663086E0
3.693171514E0,1.035015392E1,-1.058823988E-1,4.755136967E0
3.695553389E0,1.033041382E1,-5.802594870E-2,4.740779877E0
3.697935264E0,1.034417248E1,-3.888336942E-2,4.735994339E0
3.700317139E0,1.037707329E1,1.375873014E-2,4.692923546E0
3.702698962E0,1.042552853E1,-1.914258115E-2,4.712066174E0
3.705080889E0,1.045902824E1,-3.768695518E-2,4.707280159E0
3.707462712E0,1.049312592E1,-9.990034252E-2,4.692923546E0
3.709844587E0,1.054636574E1,-1.471585929E-1,4.673780918E0
3.712226410E0,1.059422207E1,-1.657029688E-1,4.645665169E0
3.714608285E0,1.060379314E1,-1.704886109E-1,4.655236244E0
3.716990160E0,1.065643597E1,-1.986042857E-1,4.664807796E0
3.719371983E0,1.067617607E1,-1.788634956E-1,4.679164886E0
3.721753910E0,1.071864891E1,-1.591227055E-1,4.697709084E0
3.724135733E0,1.076590729E1,-1.202393398E-1,4.735994339E0
3.726517608E0,1.078086281E1,-1.441675574E-1,4.759922504E0
3.728899430E0,1.080479050E1,-1.531406492E-1,4.779065132E0
3.731281305E0,1.087597752E1,-1.286142170E-1,4.750350952E0
3.733663180E0,1.091426182E1,-1.286142170E-1,4.735994339E0
3.736045003E0,1.091844940E1,-7.597211748E-2,4.721039295E0
3.738426878E0,1.094237804E1,-7.597211748E-2,4.682754040E0
3.740808753E0,1.097587776E1,-5.623133108E-2,4.663611412E0
3.743190628E0,1.101834965E1,-1.794617064E-2,4.601397991E0
3.745572451E0,1.105603695E1,3.469592705E-2,4.543372154E0
3.747954326E0,1.108833981E1,1.016949639E-1,4.462016106E0
3.750336201E0,1.113559818E1,1.447657645E-1,4.370490551E0
3.752718076E0,1.118225861E1,2.309073806E-1,4.303491592E0
3.755099951E0,1.125823021E1,3.026920557E-1,4.216751575E0
3.757481774E0,1.135274696E1,3.511467278E-1,4.115654945E0
3.759863649E0,1.149093246E1,4.145565331E-1,4.024727821E0
3.762245472E0,1.162373447E1,4.827519655E-1,3.981058598E0
3.764627399E0,1.177089310E1,5.461617708E-1,3.966103554E0
3.767009222E0,1.192881870E1,6.251249313E-1,3.979862213E0
3.769391097E0,1.210528946E1,6.179464459E-1,4.022933006E0
3.771772920E0,1.231107235E1,5.820540786E-1,4.085146427E0
3.774154795E0,1.252702427E1,5.270192027E-1,4.185645103E0
3.776536670E0,1.274237919E1,4.534398913E-1,4.291527271E0
3.778918493E0,1.297807217E1,3.655036688E-1,4.387240410E0
3.781300368E0,1.320359516E1,2.679961324E-1,4.497310162E0
3.783668962E0,1.342433357E1,1.992024779E-1,4.612763882E0
3.786064118E0,1.367318726E1,1.495514214E-1,4.689334393E0
3.788445993E0,1.386042500E1,8.554340899E-2,4.761118889E0
3.790814535E0,1.403869057E1,1.615155302E-2,4.871188641E0
3.793209691E0,1.420678616E1,-7.716853172E-2,4.962714195E0
3.795591566E0,1.433719540E1,-2.237289101E-1,5.039882660E0
3.797960160E0,1.445863056E1,-3.840480447E-1,5.141577721E0
3.800355264E0,1.454178143E1,-5.653043389E-1,5.247459888E0
3.802737139E0,1.460519123E1,-6.981059909E-1,5.334199905E0
3.805118962E0,1.462074471E1,-8.117650747E-1,5.440082073E0
3.807500837E0,1.465544033E1,-9.116654396E-1,5.469394207E0
3.809882712E0,1.463211060E1,-9.595218897E-1,5.493322372E0
3.812264587E0,1.458425426E1,-9.457631707E-1,5.474180222E0
3.814646410E0,1.451665688E1,-8.991031051E-1,5.392824173E0
3.817028285E0,1.443948841E1,-8.482556343E-1,5.253442287E0
3.819410160E0,1.435274887E1,-7.639086246E-1,5.047060966E0
3.821791983E0,1.429352570E1,-6.418746710E-1,4.764110088E0
3.824173858E0,1.420140266E1,-5.000999570E-1,4.418945312E0
3.826555733E0,1.407996655E1,-3.409772217E-1,4.064209461E0
3.828937608E0,1.394417381E1,-2.195414752E-1,3.689732552E0
3.831319430E0,1.379462242E1,-1.274178028E-1,3.315854073E0
3.833688024E0,1.366959763E1,-5.922235921E-2,2.904288530E0
3.836083180E0,1.350150204E1,-3.409772366E-2,2.563909531E0
3.838465055E0,1.334836102E1,-3.589233849E-3,2.267199516E0
3.840833649E0,1.315693569E1,1.734796353E-2,2.023131609E0
3.843228753E0,1.297508049E1,2.871387079E-2,1.822134495E0
3.845610628E0,1.279262829E1,4.486542568E-2,1.625324726E0
3.847979222E0,1.261555958E1,4.725824669E-2,1.462612867E0
3.850374326E0,1.245284748E1,7.776673883E-2,1.285543919E0
3.852756201E0,1.230449200E1,1.040877849E-1,1.146760225E0
3.855124795E0,1.216032505E1,1.399801224E-1,9.936196208E-1
3.857519899E0,1.198325539E1,1.854437590E-1,8.356932998E-1
3.859901774E0,1.181097221E1,2.261217386E-1,6.921239495E-1
3.862270368E0,1.161894894E1,2.566302419E-1,5.335994363E-1
3.864665472E0,1.146042442E1,2.973082066E-1,3.798605800E-1
3.867047347E0,1.128335476E1,3.182454109E-1,2.033899277E-1
3.869415941E0,1.112602711E1,3.014956415E-1,6.460621208E-2
3.871811097E0,1.093938732E1,2.847459018E-1,-8.374879509E-2
3.874192920E0,1.073898792E1,2.961117923E-1,-2.177468538E-1
3.876561514E0,1.053799057E1,2.362912297E-1,-3.224328458E-1
3.878956670E0,1.028016472E1,2.237289101E-1,-3.505485058E-1
3.881338545E0,1.006122112E1,1.639083475E-1,-3.936193287E-1
3.883707139E0,9.851848602E0,8.015955985E-2,-4.025924206E-1
3.886102243E0,9.647262573E0,-3.589233849E-3,-3.972085714E-1
3.888484118E0,9.437292099E0,-5.802594870E-2,-3.391826153E-1
3.890852712E0,9.237491608E0,-1.124626622E-1,-2.333002090E-1
3.893247816E0,9.032307625E0,-1.519442350E-1,-1.232303679E-1
3.895629691E0,8.832506180E0,-2.255235314E-1,-7.776673418E-3
3.897998285E0,8.675776482E0,-3.080759048E-1,1.028913707E-1
3.900393389E0,8.534002304E0,-4.378865361E-1,2.566302419E-1
3.902775264E0,8.311469078E0,-6.209374666E-1,5.162515044E-1
3.905143858E0,8.151150703E0,-7.938188910E-1,7.716853023E-1
3.907539014E0,8.052446365E0,-9.613165259E-1,9.589236975E-1
3.909920837E0,7.939983845E0,-1.167697430E0,1.041476011E0
3.912302712E0,7.837092400E0,-1.359123230E0,1.157527924E0
3.914684587E0,7.738388538E0,-1.526620865E0,1.296909928E0
3.917066410E0,7.726424217E0,-1.713859200E0,1.369890928E0
3.919448285E0,7.761120319E0,-1.846660852E0,1.399203062E0
3.921830160E0,7.776673794E0,-1.932802439E0,1.437488198E0
3.924212035E0,7.853842258E0,-2.003390789E0,1.495514154E0
3.926593858E0,8.035098076E0,-1.977667928E0,1.470987678E0
3.928975733E0,8.267800331E0,-1.865205288E0,1.417747378E0
3.931357608E0,8.443673134E0,-1.724626899E0,1.441077471E0
3.933739483E0,8.618947029E0,-1.593021631E0,1.507478237E0
3.936121305E0,8.737391472E0,-1.471585870E0,1.601994753E0
3.938503180E0,8.850452423E0,-1.360319614E0,1.663609982E0
3.940885055E0,9.026325226E0,-1.257428288E0,1.725823283E0
3.943266878E0,9.206983566E0,-1.150349498E0,1.763510346E0
3.945648753E0,9.344570160E0,-1.091725349E0,1.792224169E0
3.948030628E0,9.473184586E0,-1.013360381E0,1.825125456E0
3.950412503E0,9.549755096E0,-9.744769931E-1,1.829312921E0
3.952794326E0,9.611370087E0,-9.451649189E-1,1.848455548E0
3.955176201E0,9.668199539E0,-9.158528447E-1,1.848455548E0
3.957558076E0,9.643673897E0,-8.679963946E-1,1.872383714E0
3.959939899E0,9.571888924E0,-8.303094506E-1,1.929213285E0
3.962321774E0,9.446864128E0,-8.027920127E-1,1.967498422E0
3.964703649E0,9.284749985E0,-7.992027402E-1,2.106880426E0
3.967085524E0,9.112466812E0,-7.621139884E-1,2.207378864E0
3.969467347E0,8.959325790E0,-7.537391186E-1,2.327019930E0
3.971849274E0,8.825327873E0,-7.118647099E-1,2.427518606E0
3.974231097E0,8.705686569E0,-6.939185858E-1,2.480160713E0
3.976612972E0,8.590831757E0,-6.711867452E-1,2.518445730E0
3.978994795E0,8.490332603E0,-6.191428304E-1,2.623729944E0
3.981376670E0,8.437092781E0,-5.856433511E-1,2.685345173E0
3.983758545E0,8.422736168E0,-5.467599630E-1,2.757129908E0
3.986140420E0,8.417351723E0,-5.467599630E-1,2.810370207E0
3.988522243E0,8.446065903E0,-5.174478889E-1,2.829512835E0
3.990904118E0,8.493922234E0,-4.983053207E-1,2.829512835E0
3.993285993E0,8.550751686E0,-4.737788737E-1,2.819343328E0
3.995667816E0,8.669795036E0,-4.295116663E-1,2.770888567E0
3.998049691E0,8.784649849E0,-4.331009090E-1,2.775674343E0
4.000431566E0,8.870193481E0,-4.127618968E-1,2.770290375E0
4.002813441E0,8.937192917E0,-3.930211067E-1,2.741576433E0
4.005195264E0,8.970093727E0,-3.547359705E-1,2.732005358E0
4.007577139E0,8.979066849E0,-2.877369225E-1,2.745764017E0
4.009959014E0,9.021539688E0,-2.536391914E-1,2.736192703E0
4.012340837E0,9.040083885E0,-2.105683982E-1,2.693121910E0
4.014722712E0,8.986844063E0,-1.782652885E-1,2.630310297E0
4.017104587E0,8.843274117E0,-1.274178028E-1,2.558525562E0
4.019486462E0,8.637491226E0,-9.690931439E-2,2.448455811E0
4.021868285E0,8.456234932E0,-1.040877849E-1,2.348555326E0
4.024250160E0,8.292924881E0,-1.208375469E-1,2.238485575E0
4.026632035E0,8.145168304E0,-1.752742529E-1,2.109273195E0
4.029013910E0,8.060222626E0,-2.673979402E-1,1.985444546E0
4.031395733E0,7.970492363E0,-3.690928817E-1,1.895115495E0
4.033777608E0,7.913662910E0,-4.277170599E-1,1.814357758E0
4.036159483E0,7.828119278E0,-4.815555513E-1,1.756929994E0
4.038541305E0,7.737790108E0,-5.353940725E-1,1.651645780E0
4.040923180E0,7.618747234E0,-5.760720372E-1,1.541576028E0
4.043305055E0,7.509873867E0,-6.346961856E-1,1.518245935E0
4.045686930E0,7.410571575E0,-7.220342159E-1,1.514058471E0
4.048068753E0,7.339983463E0,-8.327022791E-1,1.514656782E0
4.050450628E0,7.253841877E0,-8.955138922E-1,1.509871125E0
4.052832503E0,7.148557663E0,-8.727820516E-1,1.505085468E0
4.055214326E0,7.071987152E0,-8.548358679E-1,1.509871125E0
4.057596253E0,7.024130821E0,-8.596215248E-1,1.509871125E0
4.059978076E0,6.967301369E0,-9.032905698E-1,1.548754454E0
4.062359951E0,6.915855408E0,-9.798609018E-1,1.630110383E0
4.064741774E0,6.902695179E0,-1.079761267E0,1.727019787E0
4.067123701E0,6.893722057E0,-1.141974568E0,1.808973908E0
4.069505524E0,6.899106026E0,-1.208375454E0,1.899901152E0
4.071887399E0,6.856633186E0,-1.237089276E0,2.024926186E0
4.074269274E0,6.814160824E0,-1.246660590E0,2.096710920E0
4.076651097E0,6.780661106E0,-1.246660590E0,2.187638044E0
4.079032972E0,6.785446644E0,-1.274776220E0,2.197209358E0
4.081414795E0,6.790830612E0,-1.298704505E0,2.211566210E0
4.083796670E0,6.795018196E0,-1.279561877E0,2.206780672E0
4.086178545E0,6.804589272E0,-1.269990563E0,2.221137524E0
4.088560420E0,6.813562393E0,-1.231705427E0,2.240280151E0
4.090942295E0,6.803991318E0,-1.207777262E0,2.277967215E0
4.093324118E0,6.827919483E0,-1.178465128E0,2.287538528E0
4.095705993E0,6.899106026E0,-1.177866936E0,2.297109842E0
4.098087868E0,6.956533432E0,-1.167099237E0,2.340180635E0
4.100469691E0,6.994220734E0,-1.128814101E0,2.311466694E0
4.102851566E0,6.964908600E0,-1.052842021E0,2.277369022E0
4.105233441E0,6.936194420E0,-1.034297585E0,2.210369825E0
4.107615264E0,6.911668301E0,-1.001396298E0,2.157727718E0
4.109997139E0,6.896713257E0,-9.732806087E-1,2.118844509E0
4.112379014E0,6.958926678E0,-9.487541914E-1,2.085345030E0
4.114760889E0,6.982256413E0,-9.343972206E-1,2.042274237E0
4.117142712E0,6.987041950E0,-9.008977413E-1,1.994417667E0
4.119524587E0,6.991827965E0,-8.919246197E-1,1.936989903E0
4.121906462E0,7.034300327E0,-9.008977413E-1,1.884347796E0
4.124288337E0,7.120441914E0,-8.715856671E-1,1.821536183E0
4.126670212E0,7.201199532E0,-8.422735929E-1,1.764108539E0
4.129052035E0,7.281957626E0,-8.368897438E-1,1.740180254E0
4.131433910E0,7.329813957E0,-7.932206988E-1,1.763510346E0
4.133815733E0,7.363313675E0,-7.591229677E-1,1.811366796E0
4.136197608E0,7.429714203E0,-7.339983582E-1,1.897508383E0
4.138579483E0,7.505686283E0,-6.945167780E-1,1.983051777E0
4.140961358E0,7.606184959E0,-7.076773047E-1,2.050050735E0
4.143343180E0,7.739584923E0,-6.628118753E-1,2.117049932E0
4.145725055E0,7.858627796E0,-6.185446382E-1,2.188236237E0
4.148106930E0,7.987840176E0,-6.119644046E-1,2.255235434E0
4.150488805E0,8.126026154E0,-6.101697683E-1,2.341377020E0
4.152870628E0,8.236095428E0,-6.227321029E-1,2.427518606E0
4.155252503E0,8.404191017E0,-6.777670383E-1,2.480160713E0
4.157634378E0,8.544769287E0,-8.434699774E-1,2.542972326E0
4.160016253E0,8.578866959E0,-8.853443861E-1,2.672184706E0
4.162398076E0,8.588438988E0,-8.608179688E-1,2.825923443E0
4.164779951E0,8.598010063E0,-8.793623447E-1,2.888136864E0
4.167161826E0,8.622536659E0,-9.170492887E-1,2.898306370E0
4.169543649E0,8.699107170E0,-9.499505758E-1,2.869592667E0
4.171925524E0,8.694919586E0,-1.007378340E0,2.893520832E0
4.174307399E0,8.709276199E0,-9.834501147E-1,2.922234535E0
4.176689274E0,8.742775917E0,-9.924231768E-1,2.970091105E0
4.179071097E0,8.776275635E0,-1.020538807E0,2.994019270E0
4.181452972E0,8.781659126E0,-1.063011408E0,3.037688255E0
4.183834847E0,8.806185722E0,-1.100698471E0,3.075973511E0
4.186216670E0,8.792427063E0,-1.172483087E0,3.114258766E0
4.188598545E0,8.744570732E0,-1.144367456E0,3.176471949E0
4.190980420E0,8.677571297E0,-1.140179992E0,3.195614576E0
4.193362295E0,8.615956306E0,-1.193420291E0,3.143570662E0
4.195744118E0,8.539983749E0,-1.237687469E0,3.043072224E0
4.198125993E0,8.511270523E0,-1.238285661E0,2.961716175E0
4.200507868E0,8.568099976E0,-1.208973646E0,2.937788010E0
4.202889743E0,8.601598740E0,-1.185045362E0,2.909074068E0
4.205271566E0,8.590831757E0,-1.094716311E0,2.908475876E0
4.207653441E0,8.584849358E0,-9.655039310E-1,2.864806890E0
4.210035316E0,8.522037506E0,-8.853443861E-1,2.797209740E0
4.212417139E0,8.440083504E0,-8.386843204E-1,2.729612350E0
4.214799014E0,8.391031265E0,-7.968099117E-1,2.667398930E0
4.217180889E0,8.376673698E0,-7.776673436E-1,2.619542599E0
4.219562764E0,8.380861282E0,-7.160521746E-1,2.590230465E0
4.221944587E0,8.385048866E0,-6.873382926E-1,2.551945448E0
4.224326462E0,8.438288689E0,-6.771687865E-1,2.532802820E0
4.226708337E0,8.457431793E0,-7.058826685E-1,2.537588358E0
4.229090212E0,8.400602341E0,-7.686942816E-1,2.523829699E0
4.231472035E0,8.357531548E0,-8.123632669E-1,2.461616278E0
4.233853910E0,8.330014229E0,-8.751748800E-1,2.419143677E0
4.236235785E0,8.364111900E0,-9.511470199E-1,2.476571321E0
4.238617608E0,8.422736168E0,-1.021735311E0,2.563311338E0
4.240999483E0,8.442476273E0,-1.068395257E0,2.692523718E0
4.243381358E0,8.476573944E0,-1.120439172E0,2.788236618E0
4.245763233E0,8.496315002E0,-1.171884894E0,2.923431158E0
4.248145055E0,8.525627136E0,-1.223928809E0,3.023929596E0
4.250526930E0,8.569295883E0,-1.284945726E0,3.148954630E0
4.252908805E0,8.559724808E0,-1.289133191E0,3.287738323E0
4.255290628E0,8.512466431E0,-1.293320656E0,3.464807272E0
4.257672503E0,8.493324280E0,-1.293320656E0,3.594019651E0
4.260054378E0,8.464610100E0,-1.264008522E0,3.708875179E0
4.262436253E0,8.468797684E0,-1.201795220E0,3.808775425E0
4.264818076E0,8.477172852E0,-1.124626637E0,3.904488325E0
4.267199951E0,8.486145973E0,-1.028913736E0,3.985844374E0
4.269581826E0,8.465806961E0,-8.997012973E-1,4.076173306E0
4.271963701E0,8.511868477E0,-7.645068169E-1,4.180859566E0
4.274345524E0,8.578269005E0,-7.016952634E-1,4.267001152E0
4.276727399E0,8.649456024E0,-6.520441771E-1,4.405186653E0
4.279109274E0,8.783453941E0,-6.502495408E-1,4.500899315E0
4.281491097E0,8.921639442E0,-6.388836503E-1,4.567898273E0
4.283872972E0,8.993423462E0,-6.041877270E-1,4.663012981E0
4.286254847E0,9.078369141E0,-5.497509837E-1,4.730011940E0
4.288636722E0,9.174081802E0,-5.294120312E-1,4.782654285E0
4.291018545E0,9.245268822E0,-5.042873621E-1,4.834698200E0
4.293400420E0,9.317052841E0,-4.797609448E-1,4.863411903E0
4.295782295E0,9.388239861E0,-4.648058116E-1,4.858626366E0
4.298164170E0,9.421739578E0,-4.354937077E-1,4.910670280E0
4.300545993E0,9.430712700E0,-4.067798555E-1,4.915455818E0
4.302927868E0,9.454640388E0,-4.061816335E-1,4.901099205E0
4.305309743E0,9.477970123E0,-3.876372576E-1,4.819743156E0
4.307691566E0,9.492327690E0,-3.828516304E-1,4.743172646E0
4.310073441E0,9.516255379E0,-3.780659735E-1,4.652245522E0
4.312455316E0,9.516255379E0,-4.025924206E-1,4.594817638E0
4.314837191E0,9.492925644E0,-4.223332107E-1,4.503890514E0
4.317219014E0,9.478569031E0,-4.325026870E-1,4.412963390E0
4.319600889E0,9.449854851E0,-4.474578202E-1,4.302893162E0
4.321982764E0,9.425926208E0,-4.719842672E-1,4.212564468E0
4.324364639E0,9.393025398E0,-4.869394004E-1,4.112065792E0
4.326746462E0,9.369096756E0,-5.120640397E-1,4.001996040E0
4.329128337E0,9.345169067E0,-5.174478889E-1,3.930211306E0
4.331510212E0,9.330811501E0,-5.030909777E-1,3.857828379E0
4.333892087E0,9.297312737E0,-5.419743061E-1,3.805186272E0
4.336273910E0,9.263813019E0,-5.425725579E-1,3.738187075E0
4.338655785E0,9.296713829E0,-4.947160780E-1,3.695116282E0
4.341037660E0,9.296713829E0,-4.761717021E-1,3.680759430E0
4.343419483E0,9.330213547E0,-4.564309120E-1,3.713660717E0
4.345801358E0,9.357730865E0,-3.840480447E-1,3.780659676E0
4.348183233E0,9.391230583E0,-3.547359705E-1,3.857230186E0
4.350565108E0,9.462417603E0,-2.865405083E-1,3.929014683E0
4.352946930E0,9.543772697E0,-2.709871531E-1,4.010370731E0
4.355328805E0,9.663414001E0,-2.596212626E-1,4.057629108E0
4.357710680E0,9.781859398E0,-2.105683982E-1,4.100699902E0
4.360092503E0,9.905687332E0,-1.471585929E-1,4.138386726E0
4.362474378E0,1.001515961E1,-8.853443712E-2,4.124029636E0
4.364856253E0,1.011984539E1,-5.383851007E-2,4.109074593E0
4.367238128E0,1.025803089E1,-7.178468257E-2,4.094717979E0
4.369619951E0,1.044945621E1,-6.520441920E-2,4.003790379E0
4.372001826E0,1.064985561E1,-5.443671346E-2,3.868596077E0
4.374383701E0,1.090828037E1,-8.075776696E-2,3.677170277E0
4.376765576E0,1.116550827E1,-2.691925503E-2,3.418147087E0
4.379147399E0,1.142333508E1,-2.512463741E-2,3.131008387E0
4.381529274E0,1.166142082E1,4.785645287E-3,2.862414122E0
4.383897868E0,1.193839073E1,4.965107143E-2,2.631506681E0
4.386292972E0,1.222971630E1,4.307080805E-2,2.531008244E0
4.388674847E0,1.252582836E1,5.084748194E-2,2.530410051E0
4.391043441E0,1.284048462E1,7.836493850E-2,2.616551638E0
4.393438597E0,1.315214920E1,8.733802289E-2,2.807977438E0
4.395820420E0,1.348714447E1,1.555334684E-2,3.028116941E0
4.398189014E0,1.386102295E1,-6.999006122E-2,3.282354355E0
4.400584170E0,1.428814220E1,-2.219343036E-1,3.492922783E0
4.402965993E0,1.474876022E1,-4.121637046E-1,3.651447296E0
4.405334587E0,1.521057510E1,-6.652047038E-1,3.733401537E0
4.407729743E0,1.564906025E1,-9.996016622E-1,3.748954773E0
4.410111618E0,1.611147308E1,-1.372283816E0,3.745963812E0
4.412480212E0,1.650748444E1,-1.770090580E0,3.713660717E0
4.414875316E0,1.691366768E1,-2.196012974E0,3.677170277E0
4.417257191E0,1.726601028E1,-2.593221426E0,3.707080364E0
4.419625785E0,1.753759575E1,-2.910270452E0,3.818346739E0
4.422020889E0,1.777927017E1,-3.150749207E0,4.059423447E0
4.424402764E0,1.796291924E1,-3.314059258E0,4.361517429E0
4.426771358E0,1.810768509E1,-3.444468260E0,4.744967461E0
4.429166514E0,1.817588043E1,-3.533002615E0,5.138586521E0
4.431548337E0,1.816212273E1,-3.594019651E0,5.468796253E0
4.433916930E0,1.801974869E1,-3.651447296E0,5.742176056E0
4.436312087E0,1.773859215E1,-3.668197155E0,5.880959988E0
4.438693910E0,1.726361656E1,-3.553939819E0,5.890531063E0
4.441075785E0,1.672642899E1,-3.355335474E0,5.665007591E0
4.443457660E0,1.613001823E1,-3.052643538E0,5.262415409E0
4.445839535E0,1.552403545E1,-2.702693224E0,4.782055855E0
4.448208128E0,1.490429401E1,-2.405983210E0,4.244867325E0
4.450603233E0,1.427976704E1,-2.152343988E0,3.736392498E0
4.452985108E0,1.366062450E1,-1.927418590E0,3.223730326E0
4.455353701E0,1.307079411E1,-1.744965911E0,2.768495798E0
4.457748805E0,1.252881908E1,-1.603789330E0,2.346760750E0
4.460130680E0,1.202572823E1,-1.481755376E0,1.978266120E0
4.462499274E0,1.153639603E1,-1.393221021E0,1.676172256E0
4.464894378E0,1.108654594E1,-1.313061476E0,1.403390527E0
4.467276253E0,1.069890785E1,-1.251446247E0,1.192822099E0
4.469644847E0,1.031067276E1,-1.228116274E0,1.006181955E0
4.472040003E0,9.952347755E0,-1.228116274E0,8.057830334E-1
4.474421826E0,9.641879082E0,-1.188634634E0,6.813562512E-1
4.476790420E0,9.339784622E0,-1.164108157E0,5.904290080E-1
4.479185576E0,9.052047729E0,-1.086341500E0,4.989035130E-1
4.481567399E0,8.784649849E0,-1.060618639E0,4.510470629E-1
4.483935993E0,8.559126854E0,-1.006181955E0,3.840480447E-1
4.486331149E0,8.357531548E0,-9.272187948E-1,3.643072546E-1
4.488713024E0,8.179265976E0,-7.854440212E-1,4.217349887E-1
4.491081618E0,8.015955925E0,-6.819544435E-1,4.450650215E-1
4.493476722E0,7.914260864E0,-5.581258535E-1,4.779663086E-1
4.495858597E0,7.822137356E0,-4.540380836E-1,5.258227587E-1
4.498227191E0,7.768897057E0,-3.589234054E-1,5.539384484E-1
4.500622295E0,7.773682594E0,-3.439682424E-1,5.688936114E-1
4.503004170E0,7.797610760E0,-3.774677813E-1,5.347958803E-1
4.505386045E0,7.860422611E0,-4.247260094E-1,5.252245665E-1
4.507767868E0,7.922635555E0,-4.570291340E-1,5.647061467E-1
4.510149743E0,8.004590034E0,-4.941178858E-1,6.221339107E-1
4.512531618E0,8.081160545E0,-5.359922647E-1,6.891329288E-1
4.514913493E0,8.187042236E0,-5.880361795E-1,7.704889178E-1
4.517295316E0,8.288139343E0,-6.388836503E-1,8.709874153E-1
4.519677191E0,8.369495392E0,-6.759724021E-1,9.720842242E-1
4.522059066E0,8.470592499E0,-7.124629617E-1,1.067797065E0
4.524440941E0,8.566903114E0,-7.250252366E-1,1.163509965E0
4.526822764E0,8.666803360E0,-7.238288522E-1,1.268794179E0
4.529204691E0,8.762516975E0,-6.885347366E-1,1.373480201E0
4.531586514E0,8.857631683E0,-6.777670383E-1,1.502692580E0
4.533968389E0,8.986844063E0,-6.705885530E-1,1.670190215E0
4.536350212E0,9.110671997E0,-6.496513486E-1,1.804786444E0
4.538732087E0,9.215956688E0,-6.191428304E-1,1.947757602E0
4.541113962E0,9.392427444E0,-5.880361795E-1,2.100898266E0
4.543495785E0,9.598209381E0,-5.802595019E-1,2.234298229E0
4.545877660E0,9.793823242E0,-5.724828243E-1,2.363510609E0
4.548259535E0,9.942177773E0,-5.844469070E-1,2.540579557E0
4.550641410E0,1.003310490E1,-5.826523304E-1,2.703291416E0
4.553023233E0,1.010967541E1,-5.862415433E-1,2.828316450E0
4.555405108E0,1.013360405E1,-5.712863803E-1,2.947957516E0
4.557786983E0,1.017667484E1,-5.844469070E-1,3.043670416E0
4.560168858E0,1.021496010E1,-5.886343718E-1,3.086741209E0
4.562550680E0,1.024367332E1,-5.539384484E-1,3.115455151E0
4.564932555E0,1.024786091E1,-5.156532526E-1,3.143570662E0
4.567314430E0,1.023769188E1,-4.486542344E-1,3.177070379E0
4.569696253E0,1.020359421E1,-4.157529473E-1,3.172284603E0
4.572078128E0,1.011745262E1,-3.643072546E-1,3.157329559E0
4.574460003E0,9.963713646E0,-3.086741269E-1,3.152543783E0
4.576841878E0,9.805787086E0,-2.673979402E-1,3.123830080E0
4.579223701E0,9.614361763E0,-2.219343036E-1,3.109472990E0
4.581605576E0,9.455837250E0,-1.806581169E-1,3.075973511E0
4.583987451E0,9.278767586E0,-1.591227055E-1,3.028116941E0
4.586369274E0,9.091529846E0,-9.870393574E-2,3.013760090E0
4.588751149E0,8.933603287E0,-6.699903309E-2,2.985046148E0
4.591133024E0,8.785248756E0,-6.460621208E-2,2.903690338E0
4.593514899E0,8.661419868E0,-9.032905847E-2,2.788236618E0
4.595896722E0,8.560921669E0,-8.733802289E-2,2.659024239E0
4.598278597E0,8.431708336E0,-7.956135273E-2,2.539382935E0
4.600660472E0,8.302495956E0,-9.990034252E-2,2.506481647E0
4.603042347E0,8.139784813E0,-4.486542568E-2,2.420340061E0
4.605424170E0,7.981858253E0,-4.247260094E-2,2.338984251E0
4.607806045E0,7.833503246E0,-2.512463741E-2,2.281556368E0
4.610187920E0,7.689933777E0,-7.776673418E-3,2.228914261E0
4.612569743E0,7.513463020E0,-0.000000000E0,2.214557409E0
4.614951618E0,7.350152969E0,4.067798331E-2,2.185843468E0
4.617333493E0,7.221538544E0,-8.374879137E-3,2.172084808E0
4.619715368E0,7.168896675E0,-3.290131316E-2,2.105085611E0
4.622097191E0,7.140780926E0,-8.135596663E-2,2.081157446E0
4.624479066E0,7.127022266E0,-1.292124242E-1,2.072184324E0
4.626860941E0,7.074379921E0,-1.112662554E-1,2.019542217E0
4.629242816E0,6.982854843E0,-5.024927482E-2,1.942373753E0
4.631624639E0,6.915257454E0,-1.316052489E-2,1.841875196E0
4.634006514E0,6.843472958E0,3.349951655E-2,1.727019787E0
4.636388389E0,6.804589272E0,5.144568533E-2,1.625923038E0
4.638770264E0,6.728019238E0,5.982056633E-2,1.578066587E0
4.641152087E0,6.656234264E0,7.357929647E-2,1.525424480E0
4.643533962E0,6.584449768E0,7.238288224E-2,1.530210137E0
4.645915837E0,6.498308182E0,9.092725813E-2,1.534995675E0
4.648297660E0,6.383452415E0,1.519442350E-1,1.543968797E0
4.650679535E0,6.263213158E0,2.075773627E-1,1.534397483E0
4.653061410E0,6.225526333E0,1.639083475E-1,1.457827210E0
4.655443285E0,6.211767673E0,1.202393398E-1,1.343569875E0
4.657825108E0,6.206982136E0,1.004985496E-1,1.214357495E0
4.660206983E0,6.202794552E0,3.290131316E-2,1.089930773E0
4.662588858E0,6.212964058E0,-3.828516230E-2,1.100100160E0
4.664970680E0,6.223133564E0,-1.052841991E-1,1.128814101E0
4.667352555E0,6.290730953E0,-1.806581169E-1,1.124626637E0
4.669734430E0,6.401398659E0,-2.231307179E-1,1.100698471E0
4.672116305E0,6.468397617E0,-2.362912297E-1,1.143769264E0
4.674498180E0,6.544369698E0,-2.111666054E-1,1.191625714E0
4.676880003E0,6.606583118E0,-2.009970993E-1,1.249053478E0
4.679261878E0,6.663413048E0,-1.381855011E-1,1.262812138E0
4.681643753E0,6.758527756E0,-1.322034448E-1,1.267597795E0
4.684025576E0,6.806384087E0,-1.172483116E-1,1.286740422E0
4.686407451E0,6.897311211E0,-1.256231815E-1,1.344168067E0
4.688789326E0,6.978068829E0,-9.092725813E-2,1.434497118E0
4.691171201E0,7.092326164E0,-6.999006122E-2,1.511067510E0
4.693553024E0,7.217351437E0,-1.351944804E-1,1.621137381E0
4.695934899E0,7.289135933E0,-1.627119333E-1,1.713261008E0
4.698316774E0,7.328019142E0,-1.184447184E-1,1.832303882E0
4.700698597E0,7.346563816E0,-8.494520187E-2,1.908874273E0
4.703080472E0,7.360920429E0,-6.041877344E-2,1.932802439E0
4.705462347E0,7.384849072E0,-5.084748194E-2,1.923231244E0
4.707844222E0,7.413562775E0,-7.417750359E-2,1.908874273E0
4.710226097E0,7.447062492E0,-9.332008660E-2,1.884945989E0
4.712607972E0,7.523632526E0,-1.166501045E-1,1.865803480E0
4.714989795E0,7.648059368E0,-1.387837082E-1,1.918445587E0
4.717371670E0,7.686942577E0,-1.567298770E-1,2.066800594E0
4.719753493E0,7.734799385E0,-1.794617027E-1,2.210369825E0
4.722135420E0,7.782655716E0,-1.639083475E-1,2.334796667E0
4.724517243E0,7.801199913E0,-1.250249892E-1,2.425724030E0
4.726899118E0,7.820342541E0,-9.571290761E-2,2.482553482E0
4.729280941E0,7.829315662E0,-6.759724021E-2,2.453839540E0
4.731662816E0,7.891529083E0,-6.221338734E-2,2.377269268E0
4.734044691E0,7.953144073E0,-6.699903309E-2,2.219342947E0
4.736426514E0,7.987242222E0,-1.100698411E-1,2.080559254E0
4.738808389E0,8.020741463E0,-1.633101404E-1,1.961516380E0
4.741190264E0,8.093124390E0,-2.392822653E-1,1.870589137E0
4.743572139E0,8.137392044E0,-3.200400174E-1,1.842473388E0
4.745953962E0,8.147561073E0,-3.960121572E-1,1.866401672E0
4.748335889E0,8.191229820E0,-4.534398913E-1,1.866401672E0
4.750717712E0,8.191229820E0,-4.719842672E-1,1.905285001E0
4.753099587E0,8.167900085E0,-5.102694035E-1,1.967498422E0
4.755481410E0,8.145168304E0,-5.874379873E-1,2.059023857E0
4.757863285E0,8.116454124E0,-6.107679605E-1,2.126022816E0
4.760245160E0,8.121838570E0,-6.346961856E-1,2.140379906E0
4.762626983E0,8.154739380E0,-6.107679605E-1,2.135594130E0
4.765008910E0,8.255238533E0,-6.095715761E-1,2.063809633E0
4.767390733E0,8.392825127E0,-5.605186820E-1,1.972284079E0
4.769772608E0,8.459824562E0,-5.072783828E-1,1.938784599E0
4.772154483E0,8.502297401E0,-4.396811724E-1,1.966900229E0
4.774536305E0,8.568099976E0,-3.523431420E-1,2.057229280E0
4.776918180E0,8.615358353E0,-2.847459018E-1,2.181656122E0
4.779300055E0,8.567501068E0,-2.410768867E-1,2.358126640E0
4.781681878E0,8.519644737E0,-2.219343036E-1,2.516052961E0
4.784063753E0,8.467002869E0,-2.171486616E-1,2.621337175E0
4.786445628E0,8.385048866E0,-2.081755698E-1,2.727219582E0
4.788827451E0,8.303692818E0,-1.944168359E-1,2.799004316E0
4.791209326E0,8.265407562E0,-1.704886109E-1,2.832503796E0
4.793591201E0,8.236095428E0,-1.375873089E-1,2.808575630E0
4.795973076E0,8.221140862E0,-8.075776696E-2,2.798406124E0
4.798354899E0,8.139185905E0,4.785645381E-2,2.827120066E0
4.800736774E0,8.050651550E0,2.524427772E-1,2.883949518E0
4.803118649E0,8.006384850E0,4.049852192E-1,2.916252613E0
4.805500524E0,8.006982803E0,3.619144261E-1,2.912065268E0
4.807882347E0,7.989036560E0,2.327020019E-1,2.927020311E0
4.810264222E0,7.993822098E0,2.039881349E-1,2.931805849E0
4.812646097E0,8.017151833E0,2.667997181E-1,2.926422119E0
4.815027920E0,8.025527000E0,3.810569942E-1,2.912065268E0
4.817409795E0,8.019545555E0,4.863412082E-1,2.921038151E0
4.819791670E0,8.004590034E0,5.533402562E-1,2.934797049E0
4.822173545E0,8.027919769E0,6.257231236E-1,2.949153900E0
4.824558076E0,8.041678429E0,6.789634228E-1,2.982055187E0
4.826937243E0,8.060222626E0,7.076773047E-1,2.962912560E0
4.829319118E0,8.050651550E0,7.316055298E-1,2.986840963E0
4.831700993E0,8.041080475E0,7.597211599E-1,3.001197815E0
4.834082816E0,8.021938324E0,7.597211599E-1,3.025125980E0
4.836464691E0,7.993224144E0,7.645068169E-1,3.044268608E0
4.838846566E0,7.954938889E0,7.740781307E-1,3.106482029E0
4.841228441E0,7.940581799E0,7.884350419E-1,3.154338360E0
4.843610264E0,7.944769382E0,8.027920127E-1,3.163909674E0
4.845992139E0,7.959126472E0,8.123632669E-1,3.153740168E0
4.848374014E0,7.996813297E0,8.416753411E-1,3.158525944E0
4.850755837E0,8.030911446E0,8.081758618E-1,3.139383316E0
4.853137712E0,8.050053596E0,7.896314859E-1,3.144168854E0
4.855519587E0,8.088338852E0,7.657032609E-1,3.139981508E0
4.857901462E0,8.141578674E0,7.190431952E-1,3.159124136E0
4.860283285E0,8.142177582E0,6.855437160E-1,3.187838078E0
4.862665160E0,8.161319733E0,6.669993401E-1,3.216551781E0
4.865047035E0,8.199604988E0,6.484549642E-1,3.288336515E0
4.867428910E0,8.238488197E0,6.107679605E-1,3.370290756E0
4.869810733E0,8.286344528E0,5.880361795E-1,3.451646566E0
4.872192608E0,8.435297966E0,6.191428304E-1,3.594617844E0
4.874574483E0,8.598010063E0,5.736792088E-1,3.772284985E0
4.876956358E0,8.680562019E0,4.552344978E-1,3.915854216E0
4.879338180E0,8.724231720E0,4.031906128E-1,3.964907169E0
4.881720055E0,8.805587769E0,3.661018610E-1,4.007977962E0
4.884101930E0,8.872586250E0,3.529413342E-1,4.094119549E0
4.886483753E0,8.983254433E0,3.308077157E-1,4.247260094E0
4.888865628E0,9.102297783E0,3.332005441E-1,4.400400639E0
4.891247503E0,9.198608398E0,3.062812984E-1,4.567898273E0
4.893629378E0,9.327820778E0,2.841476798E-1,4.711467743E0
4.896011201E0,9.418747902E0,2.763710022E-1,4.831109047E0
4.898393076E0,9.515059471E0,2.207378894E-1,4.931607246E0
4.900774951E0,9.626325607E0,1.549352705E-1,5.013561726E0
4.903156826E0,9.698110580E0,1.178465188E-1,5.076373100E0
4.905538649E0,9.784850121E0,4.725824669E-2,5.109872818E0
4.907920524E0,9.804591179E0,1.435693540E-2,5.119443893E0
4.910302399E0,9.881160736E0,-2.811566554E-2,5.091328144E0
4.912684222E0,9.900303841E0,-4.725824669E-2,5.028516769E0
4.915066097E0,9.920044899E0,-8.554340899E-2,4.990231514E0
4.917447972E0,9.934401512E0,-1.238285750E-1,4.961517811E0
4.919829847E0,9.934999466E0,-1.477568001E-1,4.904089928E0
4.922211670E0,9.911669731E0,-1.962114573E-1,4.890331268E0
4.924593545E0,9.907482147E0,-2.584248483E-1,4.871188641E0
4.926975420E0,9.888937950E0,-3.158525825E-1,4.823930264E0
4.929357243E0,9.875179291E0,-3.972085714E-1,4.809573650E0
4.931739118E0,9.885348320E0,-4.594219327E-1,4.795814991E0
4.934120993E0,9.871589661E0,-5.024927258E-1,4.781457901E0
4.936502868E0,9.867402077E0,-5.359922647E-1,4.767699242E0
4.938884743E0,9.853643417E0,-5.844469070E-1,4.782055855E0
4.941266566E0,9.839286804E0,-6.275177598E-1,4.801198483E0
4.943648441E0,9.869196892E0,-6.993024349E-1,4.806582451E0
4.946030316E0,9.873982430E0,-7.322037220E-1,4.811367989E0
