"Time (s)","Gyroscope x (rad/s)","Gyroscope y (rad/s)","Gyroscope z (rad/s)"
3.410417000E-2,1.959292591E-1,-5.329642445E-2,2.550287358E-2
3.648599300E-2,1.835595965E-1,-5.222744122E-2,2.672456764E-2
3.886786800E-2,1.760767251E-1,-4.856235534E-2,2.794626169E-2
4.124974300E-2,1.673721522E-1,-4.734066129E-2,2.550287358E-2
4.363161800E-2,1.612636745E-1,-4.749337584E-2,2.305948362E-2
4.601344100E-2,1.550024897E-1,-4.504998401E-2,2.412846684E-2
4.839531600E-2,1.488940120E-1,-4.871506989E-2,2.535016090E-2
5.077719100E-2,1.462979168E-1,-5.115845799E-2,2.412846684E-2
5.315901400E-2,1.464506239E-1,-5.115845799E-2,2.535016090E-2
5.554088900E-2,1.464506239E-1,-5.482354015E-2,2.412846684E-2
5.792276400E-2,1.476723254E-1,-5.726693198E-2,2.550287358E-2
6.030463900E-2,1.476723254E-1,-5.848862603E-2,2.428117767E-2
6.268646200E-2,1.476723254E-1,-5.848862603E-2,2.550287358E-2
6.506833700E-2,1.488940120E-1,-5.955760926E-2,2.672456764E-2
6.745021200E-2,1.501157135E-1,-5.955760926E-2,3.038965166E-2
6.983203500E-2,1.501157135E-1,-5.833591148E-2,3.038965166E-2
7.221391000E-2,1.488940120E-1,-5.589252338E-2,3.405473381E-2
7.459578500E-2,1.464506239E-1,-5.360184610E-2,3.283303976E-2
7.697766000E-2,1.426328421E-1,-4.993676394E-2,3.145863488E-2
7.935948300E-2,1.401894391E-1,-4.871506989E-2,3.145863488E-2
8.174135800E-2,1.339282542E-1,-4.993676394E-2,3.023693897E-2
8.412323300E-2,1.302631795E-1,-4.764608666E-2,3.023693897E-2
8.650505500E-2,1.265980899E-1,-4.764608666E-2,3.023693897E-2
8.888693000E-2,1.227803007E-1,-4.764608666E-2,2.901524492E-2
9.126880500E-2,1.191152185E-1,-4.886778072E-2,2.779355086E-2
9.365068000E-2,1.152974218E-1,-4.642439261E-2,2.657185495E-2
9.603250300E-2,1.116323397E-1,-4.642439261E-2,2.412846684E-2
9.841437800E-2,1.079672500E-1,-4.535540938E-2,2.290677279E-2
1.007962530E-1,1.029277667E-1,-4.535540938E-2,1.908897609E-2
1.031780760E-1,1.017060652E-1,-4.535540938E-2,1.908897609E-2
1.055599510E-1,9.788827598E-2,-4.535540938E-2,1.664558798E-2
1.079418260E-1,9.300149232E-2,-4.413371533E-2,1.664558798E-2
1.103237010E-1,9.055810422E-2,-4.428642616E-2,1.542389300E-2
1.127055240E-1,8.796200156E-2,-4.428642616E-2,1.542389300E-2
1.150873990E-1,8.551861346E-2,-4.062134400E-2,1.420219894E-2
1.174692740E-1,8.307522535E-2,-3.695625812E-2,1.298050396E-2
1.198510970E-1,7.681404054E-2,-3.695625812E-2,1.298050396E-2
1.222329720E-1,7.299624383E-2,-3.466558084E-2,1.282779220E-2
1.246148470E-1,7.055285573E-2,-3.100049868E-2,1.160609815E-2
1.269966700E-1,6.429167092E-2,-2.855710872E-2,7.941014133E-3
1.293785450E-1,6.062658876E-2,-2.382304333E-2,1.160609815E-2
1.317604200E-1,5.680879578E-2,-2.015795931E-2,9.162709117E-3
1.341422950E-1,5.314370990E-2,-1.649287529E-2,7.941014133E-3
1.365241180E-1,5.054761097E-2,-1.420219894E-2,5.497625098E-3
1.389059930E-1,4.688252881E-2,-8.093725890E-3,6.566607859E-3
1.412878680E-1,4.428642616E-2,-5.650337320E-3,4.123218823E-3
1.436697430E-1,4.306473210E-2,-9.162708884E-4,1.679830020E-3
1.460515660E-1,3.939964995E-2,1.527118147E-3,4.123218823E-3
1.484334410E-1,3.436015919E-2,3.054236295E-4,1.679830020E-3
1.508152640E-1,3.069507517E-2,5.039489828E-3,-7.635590737E-4
1.531971390E-1,2.809897438E-2,7.482878864E-3,-3.206948051E-3
1.555790140E-1,2.443389036E-2,8.704573847E-3,-3.359660041E-3
1.579608890E-1,2.061609551E-2,6.261184346E-3,-4.581354558E-3
1.603427120E-1,1.695101149E-2,7.482878864E-3,-8.246437646E-3
1.627245870E-1,1.191152167E-2,7.330167107E-3,-9.468132630E-3
1.651064620E-1,7.024743594E-3,4.886778072E-3,-1.191152167E-2
1.674883370E-1,7.635590737E-4,3.665083554E-3,-1.191152167E-2
1.698701600E-1,-4.123218823E-3,2.443389036E-3,-1.191152167E-2
1.722520350E-1,-6.566607859E-3,3.665083554E-3,-1.313321572E-2
1.746339100E-1,-1.160609815E-2,3.665083554E-3,-1.435491070E-2
1.770157850E-1,-1.527118124E-2,2.443389036E-3,-1.435491070E-2
1.793976080E-1,-2.031067200E-2,-1.374406274E-3,-1.695101149E-2
1.817794830E-1,-2.397575416E-2,-1.527118147E-4,-1.450762246E-2
1.841613580E-1,-2.641914412E-2,-1.374406274E-3,-1.695101149E-2
1.865431800E-1,-3.145863488E-2,2.290677279E-3,-1.572931744E-2
1.889250550E-1,-3.390202299E-2,5.955760833E-3,-1.572931744E-2
1.913069300E-1,-3.756710514E-2,3.512371797E-3,-1.572931744E-2
1.936887530E-1,-3.894151375E-2,5.803049076E-3,-1.695101149E-2
1.960706280E-1,-4.016320780E-2,8.246437646E-3,-1.695101149E-2
1.984525030E-1,-4.504998401E-2,9.468132630E-3,-1.817270555E-2
2.008343780E-1,-4.764608666E-2,9.468132630E-3,-1.695101149E-2
2.032162010E-1,-5.253286287E-2,1.313321572E-2,-1.939439960E-2
2.055980760E-1,-5.268557742E-2,1.542389300E-2,-2.076880634E-2
2.079799510E-1,-5.757235363E-2,1.786728203E-2,-2.199050039E-2
2.103617740E-1,-6.016845629E-2,2.153236605E-2,-2.565558441E-2
2.127436490E-1,-6.261184067E-2,2.504473738E-2,-2.565558441E-2
2.151255240E-1,-6.505523622E-2,3.115320951E-2,-2.687728032E-2
2.175073990E-1,-6.887302548E-2,3.603998944E-2,-3.054236248E-2
2.198892220E-1,-6.887302548E-2,3.955236077E-2,-2.932066843E-2
2.222710970E-1,-7.513421029E-2,4.321744293E-2,-3.313846514E-2
2.246529720E-1,-7.513421029E-2,4.672981426E-2,-3.313846514E-2
2.270347950E-1,-7.895200700E-2,4.917320609E-2,-3.313846514E-2
2.294166700E-1,-8.139539510E-2,5.528167635E-2,-3.313846514E-2
2.317985450E-1,-8.383878320E-2,5.650337040E-2,-3.313846514E-2
2.341803680E-1,-8.521319181E-2,5.879404768E-2,-3.680354729E-2
2.365622430E-1,-8.765657991E-2,5.879404768E-2,-3.802524135E-2
2.389441180E-1,-8.887827396E-2,6.123743951E-2,-3.802524135E-2
2.413259930E-1,-9.269607067E-2,6.245913357E-2,-3.939964995E-2
2.437078160E-1,-9.513945878E-2,6.245913357E-2,-4.062134400E-2
2.460896910E-1,-9.513945878E-2,6.245913357E-2,-4.184303805E-2
2.484715660E-1,-9.636115283E-2,6.123743951E-2,-4.306473210E-2
2.508534410E-1,-9.880454093E-2,6.108472496E-2,-4.550812021E-2
2.532352640E-1,-1.000262350E-1,5.986303091E-2,-4.672981426E-2
2.556171390E-1,-1.014006436E-1,5.864133686E-2,-4.795150831E-2
2.579990140E-1,-1.000262350E-1,5.619794875E-2,-5.039490014E-2
2.603808370E-1,-1.000262350E-1,5.375456065E-2,-5.283828825E-2
2.627627120E-1,-9.880454093E-2,5.024218559E-2,-5.283828825E-2
2.651445870E-1,-9.880454093E-2,4.902049154E-2,-5.283828825E-2
2.675264100E-1,-9.880454093E-2,4.779879749E-2,-5.650337040E-2
2.699082850E-1,-9.636115283E-2,4.291202128E-2,-5.772506446E-2
2.722901600E-1,-9.636115283E-2,3.924693540E-2,-5.894676223E-2
2.746720350E-1,-9.513945878E-2,3.802524135E-2,-5.894676223E-2
2.770538580E-1,-9.513945878E-2,3.191677108E-2,-6.139015034E-2
2.794357330E-1,-9.254335612E-2,3.206948191E-2,-5.879404768E-2
2.818176080E-1,-9.254335612E-2,2.840439789E-2,-5.757235363E-2
2.841994300E-1,-9.009996802E-2,2.596100792E-2,-5.757235363E-2
2.865813050E-1,-8.872556686E-2,2.229592577E-2,-5.635065958E-2
2.889631800E-1,-8.628217876E-2,2.107422985E-2,-5.635065958E-2
2.913450550E-1,-8.628217876E-2,1.756185852E-2,-5.390727147E-2
2.937268780E-1,-8.246438205E-2,1.511846948E-2,-5.390727147E-2
2.961087530E-1,-8.368607610E-2,1.023169141E-2,-5.024218559E-2
2.984906280E-1,-8.124268800E-2,9.009997360E-3,-4.657710344E-2
3.008724510E-1,-7.742489129E-2,7.941014133E-3,-4.275930673E-2
3.032543260E-1,-7.375980914E-2,6.719320081E-3,-4.153761268E-2
3.056362010E-1,-7.131642103E-2,6.719320081E-3,-3.787253052E-2
3.080180760E-1,-7.116370648E-2,7.941014133E-3,-3.420744836E-2
3.103998990E-1,-6.627693027E-2,6.872031838E-3,-3.176405653E-2
3.127817740E-1,-6.245913357E-2,8.093725890E-3,-2.932066843E-2
3.151636490E-1,-6.001574174E-2,9.315420873E-3,-2.809897438E-2
3.175454720E-1,-5.757235363E-2,1.175880991E-2,-2.443389036E-2
3.199273470E-1,-5.253286287E-2,1.420219894E-2,-2.076880634E-2
3.223092220E-1,-4.886778072E-2,1.542389300E-2,-2.076880634E-2
3.246910970E-1,-4.520269856E-2,1.908897609E-2,-2.076880634E-2
3.270729200E-1,-4.138490185E-2,2.031067200E-2,-1.695101149E-2
3.294547950E-1,-3.894151375E-2,2.275406010E-2,-1.572931744E-2
3.318366700E-1,-3.161134571E-2,2.519745007E-2,-1.572931744E-2
3.342184930E-1,-2.535016090E-2,2.901524492E-2,-1.450762246E-2
3.366003680E-1,-2.046338283E-2,3.145863488E-2,-1.328592747E-2
3.389822430E-1,-1.542389300E-2,3.268032894E-2,-1.328592747E-2
3.413641180E-1,-1.175880991E-2,3.268032894E-2,-1.206423342E-2
3.437459410E-1,-7.941014133E-3,3.145863488E-2,-1.084253844E-2
3.461278160E-1,-5.497625098E-3,2.901524492E-2,-1.084253844E-2
3.485096910E-1,7.635590737E-4,2.916795574E-2,-9.620844387E-3
3.508915140E-1,3.206948051E-3,2.794626169E-2,-1.084253844E-2
3.532733890E-1,4.428642802E-3,2.550287358E-2,-7.024743594E-3
3.556552640E-1,1.068982668E-2,2.428117767E-2,-5.803049076E-3
3.580370870E-1,1.313321572E-2,2.428117767E-2,-5.803049076E-3
3.604189620E-1,1.817270555E-2,2.076880634E-2,-4.581354558E-3
3.628008370E-1,2.061609551E-2,1.832541823E-2,-9.162708884E-4
3.651827120E-1,2.321219631E-2,1.832541823E-2,1.527118147E-3
3.675645350E-1,2.687728032E-2,1.481304597E-2,3.970507067E-3
3.699464100E-1,2.809897438E-2,1.359135192E-2,6.566607859E-3
3.723282850E-1,3.069507517E-2,9.926267900E-3,9.009997360E-3
3.747101600E-1,3.313846514E-2,1.236965694E-2,9.009997360E-3
3.770919830E-1,3.573456407E-2,8.857285604E-3,1.389677543E-2
3.794738580E-1,3.573456407E-2,6.413896102E-3,1.511846948E-2
3.818557330E-1,3.817795217E-2,7.635590620E-3,1.756185852E-2
3.842375550E-1,3.695625812E-2,6.413896102E-3,2.244863659E-2
3.866194300E-1,3.817795217E-2,6.413896102E-3,2.367033064E-2
3.890013050E-1,3.817795217E-2,3.970507067E-3,2.733541466E-2
3.913831280E-1,3.817795217E-2,7.635590620E-3,2.977880463E-2
3.937650030E-1,3.955236077E-2,6.413896102E-3,3.222219273E-2
3.961468780E-1,4.199574888E-2,5.344913341E-3,3.344388679E-2
3.985287530E-1,4.321744293E-2,5.344913341E-3,3.603998944E-2
4.009105760E-1,4.581354558E-2,4.123218823E-3,3.726168349E-2
4.032924510E-1,4.581354558E-2,4.123218823E-3,4.092676565E-2
4.056743260E-1,4.703523964E-2,6.566607859E-3,4.214845970E-2
4.080561490E-1,4.947862774E-2,6.566607859E-3,4.214845970E-2
4.104380240E-1,5.192201585E-2,6.566607859E-3,4.214845970E-2
4.128198990E-1,5.192201585E-2,9.009997360E-3,4.459185153E-2
4.152017740E-1,5.573981255E-2,6.566607859E-3,4.459185153E-2
4.175835970E-1,5.573981255E-2,7.788302377E-3,4.459185153E-2
4.199654720E-1,5.696150661E-2,9.009997360E-3,4.581354558E-2
4.223473470E-1,5.940489471E-2,1.023169141E-2,4.459185153E-2
4.247292220E-1,5.940489471E-2,1.023169141E-2,4.459185153E-2
4.271110450E-1,6.062658876E-2,1.145338640E-2,4.459185153E-2
4.294929200E-1,6.062658876E-2,1.267508045E-2,4.459185153E-2
4.318747950E-1,6.306997687E-2,1.145338640E-2,4.581354558E-2
4.342566180E-1,6.306997687E-2,1.038440317E-2,4.581354558E-2
4.366384930E-1,6.184828654E-2,1.038440317E-2,4.703523964E-2
4.390203680E-1,6.306997687E-2,1.267508045E-2,4.337015375E-2
4.414022430E-1,6.306997687E-2,1.389677543E-2,3.970507160E-2
4.437840660E-1,6.429167092E-2,1.511846948E-2,4.092676565E-2
4.461659410E-1,6.429167092E-2,1.267508045E-2,4.214845970E-2
4.485478160E-1,6.306997687E-2,1.267508045E-2,4.214845970E-2
4.509296390E-1,6.184828654E-2,1.267508045E-2,4.092676565E-2
4.533115140E-1,5.940489471E-2,1.145338640E-2,3.970507160E-2
4.556933890E-1,5.818320066E-2,1.023169141E-2,3.848337755E-2
4.580752120E-1,5.680879578E-2,9.009997360E-3,3.848337755E-2
4.604570870E-1,5.680879578E-2,1.023169141E-2,3.848337755E-2
4.628389620E-1,5.436540768E-2,1.023169141E-2,3.726168349E-2
4.652208370E-1,5.070032179E-2,9.009997360E-3,3.726168349E-2
4.676026600E-1,4.825693369E-2,9.009997360E-3,3.726168349E-2
4.699845350E-1,4.566083103E-2,7.788302377E-3,3.481829539E-2
4.723664100E-1,4.321744293E-2,1.007897966E-2,3.344388679E-2
4.747482330E-1,4.199574888E-2,1.007897966E-2,3.466558084E-2
4.771301080E-1,3.817795217E-2,1.130067464E-2,3.466558084E-2
4.795119830E-1,3.817795217E-2,1.252236869E-2,3.222219273E-2
4.818938580E-1,3.573456407E-2,1.252236869E-2,3.100049868E-2
4.842756800E-1,3.573456407E-2,1.374406368E-2,3.100049868E-2
4.866575550E-1,3.329117596E-2,1.130067464E-2,3.100049868E-2
4.890394300E-1,3.451287001E-2,1.130067464E-2,2.977880463E-2
4.914213050E-1,3.329117596E-2,1.374406368E-2,3.100049868E-2
4.938031280E-1,3.069507517E-2,1.496575773E-2,2.977880463E-2
4.961850030E-1,3.069507517E-2,1.496575773E-2,2.977880463E-2
4.985668780E-1,3.069507517E-2,1.618745178E-2,2.733541466E-2
5.009487010E-1,2.825168520E-2,1.603474095E-2,2.611372061E-2
5.033305760E-1,2.580829710E-2,1.481304597E-2,2.367033064E-2
5.057124510E-1,2.702999115E-2,1.725643501E-2,2.244863659E-2
5.080942740E-1,2.580829710E-2,2.092151903E-2,2.244863659E-2
5.104761490E-1,2.199050039E-2,2.214321308E-2,2.244863659E-2
5.128580240E-1,1.954711229E-2,1.969982497E-2,2.244863659E-2
5.152398990E-1,1.832541823E-2,2.336490713E-2,1.985253580E-2
5.176217220E-1,1.572931744E-2,2.687728032E-2,1.863084175E-2
5.200035970E-1,1.450762246E-2,3.054236248E-2,1.618745178E-2
5.223854720E-1,9.468132630E-3,3.176405653E-2,1.496575773E-2
5.247672950E-1,9.468132630E-3,3.298575059E-2,1.618745178E-2
5.271491700E-1,7.024743594E-3,3.054236248E-2,1.252236869E-2
5.295310450E-1,3.359660041E-3,2.809897438E-2,1.252236869E-2
5.319129200E-1,3.359660041E-3,2.916795574E-2,1.374406368E-2
5.342947430E-1,2.137965523E-3,3.038965166E-2,1.374406368E-2
5.366766180E-1,9.162708884E-4,2.916795574E-2,1.496575773E-2
5.390584930E-1,-3.054236295E-4,2.565558441E-2,1.496575773E-2
5.414403160E-1,-1.679830020E-3,2.199050039E-2,1.252236869E-2
5.438221910E-1,-2.901524538E-3,2.199050039E-2,1.374406368E-2
5.462040660E-1,-2.748812549E-3,1.710372418E-2,1.252236869E-2
5.485859410E-1,-2.748812549E-3,1.221694518E-2,1.252236869E-2
5.509677640E-1,-6.566607859E-3,7.330167107E-3,1.130067464E-2
5.533496390E-1,-7.788302377E-3,3.665083554E-3,1.130067464E-2
5.557315140E-1,-6.413896102E-3,-4.734066315E-3,1.007897966E-2
5.581133370E-1,-8.857285604E-3,-1.084253844E-2,1.130067464E-2
5.604952120E-1,-1.007897966E-2,-1.450762246E-2,1.130067464E-2
5.628770870E-1,-8.857285604E-3,-2.061609551E-2,6.413896102E-3
5.652589620E-1,-8.857285604E-3,-2.428117767E-2,7.635590620E-3
5.676407850E-1,-1.130067464E-2,-3.145863488E-2,2.748812549E-3
5.700226600E-1,-1.496575773E-2,-3.405473381E-2,2.748812549E-3
5.724045350E-1,-1.618745178E-2,-3.634541109E-2,3.970507067E-3
5.747863580E-1,-1.740914769E-2,-4.001049697E-2,1.527118147E-3
5.771682330E-1,-1.985253580E-2,-4.489727318E-2,2.748812549E-3
5.795501080E-1,-2.107422985E-2,-4.734066129E-2,2.901524538E-3
5.819319830E-1,-2.489202656E-2,-5.100574717E-2,3.054236295E-4
5.843138050E-1,-2.733541466E-2,-5.344913527E-2,3.054236295E-4
5.866956800E-1,-2.855710872E-2,-5.589252338E-2,-9.162708884E-4
5.890775550E-1,-3.222219273E-2,-5.955760926E-2,-2.137965523E-3
5.914593780E-1,-3.222219273E-2,-5.833591148E-2,-3.359660041E-3
5.938412530E-1,-3.344388679E-2,-5.833591148E-2,-4.581354558E-3
5.962231280E-1,-3.481829539E-2,-5.711421743E-2,-4.581354558E-3
5.986050030E-1,-3.603998944E-2,-5.833591148E-2,-4.581354558E-3
6.009868260E-1,-3.222219273E-2,-5.711421743E-2,-4.581354558E-3
6.033687010E-1,-3.222219273E-2,-5.467082933E-2,-4.581354558E-3
6.057505760E-1,-3.100049868E-2,-5.222744122E-2,-3.359660041E-3
6.081323990E-1,-3.100049868E-2,-5.222744122E-2,-4.581354558E-3
6.105142740E-1,-3.222219273E-2,-5.344913527E-2,-3.359660041E-3
6.128961490E-1,-3.100049868E-2,-5.344913527E-2,-3.359660041E-3
6.152779720E-1,-2.855710872E-2,-5.467082933E-2,-7.024743594E-3
6.176598470E-1,-2.733541466E-2,-5.589252338E-2,-7.024743594E-3
6.200417220E-1,-2.733541466E-2,-5.955760926E-2,-7.024743594E-3
6.224235970E-1,-2.855710872E-2,-6.444438547E-2,-7.024743594E-3
6.248054200E-1,-2.733541466E-2,-6.566607952E-2,-8.246437646E-3
6.271872950E-1,-2.855710872E-2,-7.177454978E-2,-9.315420873E-3
6.295691700E-1,-2.718270384E-2,-7.895200700E-2,-8.093725890E-3
6.319509930E-1,-2.596100792E-2,-8.261708915E-2,-8.093725890E-3
6.343328680E-1,-2.718270384E-2,-8.872556686E-2,-6.872031838E-3
6.367147430E-1,-2.718270384E-2,-9.590301663E-2,-6.872031838E-3
6.390966180E-1,-2.336490713E-2,-9.956810623E-2,-5.650337320E-3
6.414784410E-1,-2.092151903E-2,-1.056765765E-1,-4.428642802E-3
6.438603160E-1,-1.954711229E-2,-1.079672500E-1,-1.985253533E-3
6.462421910E-1,-1.954711229E-2,-1.140757278E-1,3.054236295E-3
6.486240660E-1,-1.954711229E-2,-1.212531775E-1,6.719320081E-3
6.510058890E-1,-1.939439960E-2,-1.273616552E-1,1.160609815E-2
6.533877640E-1,-1.817270555E-2,-1.345391124E-1,1.771457121E-2
6.557696390E-1,-1.801999472E-2,-1.382041872E-1,2.015795931E-2
6.581514620E-1,-1.801999472E-2,-1.430909634E-1,1.908897609E-2
6.605333370E-1,-1.679829881E-2,-1.479777545E-1,2.031067200E-2
6.629152120E-1,-1.175880991E-2,-1.514901221E-1,1.786728203E-2
6.652970870E-1,-5.650337320E-3,-1.551551968E-1,1.542389300E-2
6.676789100E-1,-6.108472589E-4,-1.588202864E-1,1.298050396E-2
6.700607850E-1,5.497625098E-3,-1.563768983E-1,1.175880991E-2
6.724426600E-1,1.175880991E-2,-1.550024897E-1,1.298050396E-2
6.748244830E-1,1.786728203E-2,-1.574458778E-1,1.175880991E-2
6.772063580E-1,2.412846684E-2,-1.562241912E-1,1.420219894E-2
6.795882330E-1,3.038965166E-2,-1.537808031E-1,1.191152167E-2
6.819700550E-1,3.283303976E-2,-1.550024897E-1,1.191152167E-2
6.843519300E-1,3.771981969E-2,-1.501157135E-1,1.068982668E-2
6.867338050E-1,4.138490185E-2,-1.476723254E-1,7.024743594E-3
6.891156800E-1,4.260659590E-2,-1.440072358E-1,1.985253533E-3
6.914975030E-1,4.627167806E-2,-1.356080920E-1,3.206948051E-3
6.938793780E-1,4.993676394E-2,-1.294996142E-1,4.428642802E-3
6.962612530E-1,5.115845799E-2,-1.246128380E-1,5.650337320E-3
6.986431280E-1,5.238015205E-2,-1.185043678E-1,9.315420873E-3
7.010249510E-1,5.115845799E-2,-1.197260618E-1,1.175880991E-2
7.034068260E-1,4.993676394E-2,-1.209477559E-1,1.298050396E-2
7.057887010E-1,5.008947477E-2,-1.209477559E-1,1.786728203E-2
7.081705240E-1,4.886778072E-2,-1.220167428E-1,2.168507688E-2
7.105523990E-1,4.764608666E-2,-1.232384369E-1,2.657185495E-2
7.129342740E-1,4.642439261E-2,-1.256818175E-1,2.779355086E-2
7.153160970E-1,4.642439261E-2,-1.293469071E-1,3.268032894E-2
7.176979720E-1,4.520269856E-2,-1.305686086E-1,3.634541109E-2
7.200798470E-1,4.398100078E-2,-1.317902952E-1,4.123219103E-2
7.224617220E-1,4.153761268E-2,-1.365243644E-1,4.489727318E-2
7.248435450E-1,4.291202128E-2,-1.340809762E-1,5.100574717E-2
7.272254200E-1,4.291202128E-2,-1.365243644E-1,5.344913527E-2
7.296072950E-1,4.291202128E-2,-1.353026628E-1,5.833591148E-2
7.319891700E-1,4.413371533E-2,-1.377460510E-1,5.955760926E-2
7.343709930E-1,4.291202128E-2,-1.365243644E-1,5.711421743E-2
7.367528680E-1,4.291202128E-2,-1.365243644E-1,5.467082933E-2
7.391347430E-1,4.413371533E-2,-1.377460510E-1,5.222744122E-2
7.415165660E-1,4.413371533E-2,-1.401894391E-1,5.100574717E-2
7.438984410E-1,4.291202128E-2,-1.414111406E-1,4.611896724E-2
7.462803160E-1,4.275930673E-2,-1.389677525E-1,4.245388508E-2
7.486621910E-1,4.153761268E-2,-1.342336833E-1,3.634541109E-2
7.510440140E-1,4.398100078E-2,-1.281252056E-1,3.023693897E-2
7.534258890E-1,4.504998401E-2,-1.220167428E-1,2.535016090E-2
7.558077640E-1,4.504998401E-2,-1.172826737E-1,2.153236605E-2
7.581895870E-1,4.504998401E-2,-1.087308154E-1,2.153236605E-2
7.605714620E-1,4.245388508E-2,-1.052184403E-1,2.031067200E-2
7.629533370E-1,3.878879920E-2,-1.027750522E-1,1.786728203E-2
7.653351600E-1,3.497100621E-2,-1.003316641E-1,1.786728203E-2
7.677170350E-1,3.374931216E-2,-1.003316641E-1,1.786728203E-2
7.700989100E-1,3.130592033E-2,-1.003316641E-1,1.786728203E-2
7.724807850E-1,2.641914412E-2,-1.052184403E-1,1.786728203E-2
7.748626080E-1,2.519745007E-2,-1.064401343E-1,1.908897609E-2
7.772444830E-1,2.397575416E-2,-1.137702987E-1,1.908897609E-2
7.796263580E-1,2.641914412E-2,-1.162136942E-1,2.031067200E-2
7.820081800E-1,2.397575416E-2,-1.221694499E-1,2.153236605E-2
7.843900550E-1,2.275406010E-2,-1.233911440E-1,2.641914412E-2
7.867719300E-1,2.290677279E-2,-1.307213157E-1,3.130592033E-2
7.891538050E-1,2.290677279E-2,-1.354553849E-1,3.130592033E-2
7.915356280E-1,2.290677279E-2,-1.403421611E-1,3.512371704E-2
7.939175030E-1,2.168507688E-2,-1.452289373E-1,3.634541109E-2
7.962993780E-1,1.801999472E-2,-1.536280811E-1,4.001049697E-2
7.986812010E-1,1.572931744E-2,-1.597365588E-1,4.367557913E-2
8.010630760E-1,1.572931744E-2,-1.634016484E-1,4.489727318E-2
8.034449510E-1,1.450762246E-2,-1.670667231E-1,4.856235534E-2
8.058268260E-1,1.084253844E-2,-1.682884246E-1,5.222744122E-2
8.082086490E-1,9.620844387E-3,-1.682884246E-1,5.467082933E-2
8.105905240E-1,9.620844387E-3,-1.693574041E-1,5.589252338E-2
8.129723990E-1,5.803049076E-3,-1.730224788E-1,5.589252338E-2
8.153542740E-1,5.803049076E-3,-1.718007922E-1,5.589252338E-2
8.177360970E-1,5.803049076E-3,-1.695101112E-1,5.589252338E-2
8.201179720E-1,3.359660041E-3,-1.682884246E-1,5.711421743E-2
8.224998470E-1,-3.054236295E-4,-1.695101112E-1,5.467082933E-2
8.248816700E-1,-2.901524538E-3,-1.682884246E-1,5.344913527E-2
8.272635450E-1,-9.009997360E-3,-1.670667231E-1,5.100574717E-2
8.296454200E-1,-1.160609815E-2,-1.659977436E-1,5.100574717E-2
8.320272430E-1,-1.527118124E-2,-1.635543555E-1,4.978405312E-2
8.344091180E-1,-1.771457121E-2,-1.611109674E-1,5.222744122E-2
8.367909930E-1,-2.153236605E-2,-1.586675793E-1,5.085303262E-2
8.391728680E-1,-2.779355086E-2,-1.539335102E-1,5.085303262E-2
8.415546910E-1,-3.145863488E-2,-1.490467340E-1,4.840964451E-2
8.439365660E-1,-3.649812192E-2,-1.455343664E-1,4.596625641E-2
8.463184410E-1,-4.016320780E-2,-1.418692768E-1,4.596625641E-2
8.487002640E-1,-4.520269856E-2,-1.369825006E-1,4.214845970E-2
8.510821390E-1,-5.024218559E-2,-1.298050433E-1,4.214845970E-2
8.534640140E-1,-5.268557742E-2,-1.249182671E-1,4.337015375E-2
8.558458890E-1,-5.894676223E-2,-1.201841980E-1,4.214845970E-2
8.582277120E-1,-6.276455522E-2,-1.140757278E-1,4.337015375E-2
8.606095870E-1,-6.520794332E-2,-1.091889441E-1,4.077405483E-2
8.629914620E-1,-6.887302548E-2,-1.081199646E-1,4.077405483E-2
8.653732850E-1,-7.024743408E-2,-1.020114943E-1,3.955236077E-2
8.677551600E-1,-7.146912813E-2,-9.956810623E-2,3.344388679E-2
8.701370350E-1,-7.406523079E-2,-9.727742523E-2,3.222219273E-2
8.725189100E-1,-7.773031294E-2,-9.483403713E-2,2.977880463E-2
8.749007850E-1,-7.895200700E-2,-9.361234307E-2,2.733541466E-2
8.772826080E-1,-8.276980370E-2,-9.116895497E-2,2.611372061E-2
8.796644830E-1,-8.399149776E-2,-9.009996802E-2,2.107422985E-2
8.820463580E-1,-8.536590636E-2,-8.521319181E-2,1.985253580E-2
8.844281800E-1,-8.780929446E-2,-8.276980370E-2,1.985253580E-2
8.868100550E-1,-8.780929446E-2,-8.521319181E-2,1.740914769E-2
8.891919300E-1,-8.780929446E-2,-8.521319181E-2,1.618745178E-2
8.915737530E-1,-8.658760041E-2,-8.643488586E-2,1.496575773E-2
8.939556280E-1,-8.536590636E-2,-8.643488586E-2,1.252236869E-2
8.963375030E-1,-8.154810965E-2,-9.132166207E-2,1.496575773E-2
8.987193260E-1,-7.788302749E-2,-9.376505762E-2,1.252236869E-2
9.011012010E-1,-7.284353673E-2,-9.483403713E-2,1.267508045E-2
9.034830760E-1,-6.551336497E-2,-9.727742523E-2,1.145338640E-2
9.058649510E-1,-5.925218388E-2,-9.727742523E-2,1.145338640E-2
9.082467740E-1,-5.558710173E-2,-9.972081333E-2,1.023169141E-2
9.106286490E-1,-5.054761097E-2,-9.956810623E-2,1.145338640E-2
9.130105240E-1,-4.428642616E-2,-1.007898003E-1,1.023169141E-2
9.153923990E-1,-3.939964995E-2,-1.020114943E-1,1.023169141E-2
9.177742220E-1,-3.451287001E-2,-1.020114943E-1,9.009997360E-3
9.201560970E-1,-2.947338112E-2,-9.834641218E-2,6.566607859E-3
9.225379720E-1,-2.336490713E-2,-9.345962852E-2,1.023169141E-2
9.249197950E-1,-1.710372418E-2,-8.979454637E-2,1.404948719E-2
9.273016700E-1,-1.099525020E-2,-8.490777016E-2,1.649287529E-2
9.296835450E-1,-2.290677279E-3,-8.231166750E-2,1.893626526E-2
9.320653680E-1,6.413896102E-3,-7.864658535E-2,2.015795931E-2
9.344472430E-1,1.634016447E-2,-7.620319724E-2,2.382304333E-2
9.368291180E-1,2.504473738E-2,-7.253811508E-2,2.626643144E-2
9.392109930E-1,3.863608837E-2,-6.872031838E-2,3.130592033E-2
9.415928680E-1,4.978405312E-2,-6.872031838E-2,3.497100621E-2
9.439746910E-1,6.230641901E-2,-6.978929788E-2,3.863608837E-2
9.463565660E-1,7.467607409E-2,-6.963659078E-2,4.367557913E-2
9.487383890E-1,8.719844371E-2,-7.207997888E-2,4.856235534E-2
9.511202640E-1,9.834641218E-2,-7.559234649E-2,5.100574717E-2
9.535021390E-1,1.094943732E-1,-7.910472155E-2,5.482354015E-2
9.558840140E-1,1.169772521E-1,-8.276980370E-2,5.848862603E-2
9.582658370E-1,1.232384369E-1,-8.506047726E-2,5.848862603E-2
9.606477120E-1,1.269035190E-1,-8.628217876E-2,5.971032009E-2
9.630295870E-1,1.307213157E-1,-8.506047726E-2,6.215370819E-2
9.654114100E-1,1.319430023E-1,-8.383878320E-2,6.093201414E-2
9.677932850E-1,1.368297935E-1,-8.139539510E-2,5.971032009E-2
9.701751600E-1,1.392731816E-1,-7.773031294E-2,5.848862603E-2
9.725570350E-1,1.404948682E-1,-7.650861889E-2,5.726693198E-2
9.749388580E-1,1.417165697E-1,-7.055285573E-2,5.482354015E-2
9.773207330E-1,1.417165697E-1,-6.810946763E-2,5.360184610E-2
9.797026080E-1,1.429382563E-1,-6.566607952E-2,4.993676394E-2
9.820844300E-1,1.441599578E-1,-6.200099736E-2,4.871506989E-2
9.844663050E-1,1.441599578E-1,-6.077930331E-2,4.627167806E-2
9.868481800E-1,1.427855492E-1,-6.077930331E-2,4.504998401E-2
9.892300550E-1,1.440072358E-1,-5.833591148E-2,4.504998401E-2
9.916118780E-1,1.415638477E-1,-5.115845799E-2,4.382828996E-2
9.939937530E-1,1.401894391E-1,-4.382828996E-2,4.367557913E-2
9.963756280E-1,1.389677525E-1,-3.542914242E-2,4.123219103E-2
9.987575030E-1,1.377460510E-1,-2.565558441E-2,4.123219103E-2
1.001139326E0,1.339282542E-1,-1.359135192E-2,4.123219103E-2
1.003521201E0,1.325538605E-1,-1.527118147E-3,4.107947648E-2
1.005903076E0,1.299577504E-1,1.068982668E-2,3.863608837E-2
1.008284899E0,1.250709742E-1,2.397575416E-2,3.863608837E-2
1.010666774E0,1.212531775E-1,3.848337755E-2,3.985778242E-2
1.013048649E0,1.174353883E-1,5.421269313E-2,3.848337755E-2
1.015430472E0,1.111742035E-1,6.872031838E-2,3.848337755E-2
1.017812347E0,1.085781008E-1,7.849387079E-2,3.726168349E-2
1.020194222E0,1.010952219E-1,8.933641016E-2,3.710897267E-2
1.022576097E0,9.849911928E-2,9.773556143E-2,3.833066672E-2
1.024957920E0,9.483403713E-2,1.075091213E-1,3.833066672E-2
1.027339795E0,9.101624042E-2,1.111742035E-1,3.955236077E-2
1.029721670E0,8.735115826E-2,1.159082651E-1,3.833066672E-2
1.032103493E0,8.490777016E-2,1.159082651E-1,3.833066672E-2
1.034485368E0,8.108997345E-2,1.146865711E-1,3.817795217E-2
1.036867243E0,7.986827940E-2,1.122431830E-1,4.077405483E-2
1.039249118E0,7.498150319E-2,1.134648770E-1,4.428642616E-2
1.041630941E0,7.131642103E-2,1.097997949E-1,4.428642616E-2
1.044012868E0,6.749862432E-2,1.061347127E-1,4.550812021E-2
1.046394691E0,6.383354217E-2,1.000262350E-1,4.306473210E-2
1.048776514E0,5.772506446E-2,9.513945878E-2,4.550812021E-2
1.051158389E0,5.146388337E-2,9.269607067E-2,4.428642616E-2
1.053540264E0,4.779879749E-2,8.658760041E-2,4.306473210E-2
1.055922139E0,3.787253052E-2,8.170082420E-2,3.939964995E-2
1.058303962E0,3.054236248E-2,7.437065244E-2,3.695625812E-2
1.060685837E0,2.305948362E-2,6.826218218E-2,3.329117596E-2
1.063067712E0,1.695101149E-2,6.215370819E-2,2.962609194E-2
1.065449587E0,7.024743594E-3,5.604523420E-2,2.718270384E-2
1.067831410E0,-2.901524538E-3,5.115845799E-2,2.229592577E-2
1.070213285E0,-1.160609815E-2,4.367557913E-2,1.847812906E-2
1.072595160E0,-1.893626526E-2,3.283303976E-2,1.481304597E-2
1.074976983E0,-2.886253223E-2,2.535016090E-2,1.114796288E-2
1.077358858E0,-3.756710514E-2,1.328592747E-2,9.926267900E-3
1.079740733E0,-4.489727318E-2,3.512371797E-3,3.817795310E-3
1.082122555E0,-5.238015205E-2,-7.482878864E-3,1.527118147E-4
1.084504430E0,-5.848862603E-2,-1.603474095E-2,-5.955760833E-3
1.086886305E0,-6.597150117E-2,-2.580829710E-2,-1.206423342E-2
1.089268180E0,-7.207997888E-2,-3.313846514E-2,-1.450762246E-2
1.091650003E0,-7.589777559E-2,-3.924693540E-2,-1.572931744E-2
1.094031878E0,-7.956285775E-2,-4.657710344E-2,-2.061609551E-2
1.096413753E0,-8.200624585E-2,-5.635065958E-2,-2.550287358E-2
1.098795628E0,-8.200624585E-2,-6.245913357E-2,-3.038965166E-2
1.101177451E0,-8.322793990E-2,-6.612421572E-2,-3.283303976E-2
1.103559326E0,-8.322793990E-2,-6.856760383E-2,-3.894151375E-2
1.105941201E0,-8.322793990E-2,-7.223268598E-2,-4.382828996E-2
1.108323024E0,-8.444963396E-2,-7.467607409E-2,-4.871506989E-2
1.110704899E0,-8.322793990E-2,-7.345438004E-2,-5.238015205E-2
1.113086774E0,-8.322793990E-2,-7.589777559E-2,-5.482354015E-2
1.115468597E0,-8.215895295E-2,-7.467607409E-2,-5.726693198E-2
1.117850472E0,-8.215895295E-2,-7.467607409E-2,-6.108472496E-2
1.120232347E0,-8.093725890E-2,-7.345438004E-2,-6.230641901E-2
1.122614222E0,-7.971556485E-2,-7.223268598E-2,-6.352811307E-2
1.124996045E0,-8.093725890E-2,-6.856760383E-2,-6.597150117E-2
1.127377920E0,-8.093725890E-2,-6.505523622E-2,-6.719319522E-2
1.129759795E0,-7.727217674E-2,-6.261184067E-2,-6.597150117E-2
1.132141618E0,-7.605048269E-2,-6.016845629E-2,-6.597150117E-2
1.134523545E0,-7.238540053E-2,-5.161659420E-2,-6.841489673E-2
1.136905368E0,-7.360709459E-2,-4.795150831E-2,-6.841489673E-2
1.139287243E0,-7.360709459E-2,-4.428642616E-2,-6.719319522E-2
1.141669066E0,-7.605048269E-2,-3.955236077E-2,-6.597150117E-2
1.144050941E0,-7.742489129E-2,-3.100049868E-2,-6.474980712E-2
1.146432816E0,-7.864658535E-2,-2.855710872E-2,-6.108472496E-2
1.148814639E0,-7.986827940E-2,-2.122694254E-2,-5.741964281E-2
1.151196514E0,-8.231166750E-2,-1.771457121E-2,-5.497625470E-2
1.153578389E0,-8.246438205E-2,-1.038440317E-2,-5.253286287E-2
1.155960264E0,-8.368607610E-2,-5.497625098E-3,-4.886778072E-2
1.158342087E0,-8.490777016E-2,-3.054236295E-3,-4.642439261E-2
1.160723962E0,-8.368607610E-2,1.832541777E-3,-4.398100078E-2
1.163105837E0,-8.612946421E-2,1.832541777E-3,-4.413371533E-2
1.165487712E0,-8.612946421E-2,3.054236295E-3,-4.031591862E-2
1.167869535E0,-8.612946421E-2,7.941014133E-3,-3.924693540E-2
1.170251410E0,-8.735115826E-2,7.941014133E-3,-3.924693540E-2
1.172633285E0,-8.612946421E-2,9.162709117E-3,-3.542914242E-2
1.175015108E0,-8.857285231E-2,7.941014133E-3,-3.298575059E-2
1.177396983E0,-9.101624042E-2,7.941014133E-3,-3.176405653E-2
1.179778858E0,-9.223793447E-2,6.719320081E-3,-3.054236248E-2
1.182160733E0,-9.223793447E-2,6.719320081E-3,-2.565558441E-2
1.184542555E0,-9.712471068E-2,6.719320081E-3,-2.321219631E-2
1.186924430E0,-9.712471068E-2,3.054236295E-3,-1.954711229E-2
1.189306305E0,-9.590301663E-2,3.054236295E-3,-1.466033421E-2
1.191688128E0,-9.468132257E-2,-4.581354442E-4,-1.221694518E-2
1.194070003E0,-9.452861547E-2,-1.679830020E-3,-8.551862091E-3
1.196451878E0,-9.208522737E-2,-7.788302377E-3,-7.330167107E-3
1.198833753E0,-8.704573661E-2,-1.130067464E-2,-4.886778072E-3
1.201215576E0,-8.093725890E-2,-1.130067464E-2,-2.290677279E-3
1.203597451E0,-7.467607409E-2,-1.618745178E-2,-2.290677279E-3
1.205979326E0,-6.841489673E-2,-1.969982497E-2,-1.068982761E-3
1.208361149E0,-6.093201414E-2,-2.092151903E-2,1.374406274E-3
1.210743076E0,-5.344913527E-2,-2.076880634E-2,5.039489828E-3
1.213124899E0,-4.978405312E-2,-1.954711229E-2,6.413896102E-3
1.215506722E0,-4.107947648E-2,-1.832541823E-2,7.635590620E-3
1.217888597E0,-3.619270027E-2,-1.588202827E-2,1.007897966E-2
1.220270472E0,-3.237490356E-2,-1.588202827E-2,1.007897966E-2
1.222652347E0,-2.870982140E-2,-1.466033421E-2,1.130067464E-2
1.225034170E0,-2.244863659E-2,-1.084253844E-2,1.374406368E-2
1.227416045E0,-2.244863659E-2,-9.620844387E-3,1.740914769E-2
1.229797920E0,-2.504473738E-2,-6.108472589E-3,1.740914769E-2
1.232179795E0,-2.244863659E-2,-2.443389036E-3,1.985253580E-2
1.234561618E0,-2.626643144E-2,-1.221694518E-3,2.107422985E-2
1.236943493E0,-2.748812735E-2,1.221694518E-3,2.229592577E-2
1.239325368E0,-2.993151546E-2,3.665083554E-3,2.473931387E-2
1.241707191E0,-3.497100621E-2,8.399149403E-3,2.351761982E-2
1.244089066E0,-3.863608837E-2,1.084253844E-2,2.473931387E-2
1.246470941E0,-4.123219103E-2,1.450762246E-2,2.473931387E-2
1.248852816E0,-4.734066129E-2,1.572931744E-2,2.458660305E-2
1.251234639E0,-5.115845799E-2,1.695101149E-2,2.580829710E-2
1.253616514E0,-5.238015205E-2,2.046338283E-2,2.458660305E-2
1.255998389E0,-5.604523420E-2,2.168507688E-2,2.458660305E-2
1.258380212E0,-5.726693198E-2,2.412846684E-2,2.458660305E-2
1.260762087E0,-5.741964281E-2,2.535016090E-2,2.214321308E-2
1.263143962E0,-5.741964281E-2,2.657185495E-2,2.336490713E-2
1.265525785E0,-5.360184610E-2,2.901524492E-2,2.336490713E-2
1.267907660E0,-5.238015205E-2,3.023693897E-2,2.214321308E-2
1.270289535E0,-4.993676394E-2,3.145863488E-2,2.336490713E-2
1.272671410E0,-4.382828996E-2,3.268032894E-2,2.214321308E-2
1.275053233E0,-3.756710514E-2,3.023693897E-2,2.458660305E-2
1.277435108E0,-3.252761811E-2,3.038965166E-2,2.580829710E-2
1.279816983E0,-2.641914412E-2,2.794626169E-2,2.473931387E-2
1.282198858E0,-2.382304333E-2,3.038965166E-2,2.596100792E-2
1.284580680E0,-1.771457121E-2,2.794626169E-2,2.596100792E-2
1.286962555E0,-1.389677543E-2,2.916795574E-2,2.473931387E-2
1.289344430E0,-7.788302377E-3,2.916795574E-2,2.351761982E-2
1.291726253E0,-7.788302377E-3,3.283303976E-2,2.351761982E-2
1.294108128E0,-5.344913341E-3,3.649812192E-2,2.473931387E-2
1.296490003E0,-2.901524538E-3,3.894151375E-2,2.229592577E-2
1.298871878E0,-2.901524538E-3,4.260659590E-2,2.107422985E-2
1.301253701E0,-2.901524538E-3,4.993676394E-2,2.107422985E-2
1.303635576E0,-6.719320081E-3,5.467082933E-2,1.847812906E-2
1.306017451E0,-6.719320081E-3,5.955760926E-2,1.725643501E-2
1.308399274E0,-1.053711493E-2,6.429167092E-2,1.725643501E-2
1.310781149E0,-1.298050396E-2,7.040014863E-2,1.847812906E-2
1.313163024E0,-1.679829881E-2,7.650861889E-2,1.725643501E-2
1.315544899E0,-2.046338283E-2,8.246438205E-2,1.725643501E-2
1.317926722E0,-2.305948362E-2,8.979454637E-2,1.954711229E-2
1.320308597E0,-2.550287358E-2,9.223793447E-2,1.954711229E-2
1.322690472E0,-2.550287358E-2,9.941539168E-2,2.199050039E-2
1.325072295E0,-2.932066843E-2,1.055238619E-1,2.321219631E-2
1.327454170E0,-3.054236248E-2,1.079672500E-1,2.687728032E-2
1.329836045E0,-3.054236248E-2,1.091889441E-1,2.565558441E-2
1.332217920E0,-3.176405653E-2,1.128540337E-1,2.809897438E-2
1.334599743E0,-3.176405653E-2,1.165191159E-1,2.932066843E-2
1.336981618E0,-3.298575059E-2,1.177408099E-1,2.932066843E-2
1.339363493E0,-3.542914242E-2,1.200314835E-1,3.176405653E-2
1.341745368E0,-3.420744836E-2,1.212531775E-1,3.176405653E-2
1.344127191E0,-3.787253052E-2,1.189625040E-1,3.542914242E-2
1.346509066E0,-4.169032723E-2,1.165191159E-1,3.787253052E-2
1.348890941E0,-4.169032723E-2,1.177408099E-1,3.787253052E-2
1.351272764E0,-4.413371533E-2,1.163664013E-1,3.665083647E-2
1.353654639E0,-4.657710344E-2,1.163664013E-1,3.787253052E-2
1.356036514E0,-4.779879749E-2,1.152974218E-1,3.909422457E-2
1.358418337E0,-5.146388337E-2,1.151447073E-1,3.909422457E-2
1.360800212E0,-5.146388337E-2,1.104106456E-1,4.031591862E-2
1.363182087E0,-5.268557742E-2,1.091889441E-1,3.787253052E-2
1.365563962E0,-5.528167635E-2,1.067455560E-1,3.665083647E-2
1.367945785E0,-5.528167635E-2,1.030804738E-1,3.542914242E-2
1.370327660E0,-5.268557742E-2,9.819369763E-2,3.420744836E-2
1.372709535E0,-5.146388337E-2,9.330692142E-2,3.420744836E-2
1.375091358E0,-5.024218559E-2,8.612946421E-2,3.420744836E-2
1.377473233E0,-5.008947477E-2,7.879929990E-2,3.298575059E-2
1.379855108E0,-4.886778072E-2,7.024743408E-2,3.313846514E-2
1.382236983E0,-4.764608666E-2,6.429167092E-2,3.191677108E-2
1.384618858E0,-4.627167806E-2,5.573981255E-2,3.436015919E-2
1.387000680E0,-4.504998401E-2,4.978405312E-2,3.436015919E-2
1.389382555E0,-4.123219103E-2,4.367557913E-2,3.436015919E-2
1.391764378E0,-3.863608837E-2,2.916795574E-2,3.451287001E-2
1.394146253E0,-4.107947648E-2,9.773556143E-3,4.306473210E-2
1.396528128E0,-4.337015375E-2,1.374406274E-3,5.283828825E-2
1.398910003E0,-4.459185153E-2,-5.955760833E-3,5.772506446E-2
1.401291826E0,-4.092676565E-2,-8.399149403E-3,5.787777901E-2
1.403673701E0,-3.344388679E-2,-3.512371797E-3,5.299099907E-2
1.406055576E0,-1.985253580E-2,1.527118147E-4,4.443913698E-2
1.408437451E0,-8.857285604E-3,2.596100792E-3,3.588727489E-2
1.410819274E0,1.068982761E-3,2.596100792E-3,3.344388679E-2
1.413201149E0,7.330167107E-3,3.054236295E-4,3.222219273E-2
1.415583024E0,1.603474095E-2,-9.162708884E-4,3.588727489E-2
1.417964847E0,1.847812906E-2,-2.137965523E-3,3.710897267E-2
1.420346722E0,2.229592577E-2,-6.872031838E-3,4.077405483E-2
1.422728597E0,2.351761982E-2,-1.298050396E-2,4.459185153E-2
1.425110472E0,2.489202656E-2,-1.893626526E-2,4.459185153E-2
1.427492295E0,2.611372061E-2,-2.504473738E-2,4.947862774E-2
1.429874170E0,2.993151546E-2,-3.466558084E-2,5.314370990E-2
1.432256045E0,2.993151546E-2,-4.077405483E-2,5.558710173E-2
1.434637868E0,3.497100621E-2,-4.795150831E-2,5.696150661E-2
1.437019743E0,4.001049697E-2,-5.405998230E-2,5.696150661E-2
1.439401618E0,4.489727318E-2,-5.512896553E-2,5.940489471E-2
1.441783493E0,5.238015205E-2,-5.390727147E-2,6.062658876E-2
1.444165316E0,6.108472496E-2,-5.146388337E-2,6.062658876E-2
1.446547191E0,6.597150117E-2,-5.024218559E-2,6.062658876E-2
1.448929066E0,6.963659078E-2,-4.779879749E-2,6.062658876E-2
1.451310889E0,7.345438004E-2,-4.535540938E-2,6.444438547E-2
1.453692764E0,7.711946964E-2,-4.535540938E-2,6.444438547E-2
1.456074639E0,7.971556485E-2,-4.535540938E-2,6.566607952E-2
1.458456514E0,8.093725890E-2,-4.535540938E-2,6.444438547E-2
1.460838337E0,8.093725890E-2,-5.131116882E-2,6.444438547E-2
1.463220212E0,8.215895295E-2,-5.497625470E-2,6.200099736E-2
1.465602087E0,8.093725890E-2,-5.986303091E-2,6.200099736E-2
1.467983910E0,8.338065445E-2,-6.352811307E-2,6.322269142E-2
1.470365785E0,8.597674966E-2,-6.948387623E-2,6.322269142E-2
1.472747660E0,8.475505561E-2,-7.437065244E-2,6.200099736E-2
1.475129483E0,8.353336155E-2,-7.803573459E-2,6.077930331E-2
1.477511358E0,8.475505561E-2,-8.292251825E-2,6.077930331E-2
1.479893233E0,8.475505561E-2,-8.536590636E-2,5.833591148E-2
1.482275108E0,8.108997345E-2,-8.536590636E-2,5.833591148E-2
1.484656930E0,7.986827940E-2,-8.780929446E-2,5.833591148E-2
1.487038805E0,7.986827940E-2,-8.658760041E-2,5.711421743E-2
1.489420680E0,7.986827940E-2,-8.780929446E-2,5.467082933E-2
1.491802555E0,7.849387079E-2,-8.414421231E-2,5.589252338E-2
1.494184378E0,7.605048269E-2,-8.047912270E-2,5.589252338E-2
1.496566253E0,7.482878864E-2,-7.925742865E-2,5.467082933E-2
1.498948128E0,7.482878864E-2,-7.696675509E-2,5.589252338E-2
1.501329951E0,7.223268598E-2,-7.452336699E-2,5.589252338E-2
1.503711826E0,7.223268598E-2,-7.330167294E-2,5.222744122E-2
1.506093701E0,7.101099193E-2,-7.085828483E-2,5.467082933E-2
1.508475576E0,6.978929788E-2,-7.330167294E-2,5.344913527E-2
1.510857399E0,6.734590977E-2,-7.207997888E-2,5.344913527E-2
1.513239274E0,6.612421572E-2,-7.085828483E-2,5.222744122E-2
1.515621149E0,6.490252167E-2,-7.330167294E-2,5.100574717E-2
1.518002972E0,6.474980712E-2,-7.330167294E-2,4.978405312E-2
1.520384847E0,6.597150117E-2,-7.207997888E-2,4.734066129E-2
1.522766722E0,6.856760383E-2,-6.963659078E-2,4.611896724E-2
1.525148597E0,6.734590977E-2,-7.330167294E-2,4.611896724E-2
1.527530420E0,6.856760383E-2,-6.841489673E-2,4.734066129E-2
1.529912295E0,6.841489673E-2,-6.490252167E-2,4.596625641E-2
1.532294170E0,7.101099193E-2,-6.368082762E-2,4.718795046E-2
1.534675993E0,7.101099193E-2,-6.123743951E-2,4.718795046E-2
1.537057868E0,6.841489673E-2,-6.001574174E-2,4.474456236E-2
1.539439743E0,6.597150117E-2,-5.635065958E-2,4.718795046E-2
1.541821618E0,6.474980712E-2,-5.390727147E-2,4.963133857E-2
1.544203441E0,6.093201414E-2,-5.146388337E-2,4.963133857E-2
1.546585316E0,5.848862603E-2,-5.146388337E-2,5.207473040E-2
1.548967191E0,5.604523420E-2,-4.917320609E-2,5.451811850E-2
1.551349014E0,5.360184610E-2,-4.550812021E-2,5.329642445E-2
1.553730941E0,5.222744122E-2,-4.428642616E-2,5.329642445E-2
1.556112764E0,5.222744122E-2,-4.062134400E-2,5.085303262E-2
1.558494639E0,4.978405312E-2,-3.588727489E-2,4.840964451E-2
1.560876462E0,4.840964451E-2,-3.222219273E-2,4.581354558E-2
1.563258337E0,4.718795046E-2,-2.611372061E-2,4.581354558E-2
1.565640212E0,4.337015375E-2,-2.137965336E-2,4.337015375E-2
1.568022087E0,3.970507160E-2,-1.527118124E-2,4.214845970E-2
1.570403910E0,3.833066672E-2,-9.315420873E-3,3.970507160E-2
1.572785785E0,3.466558084E-2,-5.650337320E-3,3.726168349E-2
1.575167660E0,3.206948191E-2,-3.206948051E-3,3.344388679E-2
1.577549483E0,2.962609194E-2,5.192201585E-3,3.100049868E-2
1.579931358E0,2.580829710E-2,1.496575773E-2,2.977880463E-2
1.582313233E0,2.076880634E-2,2.092151903E-2,2.855710872E-2
1.584695055E0,1.832541823E-2,2.947338112E-2,2.855710872E-2
1.587076930E0,1.450762246E-2,3.665083647E-2,3.206948191E-2
1.589458805E0,1.084253844E-2,4.275930673E-2,3.451287001E-2
1.591840680E0,5.803049076E-3,4.871506989E-2,3.695625812E-2
1.594222503E0,2.137965523E-3,5.238015205E-2,3.939964995E-2
1.596604378E0,-2.901524538E-3,5.604523420E-2,3.817795217E-2
1.598986253E0,-4.123218823E-3,5.726693198E-2,3.695625812E-2
1.601368128E0,-5.344913341E-3,5.971032009E-2,3.695625812E-2
1.603749951E0,-6.566607859E-3,6.077930331E-2,3.817795217E-2
1.606131826E0,-6.566607859E-3,6.200099736E-2,3.573456407E-2
1.608513701E0,-9.162709117E-3,6.077930331E-2,3.573456407E-2
1.610895524E0,-1.038440317E-2,5.833591148E-2,3.695625812E-2
1.613277399E0,-1.282779220E-2,5.711421743E-2,3.695625812E-2
1.615659274E0,-1.527118124E-2,5.467082933E-2,3.695625812E-2
1.618041097E0,-1.527118124E-2,5.360184610E-2,3.695625812E-2
1.620422972E0,-1.771457121E-2,5.222744122E-2,3.695625812E-2
1.622804847E0,-1.893626526E-2,5.344913527E-2,3.817795217E-2
1.625186722E0,-2.137965336E-2,5.467082933E-2,4.184303805E-2
1.627568545E0,-2.397575416E-2,5.589252338E-2,4.428642616E-2
1.629950472E0,-2.764083818E-2,5.589252338E-2,4.795150831E-2
1.632332295E0,-3.008422814E-2,5.222744122E-2,4.917320609E-2
1.634714170E0,-3.497100621E-2,5.100574717E-2,5.161659420E-2
1.637095993E0,-3.741439432E-2,4.627167806E-2,5.283828825E-2
1.639477868E0,-3.985778242E-2,4.260659590E-2,5.039490014E-2
1.641859743E0,-4.245388508E-2,3.894151375E-2,5.039490014E-2
1.644241618E0,-4.367557913E-2,3.527642787E-2,5.039490014E-2
1.646623441E0,-4.611896724E-2,3.161134571E-2,5.039490014E-2
1.649005316E0,-4.978405312E-2,2.428117767E-2,4.795150831E-2
1.651387191E0,-4.856235534E-2,2.183778957E-2,4.672981426E-2
1.653769014E0,-4.978405312E-2,1.695101149E-2,4.550812021E-2
1.656150889E0,-4.856235534E-2,1.450762246E-2,4.550812021E-2
1.658532764E0,-4.856235534E-2,1.099525020E-2,4.184303805E-2
1.660914587E0,-4.840964451E-2,7.330167107E-3,3.939964995E-2
1.663296462E0,-4.840964451E-2,4.886778072E-3,4.062134400E-2
1.665678337E0,-4.718795046E-2,4.886778072E-3,3.695625812E-2
1.668060212E0,-4.718795046E-2,3.665083554E-3,3.573456407E-2
1.670442035E0,-4.718795046E-2,3.665083554E-3,3.573456407E-2
1.672823910E0,-4.596625641E-2,7.330167107E-3,3.573456407E-2
1.675205785E0,-4.352286831E-2,6.108472589E-3,3.329117596E-2
1.677587660E0,-4.352286831E-2,6.108472589E-3,3.329117596E-2
1.679969483E0,-4.352286831E-2,9.620844387E-3,3.206948191E-2
1.682351358E0,-4.352286831E-2,1.328592747E-2,3.329117596E-2
1.684733233E0,-3.985778242E-2,1.206423342E-2,3.329117596E-2
1.687115055E0,-3.863608837E-2,1.572931744E-2,3.329117596E-2
1.689496930E0,-3.863608837E-2,2.061609551E-2,3.451287001E-2
1.691878805E0,-3.619270027E-2,2.428117767E-2,3.451287001E-2
1.694260628E0,-3.497100621E-2,2.916795574E-2,3.695625812E-2
1.696642503E0,-3.374931216E-2,3.405473381E-2,3.817795217E-2
1.699024378E0,-3.130592033E-2,3.527642787E-2,4.062134400E-2
1.701406253E0,-2.886253223E-2,4.138490185E-2,4.062134400E-2
1.703788076E0,-2.641914412E-2,4.504998401E-2,4.306473210E-2
1.706169951E0,-2.504473738E-2,4.749337584E-2,4.306473210E-2
1.708551826E0,-2.519745007E-2,4.993676394E-2,4.428642616E-2
1.710933701E0,-2.504473738E-2,4.993676394E-2,4.795150831E-2
1.713315524E0,-2.137965336E-2,5.115845799E-2,4.917320609E-2
1.715697399E0,-2.260134928E-2,5.115845799E-2,5.039490014E-2
1.718079274E0,-2.382304333E-2,4.993676394E-2,4.917320609E-2
1.720461149E0,-2.382304333E-2,5.238015205E-2,4.795150831E-2
1.722842972E0,-2.382304333E-2,4.871506989E-2,4.795150831E-2
1.725224847E0,-2.382304333E-2,5.115845799E-2,4.795150831E-2
1.727606670E0,-2.382304333E-2,4.993676394E-2,4.917320609E-2
1.729988545E0,-2.626643144E-2,5.238015205E-2,5.283828825E-2
1.732370420E0,-2.626643144E-2,5.360184610E-2,5.405998230E-2
1.734752295E0,-2.641914412E-2,5.833591148E-2,5.405998230E-2
1.737134118E0,-2.764083818E-2,5.955760926E-2,5.405998230E-2
1.739515993E0,-3.008422814E-2,5.833591148E-2,5.528167635E-2
1.741897868E0,-3.130592033E-2,5.955760926E-2,5.528167635E-2
1.744279743E0,-3.008422814E-2,6.200099736E-2,5.894676223E-2
1.746661618E0,-3.130592033E-2,6.566607952E-2,6.261184067E-2
1.749043441E0,-3.008422814E-2,6.566607952E-2,6.261184067E-2
1.751425316E0,-3.130592033E-2,6.444438547E-2,6.261184067E-2
1.753807139E0,-3.008422814E-2,6.200099736E-2,6.383354217E-2
1.756189014E0,-3.130592033E-2,5.971032009E-2,6.261184067E-2
1.758570889E0,-3.008422814E-2,5.848862603E-2,6.016845629E-2
1.760952764E0,-2.870982140E-2,5.482354015E-2,6.261184067E-2
1.763334587E0,-2.870982140E-2,5.604523420E-2,6.505523622E-2
1.765716462E0,-3.115320951E-2,5.238015205E-2,6.749862432E-2
1.768098337E0,-2.993151546E-2,4.871506989E-2,6.872031838E-2
1.770480212E0,-2.748812735E-2,4.627167806E-2,6.749862432E-2
1.772862035E0,-2.626643144E-2,4.398100078E-2,6.872031838E-2
1.775243910E0,-2.489202656E-2,4.153761268E-2,6.872031838E-2
1.777625785E0,-2.000524849E-2,3.665083647E-2,6.872031838E-2
1.780007608E0,-1.618745178E-2,3.313846514E-2,6.887302548E-2
1.782389483E0,-1.252236869E-2,2.947338112E-2,7.009471953E-2
1.784771358E0,-6.261184346E-3,2.580829710E-2,7.131642103E-2
1.787153180E0,-3.817795310E-3,2.107422985E-2,7.009471953E-2
1.789535055E0,2.443389036E-3,1.863084175E-2,7.131642103E-2
1.791916930E0,6.261184346E-3,1.496575773E-2,7.131642103E-2
1.794298753E0,1.114796288E-2,1.023169141E-2,6.902574003E-2
1.796680628E0,1.740914769E-2,6.566607859E-3,7.024743408E-2
1.799062503E0,1.985253580E-2,5.344913341E-3,7.269082218E-2
1.801444378E0,2.244863659E-2,4.581354442E-4,7.024743408E-2
1.803826253E0,2.489202656E-2,-3.054236295E-3,6.780404598E-2
1.806208076E0,2.993151546E-2,-4.275931045E-3,7.024743408E-2
1.808589951E0,3.237490356E-2,-4.275931045E-3,7.391251624E-2
1.810971826E0,3.603998944E-2,-7.941014133E-3,7.146912813E-2
1.813353649E0,4.107947648E-2,-1.023169141E-2,7.528692484E-2
1.815735524E0,4.230117425E-2,-1.267508045E-2,7.162184268E-2
1.818117399E0,4.107947648E-2,-1.756185852E-2,7.406523079E-2
1.820499222E0,4.367557913E-2,-2.122694254E-2,7.528692484E-2
1.822881097E0,4.489727318E-2,-2.473931387E-2,7.284353673E-2
1.825262972E0,4.611896724E-2,-2.596100792E-2,7.528692484E-2
1.827644847E0,4.611896724E-2,-3.206948191E-2,7.406523079E-2
1.830026670E0,4.734066129E-2,-3.573456407E-2,7.406523079E-2
1.832408545E0,4.749337584E-2,-3.939964995E-2,7.773031294E-2
1.834790420E0,4.749337584E-2,-4.169032723E-2,8.017370105E-2
1.837172243E0,4.871506989E-2,-4.413371533E-2,8.139539510E-2
1.839554118E0,4.993676394E-2,-4.657710344E-2,8.017370105E-2
1.841935993E0,5.131116882E-2,-4.779879749E-2,8.399149776E-2
1.844317868E0,5.253286287E-2,-5.146388337E-2,8.521319181E-2
1.846699691E0,5.375456065E-2,-5.131116882E-2,8.643488586E-2
1.849081566E0,5.375456065E-2,-5.253286287E-2,8.887827396E-2
1.851463441E0,5.497625470E-2,-5.253286287E-2,9.009996802E-2
1.853845316E0,5.635065958E-2,-5.375456065E-2,9.009996802E-2
1.856227139E0,6.001574174E-2,-5.375456065E-2,9.009996802E-2
1.858609014E0,5.879404768E-2,-5.375456065E-2,8.887827396E-2
1.860990889E0,6.123743951E-2,-5.619794875E-2,9.009996802E-2
1.863372764E0,6.245913357E-2,-5.741964281E-2,9.009996802E-2
1.865754587E0,6.490252167E-2,-5.741964281E-2,9.009996802E-2
1.868136462E0,6.505523622E-2,-5.741964281E-2,9.132166207E-2
1.870518337E0,6.627693027E-2,-5.619794875E-2,9.009996802E-2
1.872900160E0,6.627693027E-2,-5.497625470E-2,9.132166207E-2
1.875282035E0,6.872031838E-2,-5.497625470E-2,9.009996802E-2
1.877663910E0,6.872031838E-2,-5.253286287E-2,9.132166207E-2
1.880045733E0,6.994201243E-2,-5.008947477E-2,9.009996802E-2
1.882427608E0,6.872031838E-2,-5.008947477E-2,9.009996802E-2
1.884809483E0,6.734590977E-2,-5.131116882E-2,9.009996802E-2
1.887191358E0,6.994201243E-2,-5.008947477E-2,9.254335612E-2
1.889573180E0,6.734590977E-2,-4.642439261E-2,9.376505762E-2
1.891955055E0,6.612421572E-2,-4.520269856E-2,9.254335612E-2
1.894336930E0,6.734590977E-2,-4.520269856E-2,9.132166207E-2
1.896718753E0,6.734590977E-2,-4.275930673E-2,9.376505762E-2
1.899100628E0,6.734590977E-2,-4.275930673E-2,9.254335612E-2
1.901482503E0,6.734590977E-2,-4.153761268E-2,9.254335612E-2
1.903864378E0,6.612421572E-2,-4.275930673E-2,9.376505762E-2
1.906246201E0,6.734590977E-2,-4.275930673E-2,9.376505762E-2
1.908628076E0,6.734590977E-2,-4.153761268E-2,9.376505762E-2
1.911009951E0,6.994201243E-2,-4.153761268E-2,9.376505762E-2
1.913391774E0,6.734590977E-2,-4.153761268E-2,9.009996802E-2
1.915773649E0,6.856760383E-2,-4.153761268E-2,9.009996802E-2
1.918155524E0,6.490252167E-2,-3.924693540E-2,8.887827396E-2
1.920537399E0,6.245913357E-2,-4.046862945E-2,9.009996802E-2
1.922919222E0,5.619794875E-2,-4.046862945E-2,9.009996802E-2
1.925301097E0,5.375456065E-2,-3.802524135E-2,8.643488586E-2
1.927682972E0,5.238015205E-2,-3.558185324E-2,8.506047726E-2
1.930064795E0,4.749337584E-2,-3.451287001E-2,8.506047726E-2
1.932446670E0,4.245388508E-2,-3.084778599E-2,8.383878320E-2
1.934828545E0,3.878879920E-2,-2.840439789E-2,8.261708915E-2
1.937210368E0,3.497100621E-2,-2.840439789E-2,8.139539510E-2
1.939592243E0,2.886253223E-2,-2.611372061E-2,7.895200700E-2
1.941974118E0,2.504473738E-2,-2.611372061E-2,7.895200700E-2
1.944355993E0,2.137965336E-2,-2.244863659E-2,7.513421029E-2
1.946737816E0,1.756185852E-2,-2.015795931E-2,7.635590434E-2
1.949119691E0,1.389677543E-2,-2.015795931E-2,7.391251624E-2
1.951501566E0,1.007897966E-2,-1.893626526E-2,7.269082218E-2
1.953883441E0,7.635590620E-3,-1.649287529E-2,7.146912813E-2
1.956265264E0,5.192201585E-3,-1.404948719E-2,7.024743408E-2
1.958647139E0,2.596100792E-3,-1.298050396E-2,6.780404598E-2
1.961029014E0,1.527118147E-4,-9.315420873E-3,6.658235192E-2
1.963410837E0,-1.221694518E-3,-5.650337320E-3,6.520794332E-2
1.965792712E0,-0.000000000E0,-4.428642802E-3,6.398624927E-2
1.968174587E0,-1.221694518E-3,-3.206948051E-3,6.154286116E-2
1.970556462E0,-3.665083554E-3,-2.137965523E-3,6.032116711E-2
1.972938285E0,-1.221694518E-3,-3.359660041E-3,5.909947306E-2
1.975320160E0,-2.443389036E-3,-2.137965523E-3,5.543438718E-2
1.977702035E0,-1.221694518E-3,3.054236295E-4,5.543438718E-2
1.980083858E0,-0.000000000E0,-9.162708884E-4,5.421269313E-2
1.982465733E0,-1.221694518E-3,1.527118147E-3,5.299099907E-2
1.984847608E0,-1.221694518E-3,1.527118147E-3,4.932591692E-2
1.987229483E0,-1.221694518E-3,3.054236295E-4,4.688252881E-2
1.989611305E0,-3.817795310E-3,-9.162708884E-4,4.810422286E-2
1.991993180E0,-2.596100792E-3,3.054236295E-4,4.688252881E-2
1.994375055E0,-2.596100792E-3,-2.137965523E-3,4.566083103E-2
1.996756878E0,-2.596100792E-3,-2.137965523E-3,4.443913698E-2
1.999138753E0,-1.221694518E-3,-4.581354558E-3,4.199574888E-2
2.001520628E0,-0.000000000E0,-5.803049076E-3,4.321744293E-2
2.003902503E0,-1.221694518E-3,-7.024743594E-3,4.443913698E-2
2.006284326E0,-2.443389036E-3,-8.246437646E-3,4.321744293E-2
2.008666201E0,-2.596100792E-3,-7.024743594E-3,4.199574888E-2
2.011048076E0,-3.817795310E-3,-9.468132630E-3,4.077405483E-2
2.013429951E0,-5.039489828E-3,-1.068982668E-2,4.199574888E-2
2.015811774E0,-6.261184346E-3,-1.191152167E-2,4.077405483E-2
2.018193649E0,-7.482878864E-3,-1.191152167E-2,4.077405483E-2
2.020575524E0,-9.926267900E-3,-1.068982668E-2,4.077405483E-2
2.022957347E0,-8.704573847E-3,-9.468132630E-3,4.077405483E-2
2.025339222E0,-1.236965694E-2,-9.468132630E-3,3.955236077E-2
2.027721097E0,-1.359135192E-2,-1.191152167E-2,3.955236077E-2
2.030102972E0,-1.496575773E-2,-9.468132630E-3,4.077405483E-2
2.032484795E0,-1.374406368E-2,-9.468132630E-3,4.077405483E-2
2.034866670E0,-1.236965694E-2,-7.024743594E-3,4.199574888E-2
2.037248545E0,-1.374406368E-2,-4.734066315E-3,4.077405483E-2
2.039630368E0,-1.374406368E-2,-5.803049076E-3,4.199574888E-2
2.042012243E0,-1.496575773E-2,-3.512371797E-3,4.077405483E-2
2.044394118E0,-1.374406368E-2,-3.512371797E-3,4.077405483E-2
2.046775993E0,-1.374406368E-2,1.527118147E-4,3.955236077E-2
2.049157816E0,-1.374406368E-2,1.527118147E-4,3.833066672E-2
2.051539691E0,-1.374406368E-2,2.596100792E-3,3.955236077E-2
2.053921566E0,-1.496575773E-2,3.817795310E-3,3.695625812E-2
2.056303389E0,-1.496575773E-2,6.261184346E-3,3.573456407E-2
2.058685264E0,-1.496575773E-2,8.704573847E-3,3.573456407E-2
2.061067139E0,-1.252236869E-2,1.236965694E-2,3.817795217E-2
2.063449014E0,-1.374406368E-2,1.343864016E-2,3.817795217E-2
2.065830837E0,-1.252236869E-2,1.588202827E-2,3.817795217E-2
2.068212712E0,-1.007897966E-2,1.954711229E-2,4.184303805E-2
2.070594587E0,-6.413896102E-3,1.969982497E-2,4.443913698E-2
2.072976410E0,-6.413896102E-3,2.336490713E-2,4.550812021E-2
2.075358285E0,-3.970507067E-3,2.580829710E-2,4.810422286E-2
2.077740160E0,-2.748812549E-3,3.176405653E-2,5.039490014E-2
2.080122035E0,-1.527118147E-3,3.665083647E-2,5.161659420E-2
2.082503858E0,3.512371797E-3,4.275930673E-2,5.421269313E-2
2.084885733E0,7.177455351E-3,4.520269856E-2,5.787777901E-2
2.087267608E0,1.084253844E-2,5.131116882E-2,6.032116711E-2
2.089649483E0,1.466033421E-2,5.497625470E-2,6.520794332E-2
2.092031305E0,1.710372418E-2,5.986303091E-2,6.642963737E-2
2.094413180E0,2.076880634E-2,6.352811307E-2,7.009471953E-2
2.096795055E0,2.321219631E-2,6.963659078E-2,7.253811508E-2
2.099176930E0,2.947338112E-2,7.574506104E-2,7.620319724E-2
2.101558753E0,3.436015919E-2,8.063183725E-2,7.986827940E-2
2.103940628E0,3.817795217E-2,8.551861346E-2,8.231166750E-2
2.106322503E0,4.428642616E-2,8.796200156E-2,8.108997345E-2
2.108704326E0,4.932591692E-2,9.407047927E-2,8.475505561E-2
2.111086201E0,5.543438718E-2,9.895725548E-2,8.597674966E-2
2.113468076E0,5.925218388E-2,9.910997003E-2,8.964183182E-2
2.115849899E0,6.536065787E-2,1.039967462E-1,8.964183182E-2
2.118231774E0,7.024743408E-2,1.076618284E-1,9.086353332E-2
2.120613649E0,7.528692484E-2,1.101052165E-1,9.223793447E-2
2.122995524E0,8.139539510E-2,1.101052165E-1,9.345962852E-2
2.125377399E0,8.887827396E-2,1.088835225E-1,9.345962852E-2
2.127759222E0,9.391776472E-2,1.113269106E-1,9.590301663E-2
2.130141097E0,9.880454093E-2,1.102579311E-1,9.590301663E-2
2.132522920E0,1.050657257E-1,1.090362370E-1,9.468132257E-2
2.134904795E0,1.099525094E-1,1.065928489E-1,9.590301663E-2
2.137286670E0,1.174353883E-1,1.055238619E-1,9.849911928E-2
2.139668545E0,1.236965731E-1,1.018587798E-1,9.972081333E-2
2.142050368E0,1.299577504E-1,9.956810623E-2,1.021642014E-1
2.144432243E0,1.362189353E-1,9.468132257E-2,1.033858955E-1
2.146814118E0,1.411057115E-1,9.223793447E-2,1.046075895E-1
2.149195993E0,1.461452097E-1,8.750387281E-2,1.059819981E-1
2.151577816E0,1.511846930E-1,8.383878320E-2,1.084253863E-1
2.153959691E0,1.560714692E-1,7.910472155E-2,1.096470803E-1
2.156341566E0,1.598892659E-1,7.666133344E-2,1.108687744E-1
2.158723389E0,1.649287641E-1,7.177454978E-2,1.157555580E-1
2.161105264E0,1.685938388E-1,6.581879407E-2,1.159082651E-1
2.163487139E0,1.724116355E-1,5.971032009E-2,1.195733473E-1
2.165868962E0,1.786728203E-1,5.619794875E-2,1.232384369E-1
2.168250837E0,1.823379099E-1,5.024218559E-2,1.269035190E-1
2.170632712E0,1.861557066E-1,4.657710344E-2,1.281252056E-1
2.173014587E0,1.924168915E-1,3.924693540E-2,1.307213157E-1
2.175396410E0,1.960819662E-1,3.329117596E-2,1.319430023E-1
2.177778285E0,2.023431510E-1,2.840439789E-2,1.343863904E-1
2.180160160E0,2.099787444E-1,1.878355257E-2,1.382041872E-1
2.182541983E0,2.174616307E-1,9.162709117E-3,1.418692768E-1
2.184923858E0,2.249445021E-1,1.985253533E-3,1.443126649E-1
2.187305733E0,2.324273884E-1,-1.007897966E-2,1.469087601E-1
2.189687608E0,2.411319613E-1,-2.336490713E-2,1.481304616E-1
2.192069430E0,2.498365343E-1,-3.298575059E-2,1.481304616E-1
2.194451305E0,2.562504113E-1,-4.275930673E-2,1.507265568E-1
2.196833180E0,2.637332976E-1,-5.238015205E-2,1.519482583E-1
2.199215003E0,2.698417902E-1,-6.200099736E-2,1.507265568E-1
2.201596930E0,2.748812735E-1,-6.933116168E-2,1.484358907E-1
2.203978753E0,2.762556672E-1,-7.650861889E-2,1.496575773E-1
2.206360628E0,2.761029601E-1,-7.788302749E-2,1.459924877E-1
2.208742451E0,2.786990702E-1,-8.261708915E-2,1.447708011E-1
2.211124326E0,2.786990702E-1,-8.628217876E-2,1.435490996E-1
2.213506201E0,2.786990702E-1,-8.628217876E-2,1.435490996E-1
2.215888076E0,2.761029601E-1,-8.506047726E-2,1.398840249E-1
2.218269899E0,2.748812735E-1,-7.910472155E-2,1.398840249E-1
2.220651774E0,2.761029601E-1,-7.543963939E-2,1.398840249E-1
2.223033649E0,2.748812735E-1,-7.177454978E-2,1.397313178E-1
2.225415472E0,2.736595869E-1,-6.810946763E-2,1.433963925E-1
2.227797347E0,2.736595869E-1,-6.200099736E-2,1.458397806E-1
2.230179222E0,2.761029601E-1,-5.711421743E-2,1.521009654E-1
2.232561097E0,2.748812735E-1,-5.222744122E-2,1.543916464E-1
2.234942920E0,2.761029601E-1,-4.627167806E-2,1.580567211E-1
2.237324795E0,2.797680497E-1,-4.123219103E-2,1.667613089E-1
2.239706670E0,2.809897363E-1,-3.512371704E-2,1.728697717E-1
2.242088493E0,2.835858464E-1,-3.145863488E-2,1.777565479E-1
2.244470368E0,2.872509360E-1,-2.657185495E-2,1.850867122E-1
2.246852243E0,2.898470163E-1,-2.046338283E-2,1.924168915E-1
2.249234118E0,2.910687327E-1,-1.801999472E-2,1.997470558E-1
2.251615993E0,2.947337925E-1,-1.435491070E-2,2.082989216E-1
2.253997816E0,2.985515893E-1,-1.175880991E-2,2.170034945E-1
2.256379691E0,3.009949923E-1,-9.315420873E-3,2.231119573E-1
2.258761514E0,3.060344756E-1,-7.635590737E-4,2.304421216E-1
2.261143389E0,3.072561622E-1,6.566607859E-3,2.365505993E-1
2.263525264E0,3.109212518E-1,1.389677543E-2,2.438807636E-1
2.265907139E0,3.121429384E-1,2.244863659E-2,2.524326444E-1
2.268288962E0,3.109212518E-1,3.084778599E-2,2.548760176E-1
2.270670837E0,3.133646548E-1,3.817795217E-2,2.609844804E-1
2.273052712E0,3.159607351E-1,4.672981426E-2,2.670929730E-1
2.275434535E0,3.182514310E-1,5.650337040E-2,2.670929730E-1
2.277816410E0,3.206948042E-1,6.261184067E-2,2.683146596E-1
2.280198285E0,3.206948042E-1,6.978929788E-2,2.707580328E-1
2.282580160E0,3.231382072E-1,7.589777559E-2,2.707580328E-1
2.284961983E0,3.243598938E-1,8.200624585E-2,2.693836391E-1
2.287343858E0,3.231382072E-1,8.796200156E-2,2.657185495E-1
2.289725733E0,3.229855001E-1,9.651386738E-2,2.632751763E-1
2.292107608E0,3.205420971E-1,1.024696305E-1,2.583884001E-1
2.294489430E0,3.179459870E-1,1.085781008E-1,2.535016239E-1
2.296871305E0,3.167243004E-1,1.097997949E-1,2.496838123E-1
2.299253180E0,3.155026138E-1,1.059819981E-1,2.447970361E-1
2.301635003E0,3.141281903E-1,1.023169160E-1,2.411319613E-1
2.304016878E0,3.116848171E-1,9.513945878E-2,2.350234836E-1
2.306398753E0,3.092414141E-1,8.414421231E-2,2.289150059E-1
2.308780576E0,3.067980409E-1,7.314895838E-2,2.203631550E-1
2.311162451E0,3.055763543E-1,6.704048812E-2,2.130329758E-1
2.313544326E0,3.017585576E-1,6.459710002E-2,2.044811249E-1
2.315926201E0,3.005368412E-1,6.688777357E-2,1.983726472E-1
2.318308076E0,2.979407609E-1,7.299624383E-2,1.884463727E-1
2.320689899E0,2.977880239E-1,8.383878320E-2,1.798945218E-1
2.323071774E0,2.964136302E-1,9.712471068E-2,1.750077456E-1
2.325453649E0,2.938175201E-1,1.128540337E-1,1.675248593E-1
2.327835472E0,2.938175201E-1,1.236965731E-1,1.601946950E-1
2.330217347E0,2.924431264E-1,1.345391124E-1,1.516428292E-1
2.332599222E0,2.898470163E-1,1.441599578E-1,1.441599578E-1
2.334981045E0,2.910687327E-1,1.466033459E-1,1.356080920E-1
2.337362920E0,2.872509360E-1,1.488940120E-1,1.270562261E-1
2.339744795E0,2.834331393E-1,1.488940120E-1,1.183516532E-1
2.342126670E0,2.797680497E-1,1.427855492E-1,1.122431830E-1
2.344508493E0,2.722851634E-1,1.354553849E-1,1.073564067E-1
2.346890368E0,2.611372173E-1,1.281252056E-1,1.024696305E-1
2.349272243E0,2.501419485E-1,1.159082651E-1,9.880454093E-2
2.351654066E0,2.377723008E-1,1.036913246E-1,9.391776472E-2
2.354035941E0,2.203631550E-1,9.376505762E-2,8.780929446E-2
2.356417816E0,2.006633282E-1,8.276980370E-2,8.643488586E-2
2.358799691E0,1.820324808E-1,7.421794534E-2,8.399149776E-2
2.361181514E0,1.609582454E-1,6.917845458E-2,8.399149776E-2
2.363563389E0,1.398840249E-1,6.917845458E-2,8.628217876E-2
2.365945264E0,1.163664013E-1,7.269082218E-2,8.872556686E-2
2.368327087E0,9.651386738E-2,7.864658535E-2,9.361234307E-2
2.370708962E0,7.543963939E-2,8.215895295E-2,1.020114943E-1
2.373090837E0,5.818320066E-2,8.704573661E-2,1.081199646E-1
2.375472712E0,4.077405483E-2,9.300149232E-2,1.142284349E-1
2.377854535E0,2.840439789E-2,9.910997003E-2,1.214058921E-1
2.380236410E0,1.969982497E-2,1.026223376E-1,1.287360638E-1
2.382618285E0,1.099525020E-2,1.075091213E-1,1.385096163E-1
2.385000160E0,4.886778072E-3,1.111742035E-1,1.421747059E-1
2.387381983E0,3.665083554E-3,1.185043678E-1,1.507265568E-1
2.389763858E0,2.443389036E-3,1.233911440E-1,1.580567211E-1
2.392145733E0,6.108472589E-3,1.294996142E-1,1.629435122E-1
2.394527555E0,1.236965694E-2,1.380514801E-1,1.666085869E-1
2.396909430E0,1.969982497E-2,1.441599578E-1,1.702736765E-1
2.399291305E0,2.596100792E-2,1.490467340E-1,1.704263836E-1
2.401673180E0,3.710897267E-2,1.527118087E-1,1.692046970E-1
2.404055003E0,4.688252881E-2,1.551551968E-1,1.679829955E-1
2.406436878E0,5.925218388E-2,1.612636745E-1,1.630962193E-1
2.408818753E0,6.795676053E-2,1.624853760E-1,1.594311297E-1
2.411200576E0,7.528692484E-2,1.637070626E-1,1.569877416E-1
2.413582451E0,8.276980370E-2,1.673721522E-1,1.508792788E-1
2.415964326E0,8.643488586E-2,1.685938388E-1,1.398840249E-1
2.418346201E0,9.009996802E-2,1.685938388E-1,1.313321590E-1
2.420728024E0,9.376505762E-2,1.710372269E-1,1.264453828E-1
2.423109899E0,9.498675168E-2,1.722589284E-1,1.240019947E-1
2.425491774E0,9.361234307E-2,1.757712960E-1,1.226275861E-1
2.427873597E0,8.994726092E-2,1.782146841E-1,1.226275861E-1
2.430255472E0,8.506047726E-2,1.769929975E-1,1.262926757E-1
2.432637347E0,7.757759839E-2,1.721062213E-1,1.311794519E-1
2.435019222E0,7.284353673E-2,1.649287641E-1,1.423274130E-1
2.437401045E0,6.551336497E-2,1.539335102E-1,1.521009654E-1
2.439782920E0,5.818320066E-2,1.443126649E-1,1.630962193E-1
2.442164795E0,5.207473040E-2,1.298050433E-1,1.728697717E-1
2.444546670E0,4.474456236E-2,1.116323397E-1,1.803526580E-1
2.446928493E0,3.863608837E-2,9.223793447E-2,1.852394342E-1
2.449310368E0,3.756710514E-2,7.391251624E-2,1.876828223E-1
2.451692243E0,3.390202299E-2,5.573981255E-2,1.927223057E-1
2.454074066E0,3.527642787E-2,3.756710514E-2,1.927223057E-1
2.456455941E0,3.909422457E-2,1.939439960E-2,1.977618039E-1
2.458837816E0,4.046862945E-2,1.527118147E-4,2.026485801E-1
2.461219691E0,4.932591692E-2,-1.679829881E-2,2.101314515E-1
2.463601514E0,5.558710173E-2,-3.497100621E-2,2.137965411E-1
2.465983389E0,6.566607952E-2,-5.192201585E-2,2.151709497E-1
2.468365264E0,7.452336699E-2,-6.749862432E-2,2.188360244E-1
2.470747139E0,8.444963396E-2,-8.567132801E-2,2.214321345E-1
2.473128962E0,9.452861547E-2,-9.895725548E-2,2.202104330E-1
2.475510837E0,1.044548824E-1,-1.085781008E-1,2.202104330E-1
2.477892712E0,1.131594554E-1,-1.183516532E-1,2.179197669E-1
2.480274535E0,1.206423342E-1,-1.267508119E-1,2.154763639E-1
2.482656410E0,1.293469071E-1,-1.351499557E-1,2.154763639E-1
2.485038285E0,1.356080920E-1,-1.424801201E-1,2.144073844E-1
2.487420108E0,1.417165697E-1,-1.473668963E-1,2.119639963E-1
2.489801983E0,1.467560530E-1,-1.533226669E-1,2.119639963E-1
2.492183858E0,1.517955512E-1,-1.557660550E-1,2.119639963E-1
2.494565733E0,1.530172378E-1,-1.630962193E-1,2.095206082E-1
2.496947555E0,1.517955512E-1,-1.667613089E-1,2.058555335E-1
2.499329430E0,1.542389393E-1,-1.690519750E-1,2.034121305E-1
2.501711305E0,1.554606259E-1,-1.716480851E-1,1.960819662E-1
2.504093180E0,1.554606259E-1,-1.739387512E-1,1.936385781E-1
2.506475003E0,1.579040140E-1,-1.788255423E-1,1.911951900E-1
2.508856878E0,1.605001241E-1,-1.861557066E-1,1.863084137E-1
2.511238753E0,1.653869003E-1,-1.934858710E-1,1.850867122E-1
2.513620576E0,1.679829955E-1,-2.031067163E-1,1.840177327E-1
2.516002451E0,1.742441803E-1,-2.163926363E-1,1.840177327E-1
2.518384326E0,1.780619770E-1,-2.296785712E-1,1.827960461E-1
2.520766149E0,1.831014603E-1,-2.455606014E-1,1.803526580E-1
2.523148024E0,1.855448484E-1,-2.600682080E-1,1.780619770E-1
2.525529899E0,1.869192570E-1,-2.757975459E-1,1.780619770E-1
2.527911774E0,1.907370538E-1,-2.890834510E-1,1.743968874E-1
2.530293597E0,1.931804419E-1,-3.060344756E-1,1.769929975E-1
2.532675472E0,1.921114624E-1,-3.206948042E-1,1.733279079E-1
2.535057347E0,1.921114624E-1,-3.364241421E-1,1.721062213E-1
2.537439170E0,1.934858710E-1,-3.509317636E-1,1.733279079E-1
2.539821045E0,1.922641695E-1,-3.619270027E-1,1.696628332E-1
2.542202920E0,1.910424829E-1,-3.717005551E-1,1.685938388E-1
2.544584795E0,1.910424829E-1,-3.729222417E-1,1.673721522E-1
2.546966618E0,1.885990947E-1,-3.741439581E-1,1.659977436E-1
2.549348493E0,1.849340051E-1,-3.741439581E-1,1.672194302E-1
2.551730368E0,1.811162084E-1,-3.692571819E-1,1.659977436E-1
2.554112243E0,1.774511337E-1,-3.680354655E-1,1.659977436E-1
2.556494066E0,1.724116355E-1,-3.620797098E-1,1.672194302E-1
2.558875941E0,1.699682474E-1,-3.584146202E-1,1.659977436E-1
2.561257816E0,1.624853760E-1,-3.536805511E-1,1.659977436E-1
2.563639639E0,1.598892659E-1,-3.475720882E-1,1.646233350E-1
2.566021514E0,1.536280811E-1,-3.428380191E-1,1.634016484E-1
2.568403389E0,1.487413049E-1,-3.355078697E-1,1.597365588E-1
2.570785264E0,1.449235082E-1,-3.283303976E-1,1.585148573E-1
2.573167087E0,1.398840249E-1,-3.246653080E-1,1.559187621E-1
2.575548962E0,1.325538605E-1,-3.246653080E-1,1.559187621E-1
2.577930837E0,1.262926757E-1,-3.271087110E-1,1.571404636E-1
2.580312660E0,1.201841980E-1,-3.295520842E-1,1.595838517E-1
2.582694535E0,1.139230132E-1,-3.332171738E-1,1.608055383E-1
2.585076410E0,1.053711548E-1,-3.381039500E-1,1.632489264E-1
2.587458285E0,9.666658193E-2,-3.429907262E-1,1.644706279E-1
2.589840108E0,8.796200156E-2,-3.443651497E-1,1.656923145E-1
2.592222035E0,8.185353130E-2,-3.492519259E-1,1.669140160E-1
2.594603858E0,7.314895838E-2,-3.516952991E-1,1.681357026E-1
2.596985733E0,6.948387623E-2,-3.492519259E-1,1.718007922E-1
2.599367555E0,6.200099736E-2,-3.455868363E-1,1.730224788E-1
2.601749430E0,6.077930331E-2,-3.468085229E-1,1.718007922E-1
2.604131305E0,5.696150661E-2,-3.384093940E-1,1.728697717E-1
2.606513128E0,5.451811850E-2,-3.335226178E-1,1.740914732E-1
2.608895003E0,5.329642445E-2,-3.237490356E-1,1.777565479E-1
2.611276878E0,5.070032179E-2,-3.165715933E-1,1.814216375E-1
2.613658753E0,4.825693369E-2,-3.067980409E-1,1.875301152E-1
2.616040576E0,4.703523964E-2,-2.971771955E-1,1.875301152E-1
2.618422451E0,4.566083103E-2,-2.849602401E-1,1.899735034E-1
2.620804326E0,4.566083103E-2,-2.741177082E-1,1.924168915E-1
2.623186149E0,4.428642616E-2,-2.655658424E-1,1.898207814E-1
2.625568076E0,4.428642616E-2,-2.583884001E-1,1.849340051E-1
2.627949899E0,4.535540938E-2,-2.461714447E-1,1.824906170E-1
2.630331774E0,4.779879749E-2,-2.341072112E-1,1.776038408E-1
2.632713597E0,4.779879749E-2,-2.220429778E-1,1.737860441E-1
2.635095472E0,4.886778072E-2,-2.134911120E-1,1.676775664E-1
2.637477347E0,5.131116882E-2,-2.038702667E-1,1.627907902E-1
2.639859170E0,5.131116882E-2,-1.977618039E-1,1.603474021E-1
2.642241045E0,4.871506989E-2,-1.940967143E-1,1.591257155E-1
2.644622920E0,4.627167806E-2,-1.930277348E-1,1.577513069E-1
2.647004795E0,4.245388508E-2,-1.954711229E-1,1.528645307E-1
2.649386618E0,4.001049697E-2,-1.954711229E-1,1.504211426E-1
2.651768493E0,4.123219103E-2,-1.979145110E-1,1.504211426E-1
2.654150368E0,4.001049697E-2,-2.028012872E-1,1.491994411E-1
2.656532243E0,4.001049697E-2,-2.076880634E-1,1.443126649E-1
2.658914066E0,3.634541109E-2,-2.124221325E-1,1.430909634E-1
2.661295941E0,3.512371704E-2,-2.150182426E-1,1.394258887E-1
2.663677816E0,3.512371704E-2,-2.186833173E-1,1.320957243E-1
2.666059639E0,3.512371704E-2,-2.258607745E-1,1.320957243E-1
2.668441514E0,3.268032894E-2,-2.295258641E-1,1.296523362E-1
2.670823389E0,3.145863488E-2,-2.319692522E-1,1.272089481E-1
2.673205264E0,3.008422814E-2,-2.307475507E-1,1.284306347E-1
2.675587087E0,2.886253223E-2,-2.295258641E-1,1.296523362E-1
2.677968962E0,2.641914412E-2,-2.272351831E-1,1.296523362E-1
2.680350837E0,2.137965336E-2,-2.272351831E-1,1.272089481E-1
2.682732660E0,1.771457121E-2,-2.235700935E-1,1.272089481E-1
2.685114535E0,1.527118124E-2,-2.235700935E-1,1.259872466E-1
2.687496410E0,7.788302377E-3,-2.212794125E-1,1.247655526E-1
2.689878285E0,6.566607859E-3,-2.188360244E-1,1.259872466E-1
2.692260108E0,-9.162708884E-4,-2.151709497E-1,1.233911440E-1
2.694641983E0,-9.162708884E-4,-2.092151791E-1,1.221694499E-1
2.697023858E0,-4.734066315E-3,-2.018850148E-1,1.197260618E-1
2.699405680E0,-7.330167107E-3,-1.898207814E-1,1.160609797E-1
2.701787555E0,-7.482878864E-3,-1.777565479E-1,1.122431830E-1
2.704169430E0,-8.704573847E-3,-1.667613089E-1,1.110214889E-1
2.706551305E0,-5.039489828E-3,-1.595838517E-1,1.085781008E-1
2.708933128E0,-3.817795310E-3,-1.571404636E-1,1.024696305E-1
2.711315003E0,-1.527118147E-4,-1.534753740E-1,9.758284688E-2
2.713696878E0,4.734066315E-3,-1.534753740E-1,9.147437662E-2
2.716078753E0,8.399149403E-3,-1.571404636E-1,8.780929446E-2
2.718460576E0,1.466033421E-2,-1.571404636E-1,8.170082420E-2
2.720842451E0,1.954711229E-2,-1.546970755E-1,7.803573459E-2
2.723224326E0,2.321219631E-2,-1.546970755E-1,7.559234649E-2
2.725606149E0,2.443389036E-2,-1.522536725E-1,7.192726433E-2
2.727988024E0,2.932066843E-2,-1.461452097E-1,7.070557028E-2
2.730369899E0,3.558185324E-2,-1.401894391E-1,6.704048812E-2
2.732751774E0,3.787253052E-2,-1.328592747E-1,6.444438547E-2
2.735133597E0,4.413371533E-2,-1.230857223E-1,6.200099736E-2
2.737515472E0,5.512896553E-2,-1.120904684E-1,6.444438547E-2
2.739897347E0,6.505523622E-2,-9.987352788E-2,6.444438547E-2
2.742279170E0,7.620319724E-2,-8.658760041E-2,6.566607952E-2
2.744661045E0,8.857285231E-2,-7.681404054E-2,6.948387623E-2
2.747042920E0,9.712471068E-2,-6.704048812E-2,7.192726433E-2
2.749424795E0,1.058292910E-1,-5.848862603E-2,7.314895838E-2
2.751806618E0,1.143811494E-1,-5.115845799E-2,7.681404054E-2
2.754188493E0,1.218640283E-1,-4.138490185E-2,7.925742865E-2
2.756570368E0,1.243074164E-1,-3.405473381E-2,8.047912270E-2
2.758952191E0,1.229330078E-1,-2.199050039E-2,7.788302749E-2
2.761334066E0,1.204896197E-1,-1.221694518E-2,7.666133344E-2
2.763715941E0,1.154501289E-1,-2.596100792E-3,7.421794534E-2
2.766097816E0,1.104106456E-1,8.246437646E-3,6.673506647E-2
2.768479639E0,1.015533581E-1,1.542389300E-2,6.184828654E-2
2.770861514E0,9.529217333E-2,2.153236605E-2,5.573981255E-2
2.773243389E0,8.903098851E-2,2.504473738E-2,4.825693369E-2
2.775625212E0,8.154810965E-2,2.733541466E-2,4.459185153E-2
2.778007087E0,7.543963939E-2,2.489202656E-2,4.214845970E-2
2.780388962E0,7.162184268E-2,1.878355257E-2,3.603998944E-2
2.782770837E0,7.421794534E-2,1.634016447E-2,3.359659761E-2
2.785152660E0,7.299624383E-2,7.941014133E-3,3.115320951E-2
2.787534535E0,7.788302749E-2,-6.108472589E-4,2.626643144E-2
2.789916410E0,7.666133344E-2,-1.038440317E-2,2.015795931E-2
2.792298285E0,7.925742865E-2,-1.893626526E-2,1.527118124E-2
2.794680108E0,8.170082420E-2,-2.611372061E-2,1.038440317E-2
2.797061983E0,8.047912270E-2,-3.344388679E-2,4.275931045E-3
2.799443858E0,7.803573459E-2,-3.955236077E-2,-3.054236295E-3
2.801825680E0,7.421794534E-2,-4.443913698E-2,-1.404948719E-2
2.804207608E0,6.917845458E-2,-4.825693369E-2,-2.748812735E-2
2.806589430E0,6.047387794E-2,-4.840964451E-2,-3.985778242E-2
2.808971305E0,5.543438718E-2,-4.596625641E-2,-4.596625641E-2
2.811353128E0,5.161659420E-2,-4.245388508E-2,-5.085303262E-2
2.813735003E0,4.657710344E-2,-3.390202299E-2,-5.589252338E-2
2.816116878E0,3.909422457E-2,-2.428117767E-2,-6.077930331E-2
2.818498753E0,2.794626169E-2,-1.588202827E-2,-6.826218218E-2
2.820880576E0,1.786728203E-2,-6.261184346E-3,-7.192726433E-2
2.823262451E0,4.123218823E-3,3.359660041E-3,-7.818844914E-2
2.825644326E0,-1.206423342E-2,1.053711493E-2,-8.429691941E-2
2.828026149E0,-3.191677108E-2,1.878355257E-2,-8.933641016E-2
2.830408024E0,-5.314370990E-2,2.473931387E-2,-9.422318637E-2
2.832789899E0,-7.299624383E-2,2.702999115E-2,-9.926267713E-2
2.835171774E0,-9.407047927E-2,2.443389036E-2,-1.065928489E-1
2.837553597E0,-1.175880954E-1,2.183778957E-2,-1.152974218E-1
2.839935472E0,-1.424801201E-1,1.679829881E-2,-1.252236813E-1
2.842317347E0,-1.623326540E-1,5.803049076E-3,-1.349972486E-1
2.844699170E0,-1.870719790E-1,-5.344913341E-3,-1.447708011E-1
2.847081097E0,-2.044811249E-1,-1.634016447E-2,-1.571404636E-1
2.849462920E0,-2.180724740E-1,-2.855710872E-2,-1.632489264E-1
2.851844795E0,-2.342599183E-1,-3.603998944E-2,-1.681357026E-1
2.854226618E0,-2.454078794E-1,-4.337015375E-2,-1.780619770E-1
2.856608493E0,-2.502946556E-1,-4.703523964E-2,-1.817270666E-1
2.858990368E0,-2.541124523E-1,-4.718795046E-2,-1.878355294E-1
2.861372191E0,-2.553341687E-1,-4.840964451E-2,-1.915006191E-1
2.863754066E0,-2.553341687E-1,-4.596625641E-2,-1.951656938E-1
2.866135941E0,-2.553341687E-1,-4.474456236E-2,-1.976090819E-1
2.868517816E0,-2.553341687E-1,-4.107947648E-2,-1.976090819E-1
2.870899639E0,-2.554868758E-1,-3.741439432E-2,-1.963873953E-1
2.873281514E0,-2.541124523E-1,-3.374931216E-2,-1.939440072E-1
2.875663389E0,-2.603736520E-1,-3.390202299E-2,-1.963873953E-1
2.878045264E0,-2.678565085E-1,-3.512371704E-2,-1.989834905E-1
2.880427087E0,-2.790044844E-1,-4.001049697E-2,-1.989834905E-1
2.882808962E0,-2.875563502E-1,-4.611896724E-2,-2.002051920E-1
2.885190837E0,-2.987042964E-1,-5.711421743E-2,-2.063136548E-1
2.887572660E0,-3.136700690E-1,-6.688777357E-2,-2.099787444E-1
2.889954535E0,-3.246653080E-1,-8.154810965E-2,-2.124221325E-1
2.892336410E0,-3.333698809E-1,-9.620844573E-2,-2.160872221E-1
2.894718285E0,-3.431434333E-1,-1.145338640E-1,-2.221956849E-1
2.897100108E0,-3.504736125E-1,-1.363716573E-1,-2.246390730E-1
2.899481983E0,-3.553603888E-1,-1.582094431E-1,-2.270824611E-1
2.901863858E0,-3.590254784E-1,-1.800472289E-1,-2.257080674E-1
2.904245680E0,-3.600944579E-1,-2.018850148E-1,-2.293731421E-1
2.906627555E0,-3.611634374E-1,-2.249445021E-1,-2.281514555E-1
2.909009430E0,-3.623851240E-1,-2.467822880E-1,-2.255553454E-1
2.911391305E0,-3.646758199E-1,-2.649549842E-1,-2.218902707E-1
2.913773128E0,-3.658975065E-1,-2.843494117E-1,-2.182251811E-1
2.916155003E0,-3.694098890E-1,-2.977880239E-1,-2.144073844E-1
2.918536878E0,-3.730749488E-1,-3.098522723E-1,-2.070772201E-1
2.920918753E0,-3.804051280E-1,-3.147390485E-1,-1.985253543E-1
2.923300576E0,-3.903313875E-1,-3.147390485E-1,-1.875301152E-1
2.925682451E0,-3.988832533E-1,-3.098522723E-1,-1.728697717E-1
2.928064326E0,-4.112529159E-1,-3.000787199E-1,-1.557660550E-1
2.930446149E0,-4.260659516E-1,-2.855710983E-1,-1.411057115E-1
2.932814743E0,-4.384356141E-1,-2.684673667E-1,-1.227803007E-1
2.935209899E0,-4.534013867E-1,-2.454078794E-1,-1.058292910E-1
2.937591722E0,-4.657710493E-1,-2.174616307E-1,-8.506047726E-2
2.939973597E0,-4.795151055E-1,-1.872246861E-1,-6.673506647E-2
2.942355472E0,-4.908157587E-1,-1.507265568E-1,-5.222744122E-2
2.944737347E0,-5.008947253E-1,-1.131594554E-1,-4.016320780E-2
2.947119222E0,-5.083776116E-1,-7.192726433E-2,-3.161134571E-2
2.949501045E0,-5.123481154E-1,-3.069507517E-2,-2.443389036E-2
2.951882920E0,-5.112791657E-1,8.246437646E-3,-1.954711229E-2
2.954264795E0,-5.065450668E-1,4.581354558E-2,-1.847812906E-2
2.956646618E0,-4.955498278E-1,8.231166750E-2,-1.969982497E-2
2.959028493E0,-4.808894992E-1,1.127013192E-1,-1.863084175E-2
2.961410368E0,-4.636330605E-1,1.369825006E-1,-1.863084175E-2
2.963792191E0,-4.414898455E-1,1.626380831E-1,-1.863084175E-2
2.966174066E0,-4.191939235E-1,1.809635013E-1,-1.863084175E-2
2.968555941E0,-3.944546282E-1,1.931804419E-1,-1.725643501E-2
2.970937816E0,-3.672719002E-1,2.041756958E-1,-2.214321308E-2
2.973319639E0,-3.388675153E-1,2.079934925E-1,-2.580829710E-2
2.975701566E0,-3.115321100E-1,2.069245130E-1,-3.298575059E-2
2.978083389E0,-2.831276953E-1,2.032594234E-1,-4.398100078E-2
2.980465212E0,-2.533488870E-1,1.973036677E-1,-5.115845799E-2
2.982847087E0,-2.235700935E-1,1.853921413E-1,-6.215370819E-2
2.985228962E0,-1.937913001E-1,1.757712960E-1,-7.543963939E-2
2.987610837E0,-1.666085869E-1,1.612636745E-1,-9.132166207E-2
2.989992712E0,-1.392731816E-1,1.491994411E-1,-1.070509851E-1
2.992374535E0,-1.169772521E-1,1.322484314E-1,-1.253764033E-1
2.994756410E0,-9.223793447E-2,1.152974218E-1,-1.412584335E-1
2.997138285E0,-7.238540053E-2,9.590301663E-2,-1.630962193E-1
2.999520108E0,-5.390727147E-2,7.528692484E-2,-1.838650256E-1
3.001901983E0,-3.894151375E-2,5.329642445E-2,-2.046338320E-1
3.004270576E0,-2.535016090E-2,2.672456764E-2,-2.254026383E-1
3.006665680E0,-1.527118124E-2,-3.665083554E-3,-2.423536479E-1
3.009047555E0,-7.788302377E-3,-3.649812192E-2,-2.594573796E-1
3.011429430E0,-1.527118147E-3,-6.566607952E-2,-2.739650011E-1
3.013811305E0,4.734066315E-3,-1.007898003E-1,-2.861819267E-1
3.016193128E0,8.551862091E-3,-1.336228400E-1,-2.971771955E-1
3.018575003E0,1.114796288E-2,-1.688992679E-1,-3.055763543E-1
3.020956878E0,1.389677543E-2,-2.052446753E-1,-3.129065037E-1
3.023338753E0,1.893626526E-2,-2.391466945E-1,-3.127537966E-1
3.025720576E0,1.908897609E-2,-2.732014358E-1,-3.101576865E-1
3.028102451E0,2.061609551E-2,-3.071034551E-1,-3.052709103E-1
3.030484326E0,2.199050039E-2,-3.397837877E-1,-3.002314270E-1
3.032866149E0,2.229592577E-2,-3.712424338E-1,-2.927485406E-1
3.035248024E0,2.367033064E-2,-4.016320705E-1,-2.854183912E-1
3.037629899E0,2.641914412E-2,-4.282039404E-1,-2.779355049E-1
3.040011722E0,3.145863488E-2,-4.523324072E-1,-2.680092454E-1
3.042393597E0,3.542914242E-2,-4.729484916E-1,-2.606790662E-1
3.044775472E0,3.680354729E-2,-4.923428893E-1,-2.531961799E-1
3.047157347E0,3.817795217E-2,-5.056288242E-1,-2.422009408E-1
3.049539170E0,3.710897267E-2,-5.189147592E-1,-2.310529798E-1
3.051921045E0,3.710897267E-2,-5.248705149E-1,-2.151709497E-1
3.054302920E0,3.359659761E-2,-5.247178078E-1,-1.979145110E-1
3.056684743E0,2.870982140E-2,-5.222744346E-1,-1.783674061E-1
3.059066618E0,1.878355257E-2,-5.173876286E-1,-1.588202864E-1
3.061448493E0,9.009997360E-3,-5.125008225E-1,-1.380514801E-1
3.063830368E0,-1.985253533E-3,-5.015056133E-1,-1.123958975E-1
3.066212191E0,-1.679829881E-2,-4.929537475E-1,-8.796200156E-2
3.068594066E0,-3.283303976E-2,-4.782933891E-1,-6.474980712E-2
3.070975941E0,-5.146388337E-2,-4.625640810E-1,-4.275930673E-2
3.073357816E0,-6.872031838E-2,-4.419479966E-1,-1.954711229E-2
3.075739639E0,-9.101624042E-2,-4.249969721E-1,2.443389036E-3
3.078121514E0,-1.096470803E-1,-4.043808877E-1,1.817270555E-2
3.080503389E0,-1.270562261E-1,-3.849864900E-1,3.161134571E-2
3.082885212E0,-1.444653720E-1,-3.668137789E-1,4.245388508E-2
3.085267087E0,-1.618745178E-1,-3.461976945E-1,4.978405312E-2
3.087648962E0,-1.718007922E-1,-3.292466700E-1,5.451811850E-2
3.090030837E0,-1.831014603E-1,-3.086305857E-1,5.696150661E-2
3.092412660E0,-1.931804419E-1,-2.918322682E-1,5.436540768E-2
3.094794535E0,-2.006633282E-1,-2.773246467E-1,4.703523964E-2
3.097176410E0,-2.057028115E-1,-2.603736520E-1,3.955236077E-2
3.099558233E0,-2.096733153E-1,-2.446443290E-1,3.100049868E-2
3.101940108E0,-2.122694254E-1,-2.278460264E-1,1.740914769E-2
3.104321983E0,-2.124221325E-1,-2.121167034E-1,5.192201585E-3
3.106703858E0,-2.113531530E-1,-1.951656938E-1,-5.955760833E-3
3.109085680E0,-2.090624720E-1,-1.782146841E-1,-2.183778957E-2
3.111467555E0,-2.067717910E-1,-1.577513069E-1,-3.542914242E-2
3.113849430E0,-2.008160353E-1,-1.371352077E-1,-5.268557742E-2
3.116231305E0,-1.985253543E-1,-1.152974218E-1,-7.101099193E-2
3.118613128E0,-1.925695986E-1,-9.116895497E-2,-8.826743066E-2
3.120995003E0,-1.878355294E-1,-6.581879407E-2,-1.079672500E-1
3.123376878E0,-1.855448484E-1,-4.169032723E-2,-1.287360638E-1
3.125758701E0,-1.834068894E-1,-1.985253580E-2,-1.496575773E-1
3.128140576E0,-1.811162084E-1,4.275931045E-3,-1.718007922E-1
3.130522451E0,-1.826433241E-1,2.229592577E-2,-1.963873953E-1
3.132904326E0,-1.864611208E-1,3.924693540E-2,-2.185306102E-1
3.135286149E0,-1.904316396E-1,5.482354015E-2,-2.406738251E-1
3.137668024E0,-1.992889196E-1,6.673506647E-2,-2.589992285E-1
3.140049899E0,-2.055501044E-1,6.917845458E-2,-2.762556672E-1
3.142431722E0,-2.131856978E-1,7.024743408E-2,-2.933593988E-1
3.144813597E0,-2.255553454E-1,6.642963737E-2,-3.081724346E-1
3.147195472E0,-2.380777150E-1,5.894676223E-2,-3.191677034E-1
3.149577347E0,-2.541124523E-1,4.550812021E-2,-3.313846290E-1
3.151959170E0,-2.690782249E-1,3.573456407E-2,-3.437542915E-1
3.154341045E0,-2.814478874E-1,2.702999115E-2,-3.571929336E-1
3.156722920E0,-2.988570333E-1,1.481304597E-2,-3.720059693E-1
3.159104795E0,-3.124483824E-1,2.443389036E-3,-3.842229247E-1
3.161486618E0,-3.274141252E-1,-9.773556143E-3,-3.952181637E-1
3.163868493E0,-3.373403847E-1,-2.076880634E-2,-4.025483429E-1
3.166250368E0,-3.458922505E-1,-3.420744836E-2,-4.111002088E-1
3.168632191E0,-3.521534503E-1,-4.642439261E-2,-4.161396921E-1
3.171014066E0,-3.533751369E-1,-5.619794875E-2,-4.208737612E-1
3.173395941E0,-3.533751369E-1,-6.337540597E-2,-4.233171642E-1
3.175777816E0,-3.507790267E-1,-6.826218218E-2,-4.257605374E-1
3.178159639E0,-3.471139669E-1,-6.826218218E-2,-4.282039404E-1
3.180541514E0,-3.396310806E-1,-6.581879407E-2,-4.306473136E-1
3.182923389E0,-3.286358118E-1,-5.604523420E-2,-4.318690002E-1
3.185305264E0,-3.174878657E-1,-4.260659590E-2,-4.355340898E-1
3.187687087E0,-3.052709103E-1,-2.565558441E-2,-4.391991794E-1
3.190068962E0,-2.942756712E-1,-5.039489828E-3,-4.454603493E-1
3.192450837E0,-2.806843221E-1,1.679829881E-2,-4.515688419E-1
3.194832660E0,-2.609844804E-1,4.489727318E-2,-4.503471553E-1
3.197214535E0,-2.475458533E-1,7.773031294E-2,-4.527905285E-1
3.199596410E0,-2.316638231E-1,1.117850468E-1,-4.492781460E-1
3.201978285E0,-2.182251811E-1,1.433963925E-1,-4.468347728E-1
3.204360160E0,-2.070772201E-1,1.725643575E-1,-4.382829070E-1
3.206741983E0,-1.973036677E-1,2.066190839E-1,-4.260659516E-1
3.209123858E0,-1.873773932E-1,2.359397560E-1,-4.089622498E-1
3.211505680E0,-1.824906170E-1,2.651077211E-1,-3.906368315E-1
3.213887555E0,-1.788255423E-1,2.907632887E-1,-3.710896969E-1
3.216269430E0,-1.776038408E-1,3.162661791E-1,-3.503209054E-1
3.218651305E0,-1.763821393E-1,3.382566571E-1,-3.319954872E-1
3.221033128E0,-1.763821393E-1,3.600944579E-1,-3.161134422E-1
3.223415003E0,-1.763821393E-1,3.796415627E-1,-3.026748300E-1
3.225796878E0,-1.814216375E-1,3.965925872E-1,-2.904578745E-1
3.228178701E0,-1.850867122E-1,4.136963189E-1,-2.794626355E-1
3.230560576E0,-1.901262105E-1,4.282039404E-1,-2.672456801E-1
3.232942451E0,-1.963873953E-1,4.428642690E-1,-2.600682080E-1
3.235324326E0,-2.012741715E-1,4.537068009E-1,-2.551814318E-1
3.237706201E0,-2.075353563E-1,4.573718905E-1,-2.515163720E-1
3.240088024E0,-2.136438340E-1,4.561502039E-1,-2.502946556E-1
3.242469899E0,-2.235700935E-1,4.535540938E-1,-2.515163720E-1
3.244851774E0,-2.334963679E-1,4.498890042E-1,-2.564031482E-1
3.247233597E0,-2.397575527E-1,4.450022280E-1,-2.651077211E-1
3.249615472E0,-2.484621257E-1,4.376720488E-1,-2.773246467E-1
3.251997347E0,-2.510582209E-1,4.253024161E-1,-2.932066917E-1
3.254379170E0,-2.547233105E-1,4.155288339E-1,-3.054236174E-1
3.256761045E0,-2.559449971E-1,4.057552814E-1,-3.225273490E-1
3.259142920E0,-2.536543310E-1,3.959817290E-1,-3.422271907E-1
3.261524795E0,-2.524326444E-1,3.849864900E-1,-3.617742956E-1
3.263906618E0,-2.475458533E-1,3.764346242E-1,-3.788780272E-1
3.266288493E0,-2.451024652E-1,3.642176688E-1,-3.959817290E-1
3.268670368E0,-2.425063550E-1,3.495573401E-1,-4.081986845E-1
3.271052243E0,-2.412846684E-1,3.350497186E-1,-4.228590131E-1
3.273434066E0,-2.438807636E-1,3.228327632E-1,-4.338542521E-1
3.275815941E0,-2.425063550E-1,3.118375242E-1,-4.436278343E-1
3.278197816E0,-2.412846684E-1,3.008422852E-1,-4.534013867E-1
3.280579639E0,-2.412846684E-1,2.935121059E-1,-4.582881629E-1
3.282961514E0,-2.425063550E-1,2.875563502E-1,-4.619532526E-1
3.285343389E0,-2.425063550E-1,2.777827978E-1,-4.656183124E-1
3.287725264E0,-2.412846684E-1,2.667875290E-1,-4.668400288E-1
3.290107139E0,-2.411319613E-1,2.547233105E-1,-4.680617154E-1
3.292488962E0,-2.411319613E-1,2.402156889E-1,-4.654656053E-1
3.294870837E0,-2.373141646E-1,2.257080674E-1,-4.630222321E-1
3.297252660E0,-2.347180545E-1,2.110477239E-1,-4.618005157E-1
3.299634535E0,-2.309002578E-1,2.002051920E-1,-4.592044353E-1
3.302016410E0,-2.309002578E-1,1.893626451E-1,-4.604261220E-1
3.304398285E0,-2.307475507E-1,1.783674061E-1,-4.616478086E-1
3.306780160E0,-2.270824611E-1,1.675248593E-1,-4.628695250E-1
3.309161983E0,-2.283041626E-1,1.601946950E-1,-4.616478086E-1
3.311543858E0,-2.281514555E-1,1.530172378E-1,-4.602734149E-1
3.313925733E0,-2.305948436E-1,1.481304616E-1,-4.578300118E-1
3.316307555E0,-2.305948436E-1,1.456870735E-1,-4.566083252E-1
3.318689430E0,-2.342599183E-1,1.420219839E-1,-4.529432356E-1
3.321071305E0,-2.367033064E-1,1.432436854E-1,-4.480564594E-1
3.323453128E0,-2.379250079E-1,1.360662282E-1,-4.443913698E-1
3.325835003E0,-2.354816198E-1,1.348445266E-1,-4.407263100E-1
3.328216878E0,-2.379250079E-1,1.348445266E-1,-4.346178174E-1
3.330598753E0,-2.365505993E-1,1.311794519E-1,-4.285093546E-1
3.332980576E0,-2.339545041E-1,1.264453828E-1,-4.185830951E-1
3.335362451E0,-2.289150059E-1,1.204896197E-1,-4.112529159E-1
3.337744326E0,-2.264716178E-1,1.168245375E-1,-4.051444530E-1
3.340126149E0,-2.226538211E-1,1.108687744E-1,-3.952181637E-1
3.342508024E0,-2.200577259E-1,1.072036922E-1,-3.866663277E-1
3.344889899E0,-2.150182426E-1,1.012479365E-1,-3.768927455E-1
3.347271774E0,-2.112004459E-1,1.001789495E-1,-3.669664860E-1
3.349653597E0,-2.037175596E-1,1.001789495E-1,-3.547495604E-1
3.352035472E0,-1.998997629E-1,1.064401343E-1,-3.376458287E-1
3.354417347E0,-1.962346882E-1,1.174353883E-1,-3.167243004E-1
3.356799170E0,-1.948602796E-1,1.320957243E-1,-2.935121059E-1
3.359181045E0,-1.948602796E-1,1.528645307E-1,-2.629697323E-1
3.361562920E0,-1.934858710E-1,1.760767251E-1,-2.360924631E-1
3.363944795E0,-1.910424829E-1,1.931804419E-1,-2.139492482E-1
3.366326618E0,-1.896680743E-1,2.031067163E-1,-1.907370538E-1
3.368708493E0,-1.858502775E-1,2.006633282E-1,-1.722589284E-1
3.371090368E0,-1.820324808E-1,1.936385781E-1,-1.539335102E-1
3.373472191E0,-1.768402755E-1,1.779092699E-1,-1.366770715E-1
3.375854066E0,-1.740914732E-1,1.501157135E-1,-1.230857223E-1
3.378235941E0,-1.688992679E-1,1.137702987E-1,-1.094943732E-1
3.380617816E0,-1.637070626E-1,6.902574003E-2,-9.956810623E-2
3.382999639E0,-1.559187621E-1,2.061609551E-2,-8.964183182E-2
3.385381514E0,-1.481304616E-1,-2.657185495E-2,-8.338065445E-2
3.387763389E0,-1.368297935E-1,-7.513421029E-2,-8.322793990E-2
3.390145264E0,-1.204896197E-1,-1.223221645E-1,-8.307522535E-2
3.392527139E0,-1.027750522E-1,-1.695101112E-1,-8.536590636E-2
3.394908962E0,-8.399149776E-2,-2.119639963E-1,-9.132166207E-2
3.397290837E0,-6.276455522E-2,-2.506000996E-1,-9.483403713E-2
3.399672660E0,-4.153761268E-2,-2.820587158E-1,-1.032331884E-1
3.402054535E0,-2.290677279E-2,-3.038965166E-1,-1.079672500E-1
3.404436410E0,-1.832541777E-3,-3.194731176E-1,-1.140757278E-1
3.406818285E0,1.801999472E-2,-3.255815804E-1,-1.214058921E-1
3.409200108E0,3.405473381E-2,-3.266505599E-1,-1.310267299E-1
3.411581983E0,4.886778072E-2,-3.194731176E-1,-1.408002973E-1
3.413963858E0,6.245913357E-2,-3.035911024E-1,-1.470614821E-1
3.416345733E0,7.223268598E-2,-2.878617644E-1,-1.507265568E-1
3.418727555E0,8.200624585E-2,-2.658712566E-1,-1.519482583E-1
3.421109430E0,9.300149232E-2,-2.379250079E-1,-1.531699449E-1
3.423491305E0,9.910997003E-2,-2.101314515E-1,-1.545443535E-1
3.425873128E0,1.026223376E-1,-1.797417998E-1,-1.582094431E-1
3.428255003E0,1.036913246E-1,-1.530172378E-1,-1.608055383E-1
3.430636878E0,1.047603041E-1,-1.324011385E-1,-1.608055383E-1
3.433018753E0,1.059819981E-1,-1.154501289E-1,-1.632489264E-1
3.435400628E0,1.070509851E-1,-9.727742523E-2,-1.658450365E-1
3.437782451E0,1.046075895E-1,-8.643488586E-2,-1.695101112E-1
3.440164326E0,1.056765765E-1,-8.032641560E-2,-1.731752008E-1
3.442546201E0,1.032331884E-1,-8.276980370E-2,-1.743968874E-1
3.444928024E0,1.020114943E-1,-8.276980370E-2,-1.768402755E-1
3.447309899E0,9.956810623E-2,-8.521319181E-2,-1.780619770E-1
3.449691774E0,1.007898003E-1,-8.887827396E-2,-1.768402755E-1
3.452073597E0,9.834641218E-2,-9.498675168E-2,-1.768402755E-1
3.454455472E0,9.590301663E-2,-1.010952219E-1,-1.743968874E-1
3.456837347E0,9.727742523E-2,-1.094943732E-1,-1.707318127E-1
3.459219222E0,9.483403713E-2,-1.178935245E-1,-1.670667231E-1
3.461601097E0,9.727742523E-2,-1.252236813E-1,-1.656923145E-1
3.463982920E0,9.483403713E-2,-1.362189353E-1,-1.656923145E-1
3.466364795E0,9.239064902E-2,-1.470614821E-1,-1.693574041E-1
3.468746618E0,9.620844573E-2,-1.568350345E-1,-1.742441803E-1
3.471128493E0,9.376505762E-2,-1.690519750E-1,-1.791309565E-1
3.473510368E0,9.132166207E-2,-1.811162084E-1,-1.864611208E-1
3.475892243E0,9.009996802E-2,-1.896680743E-1,-1.901262105E-1
3.478274066E0,8.643488586E-2,-1.982199401E-1,-1.974563748E-1
3.480655941E0,8.399149776E-2,-2.092151791E-1,-2.023431510E-1
3.483037816E0,7.773031294E-2,-2.165453583E-1,-2.060082406E-1
3.485419639E0,6.902574003E-2,-2.238755226E-1,-2.096733153E-1
3.487801514E0,6.169557199E-2,-2.250972092E-1,-2.084516287E-1
3.490183389E0,5.421269313E-2,-2.275405973E-1,-2.084516287E-1
3.492565264E0,4.550812021E-2,-2.275405973E-1,-2.060082406E-1
3.494947087E0,3.695625812E-2,-2.276933193E-1,-2.049392611E-1
3.497328962E0,2.321219631E-2,-2.240282297E-1,-2.086043358E-1
3.499710837E0,1.206423342E-2,-2.205158621E-1,-2.098260373E-1
3.502092712E0,9.162708884E-4,-2.157817930E-1,-2.087570578E-1
3.504474535E0,-1.282779220E-2,-2.096733153E-1,-2.087570578E-1
3.506856410E0,-2.275406010E-2,-2.000524700E-1,-2.075353563E-1
3.509238285E0,-3.390202299E-2,-1.916533262E-1,-2.014268786E-1
3.511620108E0,-4.260659590E-2,-1.843231618E-1,-2.003578991E-1
3.514001983E0,-5.131116882E-2,-1.771457046E-1,-1.966928244E-1
3.516383858E0,-5.757235363E-2,-1.698155403E-1,-1.905843467E-1
3.518765733E0,-6.139015034E-2,-1.565296054E-1,-1.905843467E-1
3.521147555E0,-6.520794332E-2,-1.420219839E-1,-1.944021434E-1
3.523529430E0,-6.765133142E-2,-1.322484314E-1,-1.980672181E-1
3.525911305E0,-6.902574003E-2,-1.238492802E-1,-1.980672181E-1
3.528293128E0,-7.024743408E-2,-1.140757278E-1,-1.980672181E-1
3.530675003E0,-7.284353673E-2,-1.056765765E-1,-1.945548505E-1
3.533056878E0,-7.284353673E-2,-9.712471068E-2,-1.908897758E-1
3.535438753E0,-7.650861889E-2,-9.101624042E-2,-1.872246861E-1
3.537820576E0,-7.910472155E-2,-8.383878320E-2,-1.872246861E-1
3.540202451E0,-8.276980370E-2,-7.895200700E-2,-1.847812980E-1
3.542584326E0,-8.903098851E-2,-7.055285573E-2,-1.823379099E-1
3.544966201E0,-9.284878522E-2,-6.444438547E-2,-1.823379099E-1
3.547348024E0,-9.651386738E-2,-5.604523420E-2,-1.861557066E-1
3.549729899E0,-9.910997003E-2,-4.871506989E-2,-1.873773932E-1
3.552111774E0,-1.039967462E-1,-4.275930673E-2,-1.849340051E-1
3.554493649E0,-1.065928489E-1,-3.176405653E-2,-1.849340051E-1
3.556875472E0,-1.079672500E-1,-2.336490713E-2,-1.861557066E-1
3.559257347E0,-1.116323397E-1,-1.359135192E-2,-1.838650256E-1
3.561639222E0,-1.116323397E-1,-2.748812549E-3,-1.801999360E-1
3.564021045E0,-1.130067408E-1,7.024743594E-3,-1.777565479E-1
3.566402920E0,-1.130067408E-1,1.679829881E-2,-1.753131598E-1
3.568784795E0,-1.130067408E-1,2.764083818E-2,-1.716480851E-1
3.571166670E0,-1.142284349E-1,3.374931216E-2,-1.679829955E-1
3.573548493E0,-1.156028435E-1,3.863608837E-2,-1.643179059E-1
3.575930368E0,-1.168245375E-1,4.107947648E-2,-1.618745178E-1
3.578312243E0,-1.180462316E-1,4.107947648E-2,-1.569877416E-1
3.580694066E0,-1.192679256E-1,3.985778242E-2,-1.533226669E-1
3.583075941E0,-1.178935245E-1,3.863608837E-2,-1.484358907E-1
3.585457816E0,-1.178935245E-1,3.390202299E-2,-1.459924877E-1
3.587839691E0,-1.178935245E-1,2.657185495E-2,-1.423274130E-1
3.590221514E0,-1.177408099E-1,1.817270555E-2,-1.409530044E-1
3.592603389E0,-1.214058921E-1,7.177455351E-3,-1.372879148E-1
3.594985264E0,-1.226275861E-1,-1.221694518E-3,-1.348445266E-1
3.597367087E0,-1.262926757E-1,-9.773556143E-3,-1.348445266E-1
3.599748962E0,-1.311794519E-1,-1.710372418E-2,-1.336228400E-1
3.602130837E0,-1.348445266E-1,-1.954711229E-2,-1.311794519E-1
3.604512712E0,-1.386623234E-1,-1.710372418E-2,-1.275143623E-1
3.606894535E0,-1.447708011E-1,-1.099525020E-2,-1.250709742E-1
3.609276410E0,-1.510319859E-1,-3.817795310E-3,-1.226275861E-1
3.611658285E0,-1.560714692E-1,5.955760833E-3,-1.189625040E-1
3.614040160E0,-1.609582454E-1,1.435491070E-2,-1.166718230E-1
3.616421983E0,-1.659977436E-1,2.290677279E-2,-1.117850468E-1
3.618803858E0,-1.684411317E-1,3.130592033E-2,-1.081199646E-1
3.621185733E0,-1.684411317E-1,3.252761811E-2,-1.068982705E-1
3.623567555E0,-1.672194302E-1,3.497100621E-2,-1.056765765E-1
3.625949430E0,-1.635543555E-1,3.497100621E-2,-1.044548824E-1
3.628331305E0,-1.572931707E-1,3.023693897E-2,-1.032331884E-1
3.630713180E0,-1.485885978E-1,2.305948362E-2,-9.819369763E-2
3.633095003E0,-1.360662282E-1,1.588202827E-2,-9.697200358E-2
3.635476878E0,-1.236965731E-1,9.773556143E-3,-9.315420687E-2
3.637858753E0,-1.111742035E-1,2.596100792E-3,-9.071081877E-2
3.640240628E0,-9.743013978E-2,-4.581354558E-3,-8.582404256E-2
3.642622503E0,-8.506047726E-2,-6.872031838E-3,-8.200624585E-2
3.645004326E0,-7.269082218E-2,-6.872031838E-3,-8.078455180E-2
3.647386201E0,-5.650337040E-2,-5.497625098E-3,-7.834116369E-2
3.649768076E0,-4.413371533E-2,-1.832541777E-3,-7.818844914E-2
3.652149899E0,-3.298575059E-2,-1.679830020E-3,-7.696675509E-2
3.654531774E0,-1.939439960E-2,4.428642802E-3,-7.574506104E-2
3.656913649E0,-8.246437646E-3,5.650337320E-3,-7.452336699E-2
3.659295472E0,1.679830020E-3,6.872031838E-3,-7.452336699E-2
3.661677347E0,1.160609815E-2,7.024743594E-3,-7.070557028E-2
3.664059222E0,2.031067200E-2,1.313321572E-2,-6.337540597E-2
3.666441045E0,2.779355086E-2,1.695101149E-2,-5.482354015E-2
3.668822920E0,3.649812192E-2,1.817270555E-2,-4.871506989E-2
3.671204795E0,4.275930673E-2,1.710372418E-2,-4.245388508E-2
3.673586670E0,5.146388337E-2,1.466033421E-2,-3.634541109E-2
3.675968493E0,5.650337040E-2,1.114796288E-2,-3.268032894E-2
3.678350368E0,6.520794332E-2,7.482878864E-3,-2.764083818E-2
3.680732243E0,7.269082218E-2,1.527118147E-3,-2.397575416E-2
3.683114118E0,7.773031294E-2,-5.650337320E-3,-2.031067200E-2
3.685495993E0,8.399149776E-2,-1.542389300E-2,-1.649287529E-2
3.687877816E0,9.025268257E-2,-2.504473738E-2,-1.771457121E-2
3.690259691E0,9.895725548E-2,-3.100049868E-2,-1.771457121E-2
3.692641514E0,1.052184403E-1,-4.199574888E-2,-1.649287529E-2
3.695023389E0,1.127013192E-1,-5.161659420E-2,-1.756185852E-2
3.697405264E0,1.189625040E-1,-6.001574174E-2,-1.756185852E-2
3.699787139E0,1.276670843E-1,-7.223268598E-2,-1.878355257E-2
3.702168962E0,1.375933439E-1,-8.063183725E-2,-1.985253580E-2
3.704550889E0,1.462979168E-1,-8.780929446E-2,-2.107422985E-2
3.706932712E0,1.562241912E-1,-9.743013978E-2,-1.985253580E-2
3.709314587E0,1.675248593E-1,-1.058292910E-1,-1.603474095E-2
3.711696410E0,1.786728203E-1,-1.119377613E-1,-9.926267900E-3
3.714078285E0,1.948602796E-1,-1.178935245E-1,-4.886778072E-3
3.716460160E0,2.086043358E-1,-1.201841980E-1,0.000000000E0
3.718841983E0,2.209739983E-1,-1.261399537E-1,2.596100792E-3
3.721223910E0,2.347180545E-1,-1.272089481E-1,3.817795310E-3
3.723605733E0,2.446443290E-1,-1.296523362E-1,3.817795310E-3
3.725987608E0,2.509055138E-1,-1.308740228E-1,3.817795310E-3
3.728369430E0,2.570139766E-1,-1.296523362E-1,3.817795310E-3
3.730751305E0,2.557922900E-1,-1.308740228E-1,2.596100792E-3
3.733133180E0,2.557922900E-1,-1.343863904E-1,5.039489828E-3
3.735515003E0,2.509055138E-1,-1.368297935E-1,6.261184346E-3
3.737896878E0,2.422009408E-1,-1.394258887E-1,6.261184346E-3
3.740278753E0,2.298312783E-1,-1.406475753E-1,6.261184346E-3
3.742660628E0,2.124221325E-1,-1.418692768E-1,6.261184346E-3
3.745042451E0,1.963873953E-1,-1.444653720E-1,7.330167107E-3
3.747424326E0,1.789782494E-1,-1.444653720E-1,7.330167107E-3
3.749806201E0,1.617218107E-1,-1.458397806E-1,7.330167107E-3
3.752188076E0,1.455343664E-1,-1.543916464E-1,8.551862091E-3
3.754569951E0,1.319430023E-1,-1.629435122E-1,7.330167107E-3
3.756951774E0,1.233911440E-1,-1.739387512E-1,9.773556143E-3
3.759333649E0,1.185043678E-1,-1.872246861E-1,8.551862091E-3
3.761715472E0,1.198787764E-1,-2.031067163E-1,6.108472589E-3
3.764097399E0,1.273616552E-1,-2.225011140E-1,2.443389036E-3
3.766479222E0,1.409530044E-1,-2.406738251E-1,-4.734066315E-3
3.768861097E0,1.583621502E-1,-2.564031482E-1,-1.695101149E-2
3.771242920E0,1.844758689E-1,-2.684673667E-1,-3.023693897E-2
3.773624795E0,2.116585821E-1,-2.793098986E-1,-4.001049697E-2
3.776006670E0,2.438807636E-1,-2.803788781E-1,-5.085303262E-2
3.778388493E0,2.785463631E-1,-2.814478874E-1,-6.306997687E-2
3.780770368E0,3.156553209E-1,-2.764083743E-1,-7.773031294E-2
3.783138962E0,3.477247953E-1,-2.666348219E-1,-9.239064902E-2
3.785534118E0,3.797942698E-1,-2.519744933E-1,-1.094943732E-1
3.787915993E0,4.106420577E-1,-2.362451702E-1,-1.265980899E-1
3.790284535E0,4.388937652E-1,-2.179197669E-1,-1.449235082E-1
3.792679691E0,4.634803534E-1,-1.948602796E-1,-1.632489264E-1
3.795061566E0,4.854708612E-1,-1.681357026E-1,-1.803526580E-1
3.797430160E0,5.088357925E-1,-1.353026628E-1,-1.963873953E-1
3.799825264E0,5.283828974E-1,-1.001789495E-1,-2.086043358E-1
3.802207139E0,5.418215394E-1,-6.016845629E-2,-2.173089087E-1
3.804588962E0,5.538857579E-1,-1.527118124E-2,-2.247917950E-1
3.806970837E0,5.647283196E-1,3.573456407E-2,-2.296785712E-1
3.809352712E0,5.731274486E-1,8.796200156E-2,-2.334963679E-1
3.811734587E0,5.740436912E-1,1.388150454E-1,-2.397575527E-1
3.814116410E0,5.700731874E-1,1.910424829E-1,-2.423536479E-1
3.816498285E0,5.648810267E-1,2.406738251E-1,-2.449497581E-1
3.818880160E0,5.508314967E-1,2.854183912E-1,-2.512109280E-1
3.821261983E0,5.334223509E-1,3.193204105E-1,-2.550287247E-1
3.823643858E0,5.120427012E-1,3.446705639E-1,-2.588465214E-1
3.826025733E0,4.885250926E-1,3.541387022E-1,-2.614426315E-1
3.828407608E0,4.662291706E-1,3.553603888E-1,-2.577775419E-1
3.830789430E0,4.414898455E-1,3.503209054E-1,-2.542651594E-1
3.833158024E0,4.179722369E-1,3.333698809E-1,-2.457133085E-1
3.835553180E0,3.972034156E-1,3.101576865E-1,-2.345653474E-1
3.837935055E0,3.800997138E-1,2.799207568E-1,-2.150182426E-1
3.840303649E0,3.629959822E-1,2.484621257E-1,-1.916533262E-1
3.842698753E0,3.484883606E-1,2.168507725E-1,-1.670667231E-1
3.845080628E0,3.413109183E-1,1.915006191E-1,-1.351499557E-1
3.847449222E0,3.329117596E-1,1.685938388E-1,-9.956810623E-2
3.849844326E0,3.283303976E-1,1.458397806E-1,-6.276455522E-2
3.852226201E0,3.274141252E-1,1.253764033E-1,-2.718270384E-2
3.854594795E0,3.240544796E-1,1.061347127E-1,9.620844387E-3
3.856989899E0,3.255815804E-1,9.177979827E-2,4.520269856E-2
3.859371774E0,3.269560039E-1,7.727217674E-2,7.589777559E-2
3.861740368E0,3.284831047E-1,6.413896382E-2,1.078145429E-1
3.864135472E0,3.336753249E-1,5.818320066E-2,1.310267299E-1
3.866517347E0,3.362714052E-1,4.993676394E-2,1.531699449E-1
3.868885941E0,3.426853120E-1,4.031591862E-2,1.777565479E-1
3.871281097E0,3.465031087E-1,2.947338112E-2,1.924168915E-1
3.873662920E0,3.553603888E-1,1.756185852E-2,2.072299272E-1
3.876031514E0,3.605526090E-1,3.054236295E-3,2.208212912E-1
3.878426670E0,3.692571819E-1,-1.145338640E-2,2.293731421E-1
3.880808545E0,3.793361485E-1,-2.580829710E-2,2.368560284E-1
3.883177139E0,3.880407214E-1,-4.031591862E-2,2.429644912E-1
3.885572243E0,4.005630910E-1,-5.604523420E-2,2.467822880E-1
3.887954118E0,4.118637741E-1,-7.543963939E-2,2.467822880E-1
3.890322712E0,4.256078303E-1,-9.468132257E-2,2.444916219E-1
3.892717816E0,4.343124032E-1,-1.116323397E-1,2.359397560E-1
3.895099691E0,4.454603493E-1,-1.299577504E-1,2.250972092E-1
3.897468285E0,4.553866386E-1,-1.481304616E-1,2.128802687E-1
3.899863389E0,4.628695250E-1,-1.663031727E-1,1.994416267E-1
3.902245264E0,4.679090083E-1,-1.809635013E-1,1.860029846E-1
3.904613858E0,4.703523815E-1,-1.905843467E-1,1.750077456E-1
3.907009014E0,4.653128982E-1,-1.931804419E-1,1.627907902E-1
3.909390837E0,4.553866386E-1,-1.956238300E-1,1.528645307E-1
3.911772712E0,4.430169761E-1,-2.006633282E-1,1.455343664E-1
3.914154587E0,4.230117202E-1,-2.008160353E-1,1.382041872E-1
3.916536410E0,3.970507085E-1,-2.021904439E-1,1.331647038E-1
3.918918285E0,3.709369898E-1,-2.047865391E-1,1.293469071E-1
3.921300160E0,3.411581814E-1,-2.049392611E-1,1.281252056E-1
3.923682035E0,3.103103936E-1,-2.075353563E-1,1.304158866E-1
3.926063858E0,2.793098986E-1,-2.113531530E-1,1.316375881E-1
3.928445733E0,2.521272004E-1,-2.199050188E-1,1.363716573E-1
3.930827608E0,2.273878902E-1,-2.309002578E-1,1.424801201E-1
3.933209483E0,2.087570578E-1,-2.394521236E-1,1.437018216E-1
3.935591305E0,1.915006191E-1,-2.383831441E-1,1.485885978E-1
3.937973180E0,1.827960461E-1,-2.322746664E-1,1.510319859E-1
3.940355055E0,1.765348613E-1,-2.238755226E-1,1.595838517E-1
3.942736878E0,1.740914732E-1,-2.092151791E-1,1.667613089E-1
3.945118753E0,1.789782494E-1,-1.933331639E-1,1.740914732E-1
3.947500628E0,1.864611208E-1,-1.763821393E-1,1.814216375E-1
3.949882503E0,2.000524700E-1,-1.592784226E-1,1.913478971E-1
3.952264326E0,2.173089087E-1,-1.372879148E-1,2.035648525E-1
3.954646201E0,2.359397560E-1,-1.128540337E-1,2.194468826E-1
3.957028076E0,2.568612695E-1,-9.086353332E-2,2.353289127E-1
3.959409899E0,2.767138183E-1,-6.627693027E-2,2.513636351E-1
3.961791774E0,2.990097404E-1,-4.062134400E-2,2.660239935E-1
3.964173649E0,3.162661791E-1,-1.740914769E-2,2.806843221E-1
3.966555524E0,3.323009014E-1,1.542389300E-2,2.977880239E-1
3.968937347E0,3.408527672E-1,4.459185153E-2,3.075616062E-1
3.971319274E0,3.495573401E-1,7.635590434E-2,3.173351586E-1
3.973701097E0,3.556658030E-1,1.043021679E-1,3.271087110E-1
3.976082972E0,3.567348123E-1,1.273616552E-1,3.356605768E-1
3.978464795E0,3.567348123E-1,1.467560530E-1,3.379512429E-1
3.980846670E0,3.490992188E-1,1.649287641E-1,3.367295563E-1
3.983228545E0,3.391729295E-1,1.757712960E-1,3.355078697E-1
3.985610420E0,3.266505599E-1,1.841704547E-1,3.329117596E-1
3.987992243E0,3.130592108E-1,1.950129867E-1,3.316900730E-1
3.990374118E0,2.980934680E-1,1.948602796E-1,3.278722763E-1
3.992755993E0,2.845021188E-1,1.911951900E-1,3.266505599E-1
3.995137816E0,2.670929730E-1,1.838650256E-1,3.242071867E-1
3.997519691E0,2.510582209E-1,1.753131598E-1,3.278722763E-1
3.999901566E0,2.374668717E-1,1.606528312E-1,3.266505599E-1
4.002283441E0,2.202104330E-1,1.459924877E-1,3.315373361E-1
4.004665264E0,2.067717910E-1,1.374406368E-1,3.364241421E-1
4.007047139E0,1.956238300E-1,1.265980899E-1,3.400892019E-1
4.009429014E0,1.870719790E-1,1.192679256E-1,3.449759781E-1
4.011810837E0,1.783674061E-1,1.143811494E-1,3.474193811E-1
4.014192712E0,1.722589284E-1,1.119377613E-1,3.486410677E-1
4.016574587E0,1.659977436E-1,1.082726792E-1,3.510844707E-1
4.018956462E0,1.623326540E-1,1.094943732E-1,3.510844707E-1
4.021338285E0,1.611109674E-1,1.082726792E-1,3.535278440E-1
4.023720160E0,1.598892659E-1,1.058292910E-1,3.547495604E-1
4.026102035E0,1.635543555E-1,9.972081333E-2,3.547495604E-1
4.028483910E0,1.685938388E-1,8.887827396E-2,3.535278440E-1
4.030865733E0,1.736333370E-1,7.070557028E-2,3.535278440E-1
4.033247608E0,1.798945218E-1,5.619794875E-2,3.549022675E-1
4.035629483E0,1.887518018E-1,3.558185324E-2,3.536805511E-1
4.038011305E0,1.976090819E-1,1.130067464E-2,3.501681983E-1
4.040393180E0,2.101314515E-1,-1.649287529E-2,3.503209054E-1
4.042775055E0,2.214321345E-1,-4.184303805E-2,3.478775024E-1
4.045156930E0,2.339545041E-1,-6.978929788E-2,3.455868363E-1
4.047538753E0,2.440334857E-1,-9.880454093E-2,3.469612300E-1
4.049920628E0,2.539597452E-1,-1.241547018E-1,3.481829464E-1
4.052302503E0,2.654131353E-1,-1.519482583E-1,3.495573401E-1
4.054684326E0,2.741177082E-1,-1.786728203E-1,3.533751369E-1
4.057066253E0,2.805316150E-1,-2.076880634E-1,3.545968235E-1
4.059448076E0,2.845021188E-1,-2.379250079E-1,3.584146202E-1
4.061829951E0,2.909159958E-1,-2.719797492E-1,3.610107303E-1
4.064211774E0,2.910687327E-1,-2.997733057E-1,3.683409095E-1
4.066593701E0,2.899997234E-1,-3.275668323E-1,3.807105422E-1
4.068975524E0,2.864873707E-1,-3.555130959E-1,3.906368315E-1
4.071357399E0,2.841966748E-1,-3.796415627E-1,4.016320705E-1
4.073739274E0,2.756448388E-1,-4.002576768E-1,4.127800465E-1
4.076121097E0,2.696890533E-1,-4.123218954E-1,4.225535989E-1
4.078502972E0,2.635805905E-1,-4.245388508E-1,4.359922409E-1
4.080884795E0,2.586938143E-1,-4.353813827E-1,4.495835900E-1
4.083266670E0,2.501419485E-1,-4.474456310E-1,4.618005157E-1
4.085648545E0,2.441861928E-1,-4.631749392E-1,4.764608741E-1
4.088030420E0,2.368560284E-1,-4.752391577E-1,4.863871336E-1
4.090412295E0,2.270824611E-1,-4.874561131E-1,4.961606860E-1
4.092794118E0,2.173089087E-1,-4.970769584E-1,5.083776116E-1
4.095175993E0,2.061609477E-1,-5.080721974E-1,5.169295073E-1
4.097557868E0,1.963873953E-1,-5.166240931E-1,5.205945969E-1
4.099939691E0,1.902789176E-1,-5.250232220E-1,5.292991400E-1
4.102321566E0,1.840177327E-1,-5.286883116E-1,5.317425132E-1
4.104703441E0,1.803526580E-1,-5.347967744E-1,5.292991400E-1
4.107085264E0,1.803526580E-1,-5.384618640E-1,5.292991400E-1
4.109467139E0,1.841704547E-1,-5.384618640E-1,5.292991400E-1
4.111849014E0,1.902789176E-1,-5.360184908E-1,5.280774832E-1
4.114230889E0,2.002051920E-1,-5.347967744E-1,5.256340504E-1
4.116612712E0,2.101314515E-1,-5.334223509E-1,5.231906772E-1
4.118994587E0,2.225011140E-1,-5.322006941E-1,5.219689608E-1
4.121376462E0,2.385358512E-1,-5.273138881E-1,5.183038712E-1
4.123758337E0,2.547233105E-1,-5.296045542E-1,5.172349215E-1
4.126140212E0,2.695363462E-1,-5.320479870E-1,5.123481154E-1
4.128522035E0,2.869454920E-1,-5.404471159E-1,5.099047422E-1
4.130903910E0,2.993151546E-1,-5.476245880E-1,5.076140761E-1
4.133285733E0,3.167243004E-1,-5.548020005E-1,5.039489865E-1
4.135667608E0,3.278722763E-1,-5.609105229E-1,4.990622103E-1
4.138049483E0,3.377985358E-1,-5.609105229E-1,4.941754341E-1
4.140431358E0,3.477247953E-1,-5.619794726E-1,4.880669713E-1
4.142813180E0,3.550549746E-1,-5.619794726E-1,4.807367921E-1
4.145195055E0,3.611634374E-1,-5.632011890E-1,4.758500159E-1
4.147576930E0,3.648285270E-1,-5.596888065E-1,4.697415531E-1
4.149958805E0,3.684936166E-1,-5.560237169E-1,4.624113739E-1
4.152340628E0,3.721587062E-1,-5.450284481E-1,4.587462842E-1
4.154722503E0,3.758237660E-1,-5.378510356E-1,4.538595080E-1
4.157104378E0,3.794888556E-1,-5.268557668E-1,4.526378214E-1
4.159486253E0,3.819322586E-1,-5.123481154E-1,4.550811946E-1
4.161868076E0,3.817795515E-1,-4.929537475E-1,4.561502039E-1
4.164249951E0,3.842229247E-1,-4.698942602E-1,4.585935771E-1
4.166631826E0,3.852919042E-1,-4.431696832E-1,4.596625566E-1
4.169013649E0,3.889569938E-1,-4.236225784E-1,4.621059597E-1
4.171395524E0,3.914003670E-1,-4.054498672E-1,4.645493329E-1
4.173777399E0,3.961344361E-1,-3.848337829E-1,4.657710493E-1
4.176159274E0,3.985778391E-1,-3.666610718E-1,4.657710493E-1
4.178541097E0,4.020902216E-1,-3.460449576E-1,4.619532526E-1
4.180922972E0,4.045335948E-1,-3.278722763E-1,4.607315361E-1
4.183304847E0,4.057552814E-1,-3.095468581E-1,4.619532526E-1
4.185686670E0,4.017847776E-1,-2.877090573E-1,4.618005157E-1
4.188068545E0,3.979669809E-1,-2.672456801E-1,4.618005157E-1
4.190450420E0,3.904841244E-1,-2.454078794E-1,4.628695250E-1
4.192832295E0,3.866663277E-1,-2.235700935E-1,4.604261220E-1
4.195214118E0,3.791834414E-1,-2.041756958E-1,4.651601911E-1
4.197595993E0,3.729222417E-1,-1.896680743E-1,4.676035643E-1
4.199977868E0,3.703261614E-1,-1.763821393E-1,4.712686539E-1
4.202359743E0,3.689517379E-1,-1.641651988E-1,4.724903405E-1
4.204741566E0,3.677300513E-1,-1.496575773E-1,4.711159468E-1
4.207123441E0,3.700207174E-1,-1.327065676E-1,4.698942602E-1
4.209505316E0,3.749074936E-1,-1.168245375E-1,4.637857676E-1
4.211887139E0,3.846810758E-1,-1.010952219E-1,4.552339315E-1
4.214269014E0,3.932329118E-1,-8.780929446E-2,4.440859556E-1
4.216650889E0,4.017847776E-1,-7.452336699E-2,4.330907166E-1
4.219032764E0,4.115583301E-1,-6.474980712E-2,4.233171642E-1
4.221414587E0,4.239279926E-1,-5.864133686E-2,4.074351192E-1
4.223796462E0,4.337015450E-1,-5.268557742E-2,3.950654566E-1
4.226178337E0,4.448495209E-1,-5.390727147E-2,3.804051280E-1
4.228560212E0,4.570664763E-1,-5.268557742E-2,3.657447994E-1
4.230942035E0,4.669927359E-1,-5.635065958E-2,3.547495604E-1
4.233323910E0,4.756973088E-1,-6.352811307E-2,3.461976945E-1
4.235705785E0,4.844018817E-1,-7.574506104E-2,3.414636254E-1
4.238087608E0,4.880669713E-1,-8.780929446E-2,3.377985358E-1
4.240469483E0,4.880669713E-1,-9.513945878E-2,3.353551328E-1
4.242851358E0,4.894413650E-1,-9.880454093E-2,3.341334462E-1
4.245233233E0,4.894413650E-1,-1.000262350E-1,3.316900730E-1
4.247615055E0,4.868452549E-1,-9.758284688E-2,3.316900730E-1
4.249996930E0,4.844018817E-1,-9.025268257E-2,3.353551328E-1
4.252378805E0,4.805840850E-1,-7.818844914E-2,3.377985358E-1
4.254760628E0,4.767662883E-1,-6.123743951E-2,3.425326049E-1
4.257142503E0,4.717268050E-1,-3.939964995E-2,3.486410677E-1
4.259524378E0,4.679090083E-1,-1.634016447E-2,3.523061574E-1
4.261906253E0,4.616478086E-1,7.941014133E-3,3.558185399E-1
4.264288076E0,4.527905285E-1,3.100049868E-2,3.558185399E-1
4.266669951E0,4.465293586E-1,5.390727147E-2,3.556658030E-1
4.269051826E0,4.414898455E-1,7.452336699E-2,3.520007432E-1
4.271433701E0,4.350759685E-1,9.758284688E-2,3.481829464E-1
4.273815524E0,4.288147688E-1,1.168245375E-1,3.419217467E-1
4.276197399E0,4.236225784E-1,1.301104724E-1,3.333698809E-1
4.278579274E0,4.185830951E-1,1.495048702E-1,3.295520842E-1
4.280961097E0,4.123218954E-1,1.652341783E-1,3.271087110E-1
4.283342972E0,4.048390090E-1,1.809635013E-1,3.271087110E-1
4.285724847E0,4.010212123E-1,1.966928244E-1,3.269560039E-1
4.288106722E0,3.935383558E-1,2.075353563E-1,3.306210935E-1
4.290488545E0,3.872771561E-1,2.220429778E-1,3.330644667E-1
4.292870420E0,3.822376728E-1,2.415900975E-1,3.390202224E-1
4.295252295E0,3.796415627E-1,2.573194206E-1,3.439069986E-1
4.297634170E0,3.784198761E-1,2.767138183E-1,3.487937748E-1
4.300015993E0,3.794888556E-1,2.961082160E-1,3.512371778E-1
4.302397868E0,3.781144619E-1,3.191677034E-1,3.523061574E-1
4.304779743E0,3.768927455E-1,3.385621011E-1,3.510844707E-1
4.307161566E0,3.767400384E-1,3.591781855E-1,3.497100472E-1
4.309543441E0,3.765873313E-1,3.749074936E-1,3.472666740E-1
4.311925316E0,3.765873313E-1,3.859027624E-1,3.436015844E-1
4.314307191E0,3.739912212E-1,3.979669809E-1,3.361186981E-1
4.316689014E0,3.701734245E-1,4.112529159E-1,3.275668323E-1
4.319070889E0,3.662029207E-1,4.233171642E-1,3.190149665E-1
4.321452764E0,3.599417508E-1,4.292729199E-1,3.115321100E-1
4.323834639E0,3.549022675E-1,4.388937652E-1,2.993151546E-1
4.326216462E0,3.461976945E-1,4.448495209E-1,2.857238054E-1
4.328598337E0,3.348970115E-1,4.483618736E-1,2.709107697E-1
4.330980212E0,3.211529553E-1,4.530959427E-1,2.562504113E-1
4.333362087E0,3.037438095E-1,4.517215490E-1,2.402156889E-1
4.335743910E0,2.874036431E-1,4.526378214E-1,2.267770469E-1
4.338125785E0,2.687727809E-1,4.500417113E-1,2.107423097E-1
4.340507660E0,2.513636351E-1,4.425588250E-1,1.922641695E-1
4.342889483E0,2.289150059E-1,4.362976551E-1,1.739387512E-1
4.345271358E0,2.066190839E-1,4.275930822E-1,1.530172378E-1
4.347653233E0,1.780619770E-1,4.176668227E-1,1.333174109E-1
4.350035108E0,1.507265568E-1,4.065188468E-1,1.123958975E-1
4.352416930E0,1.195733473E-1,3.990359604E-1,8.903098851E-2
4.354798805E0,8.719844371E-2,3.926220834E-1,6.688777357E-2
4.357180680E0,5.619794875E-2,3.839175105E-1,4.734066129E-2
4.359562503E0,2.519745007E-2,3.750602305E-1,2.764083818E-2
4.361944378E0,-4.734066315E-3,3.687990308E-1,6.719320081E-3
4.364326253E0,-3.451287001E-2,3.672719002E-1,-1.175880991E-2
4.366708128E0,-5.940489471E-2,3.646758199E-1,-3.145863488E-2
4.369089951E0,-8.307522535E-2,3.608580232E-1,-4.871506989E-2
4.371471826E0,-9.926267713E-2,3.594835997E-1,-6.459710002E-2
4.373853701E0,-1.142284349E-1,3.603998721E-1,-8.307522535E-2
4.376235576E0,-1.267508119E-1,3.602471650E-1,-1.015533581E-1
4.378617399E0,-1.343863904E-1,3.565820754E-1,-1.211004704E-1
4.380999274E0,-1.394258887E-1,3.490992188E-1,-1.406475753E-1
4.383367868E0,-1.418692768E-1,3.381039500E-1,-1.615691036E-1
4.385762972E0,-1.444653720E-1,3.257342875E-1,-1.896680743E-1
4.388144847E0,-1.470614821E-1,3.086305857E-1,-2.203631550E-1
4.390513441E0,-1.533226669E-1,2.951919436E-1,-2.472404242E-1
4.392908597E0,-1.583621502E-1,2.828222811E-1,-2.779355049E-1
4.395290420E0,-1.672194302E-1,2.753393948E-1,-3.084778786E-1
4.397659014E0,-1.748550236E-1,2.715215981E-1,-3.391729295E-1
4.400054170E0,-1.849340051E-1,2.713688910E-1,-3.649812341E-1
4.402435993E0,-1.936385781E-1,2.736595869E-1,-3.845283389E-1
4.404804587E0,-2.011214644E-1,2.759502530E-1,-3.944546282E-1
4.407199743E0,-2.024958730E-1,2.710634768E-1,-3.993414044E-1
4.409581618E0,-2.023431510E-1,2.637332976E-1,-3.993414044E-1
4.411950212E0,-1.985253543E-1,2.480039895E-1,-3.881934285E-1
4.414345316E0,-1.957765520E-1,2.263189107E-1,-3.672719002E-1
4.416727191E0,-1.930277348E-1,1.950129867E-1,-3.353551328E-1
4.419095785E0,-1.913478971E-1,1.588202864E-1,-2.947337925E-1
4.421490889E0,-1.908897758E-1,1.203369126E-1,-2.493783981E-1
4.423872764E0,-1.928750277E-1,9.498675168E-2,-1.977618039E-1
4.426241358E0,-1.974563748E-1,7.589777559E-2,-1.401894391E-1
4.428636514E0,-2.008160353E-1,7.375980914E-2,-8.139539510E-2
4.431018337E0,-2.067717910E-1,8.735115826E-2,-2.137965336E-2
4.433386930E0,-2.064663768E-1,1.168245375E-1,3.741439432E-2
4.435782087E0,-2.101314515E-1,1.618745178E-1,9.239064902E-2
4.438163910E0,-2.089097649E-1,2.203631550E-1,1.388150454E-1
4.440545785E0,-2.066190839E-1,2.884726226E-1,1.718007922E-1
4.442927660E0,-2.032594234E-1,3.578037918E-1,1.911951900E-1
4.445309535E0,-1.997470558E-1,4.220954478E-1,1.934858710E-1
4.447678128E0,-1.951656938E-1,4.802786708E-1,1.798945218E-1
4.450073233E0,-1.919587553E-1,5.286883116E-1,1.553079188E-1
4.452455108E0,-1.898207814E-1,5.661026835E-1,1.220167428E-1
4.454823701E0,-1.864611208E-1,5.949652195E-1,8.399149776E-2
4.457218805E0,-1.855448484E-1,6.154286265E-1,4.474456236E-2
4.459600680E0,-1.846285909E-1,6.273401380E-1,5.497625098E-3
4.461969274E0,-1.835595965E-1,6.308525205E-1,-3.374931216E-2
4.464364378E0,-1.875301152E-1,6.258130074E-1,-6.933116168E-2
4.466746253E0,-1.901262105E-1,6.134433746E-1,-1.047603041E-1
4.469114847E0,-1.951656938E-1,5.998520255E-1,-1.366770715E-1
4.471510003E0,-2.038702667E-1,5.815265775E-1,-1.623326540E-1
4.473891826E0,-2.125748396E-1,5.583143830E-1,-1.855448484E-1
4.476260420E0,-2.237228155E-1,5.314370990E-1,-2.052446753E-1
4.478655576E0,-2.399102598E-1,5.008947253E-1,-2.284568697E-1
4.481037399E0,-2.533488870E-1,4.692834020E-1,-2.455606014E-1
4.483405993E0,-2.707580328E-1,4.362976551E-1,-2.602209449E-1
4.485801149E0,-2.866400778E-1,3.997995257E-1,-2.761029601E-1
4.488183024E0,-3.026748300E-1,3.657447994E-1,-2.907632887E-1
4.490551618E0,-3.174878657E-1,3.327590525E-1,-3.066453338E-1
4.492946722E0,-3.310792148E-1,2.999260128E-1,-3.200839758E-1
4.495328597E0,-3.434488773E-1,2.718270421E-1,-3.323009014E-1
4.497697191E0,-3.532224298E-1,2.451024652E-1,-3.469612300E-1
4.500092295E0,-3.607053161E-1,2.218902707E-1,-3.616215885E-1
4.502474170E0,-3.668137789E-1,1.976090819E-1,-3.738385141E-1
4.504856045E0,-3.704788685E-1,1.672194302E-1,-3.836120665E-1
4.507237868E0,-3.703261614E-1,1.368297935E-1,-3.907895386E-1
4.509619743E0,-3.677300513E-1,1.088835225E-1,-3.956763148E-1
4.512001618E0,-3.649812341E-1,7.864658535E-2,-3.930802047E-1
4.514383493E0,-3.561239541E-1,5.070032179E-2,-3.918585181E-1
4.516765316E0,-3.472666740E-1,2.412846684E-2,-3.843756318E-1
4.519147191E0,-3.347443044E-1,2.443389036E-3,-3.756710589E-1
4.521529066E0,-3.222219348E-1,-1.435491070E-2,-3.633013964E-1
4.523910941E0,-3.109212518E-1,-3.252761811E-2,-3.461976945E-1
4.526292764E0,-2.982461751E-1,-4.443913698E-2,-3.301629424E-1
4.528674691E0,-2.845021188E-1,-5.635065958E-2,-3.129065037E-1
4.531056514E0,-2.768665254E-1,-6.719319522E-2,-2.956500649E-1
4.533438389E0,-2.718270421E-1,-7.314895838E-2,-2.797680497E-1
4.535820212E0,-2.680092454E-1,-8.154810965E-2,-2.625116110E-1
4.538202087E0,-2.715215981E-1,-8.628217876E-2,-2.466295809E-1
4.540583962E0,-2.788517773E-1,-8.994726092E-2,-2.356343269E-1
4.542965785E0,-2.875563502E-1,-9.605573118E-2,-2.258607745E-1
4.545347660E0,-2.999260128E-1,-9.972081333E-2,-2.221956849E-1
4.547729535E0,-3.135173619E-1,-1.046075895E-1,-2.209739983E-1
4.550111410E0,-3.283303976E-1,-1.070509851E-1,-2.185306102E-1
4.552493233E0,-3.382566571E-1,-9.743013978E-2,-2.160872221E-1
4.554875108E0,-3.483356535E-1,-8.414421231E-2,-2.150182426E-1
4.557256983E0,-3.507790267E-1,-6.597150117E-2,-2.150182426E-1
4.559638858E0,-3.509317636E-1,-4.169032723E-2,-2.125748396E-1
4.562020680E0,-3.448232710E-1,-1.863084175E-2,-2.139492482E-1
4.564402555E0,-3.362714052E-1,9.315420873E-3,-2.115058601E-1
4.566784430E0,-3.240544796E-1,3.481829539E-2,-2.090624720E-1
4.569166253E0,-3.106158376E-1,5.925218388E-2,-2.102841735E-1
4.571548128E0,-2.933593988E-1,8.475505561E-2,-2.127275616E-1
4.573930003E0,-2.785463631E-1,1.078145429E-1,-2.128802687E-1
4.576311878E0,-2.576248348E-1,1.346918195E-1,-2.116585821E-1
4.578693701E0,-2.379250079E-1,1.601946950E-1,-2.092151791E-1
4.581075576E0,-2.182251811E-1,1.846285909E-1,-2.067717910E-1
4.583457451E0,-1.985253543E-1,2.102841735E-1,-2.005106062E-1
4.585839274E0,-1.837123185E-1,2.333436459E-1,-1.931804419E-1
4.588221149E0,-1.713426560E-1,2.504473627E-1,-1.895153672E-1
4.590603024E0,-1.601946950E-1,2.638860047E-1,-1.870719790E-1
4.592984899E0,-1.516428292E-1,2.736595869E-1,-1.834068894E-1
4.595366722E0,-1.466033459E-1,2.748812735E-1,-1.797417998E-1
4.597748597E0,-1.403421611E-1,2.725905776E-1,-1.724116355E-1
4.600130472E0,-1.353026628E-1,2.652604282E-1,-1.675248593E-1
4.602512347E0,-1.365243644E-1,2.544178963E-1,-1.685938388E-1
4.604894170E0,-1.377460510E-1,2.434226274E-1,-1.661504507E-1
4.607276045E0,-1.426328421E-1,2.289150059E-1,-1.649287641E-1
4.609657920E0,-1.499630064E-1,2.142546773E-1,-1.673721522E-1
4.612039743E0,-1.585148573E-1,1.948602796E-1,-1.722589284E-1
4.614421618E0,-1.708845198E-1,1.826433241E-1,-1.771457046E-1
4.616803493E0,-1.832541823E-1,1.643179059E-1,-1.820324808E-1
4.619185368E0,-1.931804419E-1,1.508792788E-1,-1.905843467E-1
4.621567191E0,-2.029540092E-1,1.337755471E-1,-1.991362125E-1
4.623949066E0,-2.104368806E-1,1.191152185E-1,-2.089097649E-1
4.626330941E0,-2.165453583E-1,1.021642014E-1,-2.174616307E-1
4.628712816E0,-2.215848416E-1,8.750387281E-2,-2.260134816E-1
4.631094639E0,-2.264716178E-1,6.673506647E-2,-2.382304370E-1
4.633476514E0,-2.276933193E-1,4.489727318E-2,-2.504473627E-1
4.635858389E0,-2.275405973E-1,1.817270555E-2,-2.626643181E-1
4.638240264E0,-2.275405973E-1,-8.551862091E-3,-2.748812735E-1
4.640622087E0,-2.261662036E-1,-4.016320780E-2,-2.870981991E-1
4.643003962E0,-2.247917950E-1,-6.444438547E-2,-2.967190444E-1
4.645385837E0,-2.223484069E-1,-9.009996802E-2,-3.064926267E-1
4.647767660E0,-2.173089087E-1,-1.142284349E-1,-3.150444627E-1
4.650149535E0,-2.159345001E-1,-1.362189353E-1,-3.258870244E-1
4.652531410E0,-2.147128135E-1,-1.568350345E-1,-3.368822634E-1
4.654913285E0,-2.121167034E-1,-1.835595965E-1,-3.442124426E-1
4.657295108E0,-2.119639963E-1,-2.139492482E-1,-3.503209054E-1
4.659676983E0,-2.130329758E-1,-2.502946556E-1,-3.550549746E-1
4.662058858E0,-2.128802687E-1,-2.927485406E-1,-3.597890437E-1
4.664440680E0,-2.176143378E-1,-3.341334462E-1,-3.622324169E-1
4.666822555E0,-2.199050188E-1,-3.704788685E-1,-3.657447994E-1
4.669204430E0,-2.209739983E-1,-4.068242610E-1,-3.645231128E-1
4.671586305E0,-2.232646793E-1,-4.433223903E-1,-3.631486893E-1
4.673968180E0,-2.255553454E-1,-4.735593498E-1,-3.619270027E-1
4.676350003E0,-2.278460264E-1,-5.039489865E-1,-3.654393852E-1
4.678731878E0,-2.302894145E-1,-5.270084739E-1,-3.691044450E-1
4.681113753E0,-2.313583940E-1,-5.500679612E-1,-3.752129376E-1
4.683495576E0,-2.289150059E-1,-5.682406425E-1,-3.787252903E-1
4.685877451E0,-2.299840003E-1,-5.890094638E-1,-3.811686933E-1
4.688259326E0,-2.299840003E-1,-5.998520255E-1,-3.848337829E-1
4.690641201E0,-2.287622988E-1,-6.096255779E-1,-3.860554695E-1
4.693023024E0,-2.249445021E-1,-6.180247068E-1,-3.823903799E-1
4.695404899E0,-2.237228155E-1,-6.168029904E-1,-3.787252903E-1
4.697786774E0,-2.199050188E-1,-6.155813336E-1,-3.724641204E-1
4.700168597E0,-2.211267054E-1,-6.106945276E-1,-3.687990308E-1
4.702550472E0,-2.211267054E-1,-6.045860648E-1,-3.651339412E-1
4.704932347E0,-2.211267054E-1,-5.972558856E-1,-3.602471650E-1
4.707314222E0,-2.162399292E-1,-5.960342288E-1,-3.553603888E-1
4.709696097E0,-2.148655206E-1,-5.972558856E-1,-3.504736125E-1
4.712077972E0,-2.098260373E-1,-5.983248949E-1,-3.394783735E-1
4.714459795E0,-2.023431510E-1,-6.018372774E-1,-3.283303976E-1
4.716841670E0,-1.960819662E-1,-6.029062271E-1,-3.124483824E-1
4.719223493E0,-1.861557066E-1,-5.955760479E-1,-2.977880239E-1
4.721605420E0,-1.762294322E-1,-5.796940327E-1,-2.841966748E-1
4.723987243E0,-1.675248593E-1,-5.540384650E-1,-2.719797492E-1
4.726369118E0,-1.589729935E-1,-5.285356045E-1,-2.609844804E-1
4.728750941E0,-1.478250325E-1,-5.018110275E-1,-2.512109280E-1
4.731132816E0,-1.380514801E-1,-4.785988331E-1,-2.452551723E-1
4.733514691E0,-1.232384369E-1,-4.639385045E-1,-2.389939874E-1
4.735896514E0,-1.108687744E-1,-4.578300118E-1,-2.328855246E-1
4.738278389E0,-9.712471068E-2,-4.588989913E-1,-2.267770469E-1
4.740660264E0,-8.093725890E-2,-4.636330605E-1,-2.229592502E-1
4.743042139E0,-6.597150117E-2,-4.720322192E-1,-2.156290859E-1
4.745423962E0,-5.100574717E-2,-4.755446017E-1,-2.057028115E-1
