"Time (s)","Acceleration x (m/s^2)","Acceleration y (m/s^2)","Acceleration z (m/s^2)"
0.000000000E0,9.478835106E0,-7.661700249E-2,3.691696882E0
0.000000000E0,9.478835106E0,-7.661700249E-2,3.691696882E0
0.000000000E0,9.478835106E0,-7.661700249E-2,3.691696882E0
0.000000000E0,9.478835106E0,-7.661700249E-2,3.691696882E0
1.775471000E-3,8.468524933E0,3.926263452E-1,3.624662161E0
4.178440000E-3,8.463736534E0,3.495325744E-1,3.567203760E0
6.581408000E-3,8.573864937E0,3.255915940E-1,3.531292200E0
8.984377000E-3,8.698357582E0,3.088329136E-1,3.581568480E0
1.138734600E-2,8.832427979E0,3.040446937E-1,3.650997162E0
1.379031500E-2,8.959314346E0,2.896800935E-1,3.727608442E0
1.619328300E-2,9.043108940E0,2.729214132E-1,3.830554724E0
1.859625200E-2,9.155631065E0,2.609509230E-1,3.904771805E0
2.099922100E-2,9.210694313E0,2.633450329E-1,4.060388565E0
2.340219000E-2,9.239424706E0,2.513745427E-1,4.115452766E0
2.580515800E-2,9.282517433E0,2.537686229E-1,4.117846489E0
2.820812700E-2,9.296882629E0,2.178571522E-1,4.177699089E0
3.061109600E-2,9.335188866E0,1.795515716E-1,4.141787529E0
3.301406500E-2,9.313641548E0,1.627928764E-1,4.084329605E0
3.541703300E-2,9.313641548E0,1.627928764E-1,4.084329605E0
3.782000200E-2,9.313641548E0,1.627928764E-1,4.084329605E0
4.022297100E-2,9.313641548E0,1.627928764E-1,4.084329605E0
4.262594000E-2,9.313641548E0,1.627928764E-1,4.084329605E0
4.502890800E-2,9.313641548E0,1.627928764E-1,4.084329605E0
4.829672100E-2,9.217877388E0,1.484282762E-1,4.002930164E0
5.242942900E-2,9.217877388E0,1.484282762E-1,4.002930164E0
5.569729400E-2,9.167601585E0,1.388518810E-1,3.993353605E0
5.810026300E-2,9.167601585E0,1.388518810E-1,3.993353605E0
6.050323100E-2,9.117325783E0,1.580046713E-1,4.041235447E0
6.290620000E-2,9.117325783E0,1.580046713E-1,4.041235447E0
6.530916900E-2,9.114932060E0,1.101226956E-1,4.005324364E0
6.771213800E-2,9.114932060E0,1.101226956E-1,4.005324364E0
7.019396100E-2,9.129295349E0,1.220932007E-1,3.990959406E0
7.274969000E-2,9.129295349E0,1.220932007E-1,3.990959406E0
7.524411700E-2,9.102960587E0,1.268813908E-1,3.933501005E0
7.768255400E-2,9.074232101E0,9.815220535E-2,3.940683126E0
8.012208600E-2,9.021561623E0,9.815220535E-2,3.938288927E0
8.256172100E-2,9.014378548E0,8.618171513E-2,3.914348125E0
8.500047100E-2,9.007196426E0,9.336401522E-2,3.868860245E0
8.743927300E-2,8.980861664E0,8.139351010E-2,3.849707365E0
8.987896100E-2,8.985650063E0,4.787612706E-2,3.835342646E0
9.231870000E-2,8.966496468E0,4.548203945E-2,3.837736845E0
9.475771100E-2,8.980861664E0,5.745252967E-2,3.864071846E0
9.719677300E-2,8.947344780E0,7.899941504E-2,3.825766325E0
9.963656500E-2,8.935373306E0,7.660530508E-2,3.844919205E0
1.020764080E-1,8.949738503E0,6.224073470E-2,3.856889725E0
1.045154190E-1,8.916220665E0,9.815220535E-2,3.842525244E0
1.069544810E-1,8.873127937E0,1.268813908E-1,3.837736845E0
1.093943250E-1,8.837215424E0,1.627928764E-1,3.804219484E0
1.118341690E-1,8.839610100E0,1.939161420E-1,3.780278444E0
1.142731790E-1,8.822851181E0,2.202512622E-1,3.758731604E0
1.167122420E-1,8.837215424E0,2.274335325E-1,3.763520002E0
1.191520330E-1,8.830033302E0,2.370099425E-1,3.763520002E0
1.215918770E-1,8.834821701E0,2.106748521E-1,3.749155283E0
1.240309400E-1,8.870732307E0,2.226453424E-1,3.761125803E0
1.264700020E-1,8.880310059E0,2.513745427E-1,3.770702124E0
1.289097940E-1,8.880310059E0,2.489804327E-1,3.780278444E0
1.313496380E-1,8.906644821E0,2.513745427E-1,3.804219484E0
1.337886480E-1,8.928192139E0,2.609509230E-1,3.811401844E0
1.362277110E-1,8.911433220E0,2.657391131E-1,3.813796043E0
1.386675540E-1,8.968891144E0,2.777096331E-1,3.794643164E0
1.411073980E-1,8.976074219E0,2.848919034E-1,3.825766325E0
1.435464080E-1,8.983255386E0,3.136211038E-1,3.866466284E0
1.459854710E-1,9.019167900E0,2.944683135E-1,3.871254206E0
1.484252630E-1,9.016773224E0,3.255915940E-1,3.873648405E0
1.508651060E-1,9.035925865E0,3.351680040E-1,3.878436804E0
1.533041690E-1,9.045502663E0,3.327738643E-1,3.916742086E0
1.557432310E-1,9.031137466E0,3.351680040E-1,3.897589445E0
1.581830230E-1,9.057473183E0,3.327738643E-1,3.883224726E0
1.606228670E-1,9.038319588E0,3.279856741E-1,3.890407085E0
1.630618770E-1,9.047896385E0,3.303797841E-1,3.899983406E0
1.655009400E-1,9.035925865E0,3.136211038E-1,3.873648405E0
1.679407830E-1,9.007196426E0,3.423502743E-1,3.852101326E0
1.703806270E-1,9.002408981E0,3.279856741E-1,3.830554724E0
1.728196380E-1,9.023955345E0,3.303797841E-1,3.842525244E0
1.752587000E-1,9.067049980E0,2.944683135E-1,3.909559965E0
1.776984920E-1,9.105354309E0,2.920742035E-1,3.926318407E0
1.801383360E-1,9.100566864E0,2.489804327E-1,3.837736845E0
1.825773980E-1,9.074232101E0,2.705273032E-1,3.830554724E0
1.850164610E-1,9.086201668E0,2.681332231E-1,3.876042366E0
1.874562520E-1,9.081414223E0,2.585568130E-1,3.864071846E0
1.898960960E-1,9.059866905E0,2.561627030E-1,3.816190004E0
1.923351060E-1,9.105354309E0,2.896800935E-1,3.832948685E0
1.947741690E-1,9.143660545E0,2.705273032E-1,3.844919205E0
1.972140130E-1,9.059866905E0,1.891279519E-1,3.777884483E0
1.996538560E-1,9.047896385E0,1.891279519E-1,3.615085602E0
2.020928670E-1,9.110142708E0,2.465863526E-1,3.607903481E0
2.045319290E-1,9.102960587E0,2.705273032E-1,3.797037125E0
2.069717730E-1,9.117325783E0,3.184092641E-1,3.955047607E0
2.094116170E-1,9.100566864E0,3.231974840E-1,3.971806288E0
2.118506270E-1,9.079019547E0,3.255915940E-1,3.955047607E0
2.142896900E-1,9.074232101E0,2.489804327E-1,3.964624166E0
2.167294810E-1,9.050291061E0,2.130689323E-1,3.823372364E0
2.191693250E-1,9.064654350E0,2.226453424E-1,3.727608442E0
2.216083360E-1,9.055078506E0,2.441922128E-1,3.775490522E0
2.240473980E-1,9.069443703E0,2.896800935E-1,3.832948685E0
2.264872420E-1,9.067049980E0,2.872859836E-1,3.804219484E0
2.289270860E-1,9.033532143E0,2.657391131E-1,3.782672644E0
2.313660960E-1,9.093384743E0,2.705273032E-1,3.773096085E0
2.338051580E-1,9.083807945E0,2.777096331E-1,3.782672644E0
2.362450020E-1,9.098173141E0,2.394040227E-1,3.756337404E0
2.386848460E-1,9.088595390E0,2.346158326E-1,3.765913963E0
2.411238560E-1,9.047896385E0,2.202512622E-1,3.770702124E0
2.435629190E-1,9.069443703E0,2.058866620E-1,3.818584204E0
2.460027110E-1,9.069443703E0,2.250394225E-1,3.832948685E0
2.484425540E-1,9.045502663E0,2.178571522E-1,3.854495764E0
2.508816170E-1,8.980861664E0,1.723692566E-1,3.883224726E0
2.533206270E-1,8.985650063E0,1.699751765E-1,3.847313166E0
2.557604710E-1,9.007196426E0,1.268813908E-1,3.823372364E0
2.582003150E-1,8.983255386E0,9.336401522E-2,3.813796043E0
2.606393250E-1,9.009591103E0,9.096990526E-2,3.799431324E0
2.630783880E-1,9.014378548E0,6.702892482E-2,3.854495764E0
2.655182310E-1,8.935373306E0,-4.549372196E-2,3.904771805E0
2.679580750E-1,8.873127937E0,-1.412576735E-1,3.904771805E0
2.703970860E-1,8.832427979E0,-1.699868441E-1,3.823372364E0
2.728361480E-1,8.863551140E0,-7.422290742E-2,3.883224726E0
2.752759400E-1,8.863551140E0,1.435874403E-2,4.098693848E0
2.777157830E-1,8.832427979E0,6.702892482E-2,4.144181728E0
2.801548460E-1,8.849186897E0,1.484282762E-1,4.010112286E0
2.825939080E-1,8.971285820E0,1.603987813E-1,3.923924446E0
2.850337000E-1,9.158024788E0,1.196990907E-1,3.897589445E0
2.874735440E-1,9.177177429E0,1.412459761E-1,3.854495764E0
2.899125540E-1,9.107748985E0,1.963102520E-1,3.864071846E0
2.923516170E-1,9.050291061E0,2.274335325E-1,3.926318407E0
2.947914610E-1,9.004802704E0,2.944683135E-1,4.019688606E0
2.972313040E-1,8.942555428E0,3.279856741E-1,4.055600166E0
2.996703150E-1,8.913826942E0,3.184092641E-1,3.935894966E0
3.021093770E-1,8.928192139E0,3.279856741E-1,3.904771805E0
3.045492210E-1,8.918614388E0,2.920742035E-1,3.907165766E0
3.069890650E-1,8.913826942E0,2.441922128E-1,3.923924446E0
3.094280750E-1,8.889885902E0,1.915220618E-1,3.923924446E0
3.118671380E-1,8.868338585E0,1.651869714E-1,3.962229967E0
3.143069290E-1,8.856369019E0,1.220932007E-1,3.967018366E0
3.167467730E-1,8.918614388E0,8.857581019E-2,3.955047607E0
3.191858360E-1,8.947344780E0,7.899941504E-2,3.964624166E0
3.216248980E-1,9.028743744E0,8.857581019E-2,4.002930164E0
3.240646900E-1,9.095778465E0,5.984662473E-2,4.048418045E0
3.265045330E-1,9.198724747E0,5.984662473E-2,4.053205967E0
3.289435440E-1,9.191542625E0,6.224073470E-2,4.038841248E0
3.313826060E-1,9.246606827E0,2.872334421E-2,4.081935406E0
3.338224500E-1,9.246606827E0,6.463482976E-2,4.048418045E0
3.362622940E-1,9.220272064E0,5.984662473E-2,4.017294884E0
3.387013040E-1,9.138873100E0,5.745252967E-2,4.010112286E0
3.411403670E-1,9.083807945E0,1.675284654E-2,3.988565207E0
3.435802110E-1,8.954526901E0,-4.794038832E-3,3.990959406E0
3.460200540E-1,8.935373306E0,5.984662473E-2,4.046023846E0
3.484590650E-1,8.937767982E0,5.745252967E-2,4.172911167E0
3.508981270E-1,8.949738503E0,2.388253808E-3,4.170516491E0
3.533379190E-1,9.090991020E0,1.627928764E-1,4.175305367E0
3.557777630E-1,9.407011986E0,5.075431466E-1,4.213610649E0
3.582168250E-1,9.770915031E0,5.434545875E-1,4.196852207E0
3.606558360E-1,1.009411812E1,7.517411709E-1,4.182487011E0
3.630956790E-1,1.049872112E1,1.278442860E0,4.311768532E0
3.655355230E-1,1.093205166E1,1.723745227E0,4.553572655E0
3.679745330E-1,1.083868313E1,1.378994942E0,4.584696293E0
3.704135960E-1,1.038859177E1,7.182238102E-1,4.488932133E0
3.728534400E-1,9.921742439E0,2.537686229E-1,4.522449017E0
3.752932830E-1,9.471652031E0,-1.005579904E-1,4.510478497E0
3.777322940E-1,8.978467941E0,-3.663029373E-1,4.505690575E0
3.801713560E-1,8.583441734E0,-4.620669186E-1,4.565543175E0
3.826112000E-1,8.353608131E0,-4.716432691E-1,4.690036297E0
3.850510440E-1,8.279390335E0,-4.500963986E-1,4.785799980E0
3.874900540E-1,8.370367050E0,-3.112386763E-1,4.850440502E0
3.899291170E-1,8.485283852E0,-1.316812634E-1,4.807347298E0
3.923689080E-1,8.561894417E0,-1.197633147E-2,4.718765736E0
3.948087520E-1,8.509224892E0,-7.188133895E-3,4.541602135E0
3.972478150E-1,8.537953377E0,9.336401522E-2,4.350074291E0
3.996868770E-1,8.569076538E0,1.939161420E-1,4.163334846E0
4.021266690E-1,8.535559654E0,2.058866620E-1,3.890407085E0
4.045665130E-1,8.571471214E0,2.992565036E-1,3.730002403E0
4.070055230E-1,8.588230133E0,3.255915940E-1,3.605509520E0
4.094445860E-1,8.648081779E0,3.351680040E-1,3.497774839E0
4.118844290E-1,8.619352341E0,2.968623936E-1,3.481016159E0
4.143242730E-1,8.602593422E0,2.274335325E-1,3.466651678E0
4.167632830E-1,8.552317619E0,1.316695958E-1,3.495380640E0
4.192023460E-1,8.418249130E0,-9.582236409E-3,3.540868759E0
4.216421900E-1,8.272209167E0,-1.508340687E-1,3.698879242E0
4.240820330E-1,8.071104050E0,-2.872976959E-1,3.840131044E0
4.265210440E-1,7.941823006E0,-3.423619568E-1,3.935894966E0
4.289601060E-1,7.893941402E0,-3.303914666E-1,3.926318407E0
4.313998980E-1,7.846059322E0,-3.423619568E-1,3.830554724E0
4.338397420E-1,7.702413559E0,-4.070026278E-1,3.744366884E0
4.362788040E-1,7.520462036E0,-5.291016698E-1,3.691696882E0
4.387178670E-1,7.458215237E0,-5.913482308E-1,3.650997162E0
4.411576580E-1,7.558767796E0,-4.836137891E-1,3.646209002E0
4.435975020E-1,7.891547203E0,-2.729330957E-1,3.684514761E0
4.460365650E-1,8.262632370E0,-3.591732308E-2,3.775490522E0
4.484756270E-1,8.518800735E0,5.984662473E-2,3.837736845E0
4.509154190E-1,8.624140739E0,8.378760517E-2,3.904771805E0
4.533552630E-1,8.638505936E0,6.224073470E-2,4.005324364E0
4.557942730E-1,8.652870178E0,4.069383442E-2,4.110664368E0
4.582333360E-1,8.700751305E0,4.069383442E-2,4.206428051E0
4.606731790E-1,8.806093216E0,7.181712985E-2,4.254310131E0
4.631130230E-1,8.937767982E0,1.699751765E-1,4.299798012E0
4.655520330E-1,9.074232101E0,2.298276126E-1,4.299798012E0
4.679910960E-1,9.067049980E0,2.513745427E-1,4.323739052E0
4.704309400E-1,9.050291061E0,2.753155231E-1,4.369227409E0
4.728707830E-1,8.966496468E0,2.370099425E-1,4.376409054E0
4.753097940E-1,8.889885902E0,1.915220618E-1,4.357256889E0
4.777488560E-1,8.916220665E0,1.987043321E-1,4.364438534E0
4.801886480E-1,8.851580620E0,2.034925520E-1,4.354862690E0
4.826284920E-1,8.887492180E0,1.939161420E-1,4.326133251E0
4.850675540E-1,9.011984825E0,1.867338717E-1,4.251916409E0
4.875066170E-1,8.949738503E0,3.040446937E-1,4.170516491E0
4.899464080E-1,8.889885902E0,3.734735548E-1,4.113058567E0
4.923862520E-1,8.925797462E0,4.261437654E-1,3.998141527E0
4.948252630E-1,8.901856422E0,3.758676648E-1,3.902377605E0
4.972643250E-1,8.868338585E0,3.375620842E-1,3.801825523E0
4.997041690E-1,8.856369019E0,3.088329136E-1,3.730002403E0
5.021440130E-1,8.885097504E0,2.992565036E-1,3.701273203E0
5.045830230E-1,8.798910141E0,2.370099425E-1,3.761125803E0
5.070220860E-1,8.717511177E0,2.346158326E-1,3.835342646E0
5.094619290E-1,8.832427979E0,2.513745427E-1,3.861677885E0
5.119017730E-1,8.868338585E0,2.322217524E-1,3.895195246E0
5.143407830E-1,8.909038544E0,2.130689323E-1,3.876042366E0
5.167798460E-1,8.992832184E0,1.699751765E-1,3.902377605E0
5.192196900E-1,9.126901627E0,1.053344905E-1,3.895195246E0
5.216595330E-1,9.143660545E0,4.069383442E-2,3.890407085E0
5.240985440E-1,9.177177429E0,1.435874403E-2,3.945471525E0
5.265376060E-1,9.174783707E0,-1.915863156E-2,4.046023846E0
5.289774500E-1,9.174783707E0,-6.225240976E-2,4.122634888E0
5.314172940E-1,9.114932060E0,-6.464651227E-2,4.189669609E0
5.338563040E-1,9.040713310E0,-8.858749270E-2,4.237551689E0
5.362953670E-1,9.059866905E0,-7.182880491E-2,4.311768532E0
5.387351580E-1,9.079019547E0,-7.661700249E-2,4.371621132E0
5.411750020E-1,9.047896385E0,-9.337569773E-2,4.431473732E0
5.436140650E-1,9.011984825E0,-1.005579904E-1,4.505690575E0
5.460531270E-1,8.959314346E0,-7.901109755E-2,4.486537457E0
5.484929190E-1,8.827639580E0,-1.005579904E-1,4.450626373E0
5.509327630E-1,8.791728020E0,-6.704060733E-2,4.419503212E0
5.533718250E-1,8.767786980E0,-5.746421218E-2,4.374015331E0
5.558108880E-1,8.700751305E0,-7.901109755E-2,4.326133251E0
5.582506790E-1,8.722298622E0,-7.422290742E-2,4.249522209E0
5.606905230E-1,8.748633385E0,-1.197107807E-1,4.216004848E0
5.631295330E-1,8.760604858E0,-1.580163538E-1,4.151364326E0
5.655685960E-1,8.815669060E0,-1.675927490E-1,4.113058567E0
5.680084400E-1,8.858762741E0,-1.604104638E-1,4.113058567E0
5.704482830E-1,8.830033302E0,-1.604104638E-1,4.024477005E0
5.728872940E-1,8.839610100E0,-1.460458636E-1,3.993353605E0
5.753263560E-1,8.858762741E0,-1.580163538E-1,3.957442045E0
5.777662000E-1,9.141266823E0,-5.746421218E-2,3.885618925E0
5.802060440E-1,9.313641548E0,-4.794038832E-3,3.734790802E0
5.826450540E-1,9.086201668E0,-6.704060733E-2,3.689302683E0
5.850841170E-1,8.877915382E0,-1.364694685E-1,3.770702124E0
5.875239610E-1,8.772574425E0,-2.130806297E-1,3.787461042E0
5.899638040E-1,8.760604858E0,-2.250511348E-1,3.737184763E0
5.924028150E-1,8.782152176E0,-2.777212858E-1,3.751549482E0
5.948418770E-1,8.865944862E0,-2.872976959E-1,3.890407085E0
5.972816690E-1,8.904251099E0,-2.920858860E-1,3.931106806E0
5.997215130E-1,8.923403740E0,-3.136327863E-1,4.012506485E0
6.021605750E-1,8.918614388E0,-3.160268664E-1,4.110664368E0
6.045996380E-1,8.968891144E0,-2.872976959E-1,4.170516491E0
6.070394290E-1,8.918614388E0,-2.561744153E-1,4.204034328E0
6.094792730E-1,8.952133179E0,-2.609626055E-1,4.232763767E0
6.119182830E-1,9.002408981E0,-2.609626055E-1,4.220793247E0
6.143573460E-1,8.980861664E0,-2.609626055E-1,4.165728569E0
6.167971900E-1,9.002408981E0,-2.681449056E-1,4.134605408E0
6.192370330E-1,9.052684784E0,-2.729330957E-1,4.120240688E0
6.216760440E-1,9.035925865E0,-2.968740761E-1,4.091511726E0
6.241151060E-1,9.057473183E0,-3.256032467E-1,4.079541206E0
6.265549500E-1,9.083807945E0,-3.495442569E-1,4.067570686E0
6.289947940E-1,9.052684784E0,-3.663029373E-1,4.050811768E0
6.314338040E-1,9.059866905E0,-3.902439475E-1,4.026870728E0
6.338728670E-1,9.011984825E0,-3.734852672E-1,4.065176487E0
6.363127110E-1,9.021561623E0,-4.429140985E-1,4.019688606E0
6.387525540E-1,8.973679543E0,-4.237613082E-1,3.978988886E0
6.411915650E-1,8.940161705E0,-4.453082085E-1,4.002930164E0
6.436306270E-1,8.942555428E0,-4.716432691E-1,4.007718086E0
6.460704710E-1,8.877915382E0,-4.788255990E-1,4.048418045E0
6.485103150E-1,8.865944862E0,-4.931901991E-1,4.060388565E0
6.509493250E-1,8.827639580E0,-4.884020090E-1,4.038841248E0
6.533883880E-1,8.818062782E0,-4.812196791E-1,4.048418045E0
6.558282310E-1,8.786939621E0,-4.884020090E-1,4.081935406E0
6.582680750E-1,8.751029015E0,-4.740374088E-1,4.091511726E0
6.607070860E-1,8.715116501E0,-4.620669186E-1,4.105875969E0
6.631461480E-1,8.695963860E0,-4.237613082E-1,4.125029087E0
6.655859400E-1,8.672022820E0,-4.165790379E-1,4.156152248E0
6.680257830E-1,8.688781738E0,-4.117908180E-1,4.199246407E0
6.704648460E-1,8.664840698E0,-4.357318282E-1,4.201640129E0
6.729039080E-1,8.643293381E0,-4.189731181E-1,4.237551689E0
6.753437000E-1,8.616958618E0,-4.548845887E-1,4.256704807E0
6.777835440E-1,8.573864937E0,-4.644609988E-1,4.314162731E0
6.802226060E-1,8.518800735E0,-4.309436381E-1,4.390774250E0
6.826616690E-1,8.480494499E0,-4.405199885E-1,4.445837975E0
6.851014610E-1,8.437401772E0,-4.500963986E-1,4.472173214E0
6.875413040E-1,8.430218697E0,-4.309436381E-1,4.493720055E0
6.899803150E-1,8.437401772E0,-4.261554182E-1,4.522449017E0
6.924193770E-1,8.399095535E0,-4.093967080E-1,4.524843693E0
6.948592210E-1,8.377549171E0,-3.854557574E-1,4.529631615E0
6.972990650E-1,8.348819733E0,-3.447560668E-1,4.505690575E0
6.997380750E-1,8.356001854E0,-2.585684955E-1,4.539208412E0
7.021771380E-1,8.394308090E0,-2.465980202E-1,4.670883656E0
7.046169810E-1,8.430218697E0,-1.987160444E-1,4.852835178E0
7.070568250E-1,8.425430298E0,-1.604104638E-1,4.946204662E0
7.094958360E-1,8.456553459E0,-1.771691442E-1,4.994086742E0
7.119348980E-1,8.461342812E0,-1.197107807E-1,5.073091984E0
7.143747420E-1,8.444583893E0,-6.464651227E-2,5.118580341E0
7.168145860E-1,8.451766014E0,-3.831142560E-2,5.166461945E0
7.192535960E-1,8.458948135E0,1.435874403E-2,5.180826664E0
7.216926580E-1,8.449371338E0,5.027022958E-2,5.207161903E0
7.241325020E-1,8.492465973E0,8.378760517E-2,5.219131947E0
7.265723460E-1,8.564289093E0,1.125167906E-1,5.223920345E0
7.290113560E-1,8.590623856E0,1.771574616E-1,5.235890865E0
7.314504190E-1,8.640899658E0,2.394040227E-1,5.223920345E0
7.338902630E-1,8.679205894E0,2.753155231E-1,5.209555626E0
7.363301060E-1,8.691175461E0,3.112269938E-1,5.168856144E0
7.387691170E-1,8.734270096E0,3.471384645E-1,5.104215145E0
7.412081790E-1,8.762998581E0,4.022027552E-1,5.051545143E0
7.436480230E-1,8.748633385E0,4.237496257E-1,4.977328300E0
7.460878670E-1,8.784545898E0,4.333260059E-1,4.912687778E0
7.485268770E-1,8.784545898E0,4.931784868E-1,4.869593620E0
7.509659400E-1,8.839610100E0,4.907843471E-1,4.831288338E0
7.534057310E-1,8.851580620E0,4.931784868E-1,4.792982578E0
7.558455750E-1,8.889885902E0,5.171195269E-1,4.781012058E0
7.582846380E-1,8.894673347E0,4.859961867E-1,4.771435738E0
7.607237000E-1,8.889885902E0,4.788139462E-1,4.745100498E0
7.631634920E-1,8.909038544E0,4.788139462E-1,4.723553658E0
7.656033360E-1,8.904251099E0,4.836021066E-1,4.682854176E0
7.680423980E-1,8.880310059E0,4.859961867E-1,4.675671577E0
7.704814610E-1,8.861156464E0,4.596611261E-1,4.682854176E0
7.729212520E-1,8.837215424E0,4.237496257E-1,4.654124737E0
7.753610960E-1,8.844397545E0,4.237496257E-1,4.639760017E0
7.778001060E-1,8.842003822E0,3.998086452E-1,4.567937374E0
7.802391690E-1,8.873127937E0,3.950204551E-1,4.560755253E0
7.826790130E-1,8.861156464E0,3.902322352E-1,4.558360577E0
7.851188560E-1,8.887492180E0,4.429024458E-1,4.515267372E0
7.875578670E-1,8.904251099E0,4.429024458E-1,4.500902653E0
7.899969290E-1,8.894673347E0,4.069909453E-1,4.505690575E0
7.924367730E-1,8.911433220E0,3.591089547E-1,4.474567413E0
7.948766170E-1,8.911433220E0,2.992565036E-1,4.457808495E0
7.973156270E-1,8.940161705E0,2.274335325E-1,4.467385292E0
7.997546900E-1,8.954526901E0,1.891279519E-1,4.436261654E0
8.021945330E-1,8.976074219E0,1.987043321E-1,4.397956371E0
8.046343770E-1,9.000014305E0,1.603987813E-1,4.378803730E0
8.070733880E-1,9.035925865E0,1.125167906E-1,4.316556454E0
8.095124500E-1,9.138873100E0,6.224073470E-2,4.318951130E0
8.119522940E-1,9.160418510E0,-3.352322429E-2,4.271069050E0
8.143921380E-1,9.167601585E0,-4.549372196E-2,4.256704807E0
8.168311480E-1,9.158024788E0,-1.197107807E-1,4.230369091E0
8.192702110E-1,9.114932060E0,-1.101343855E-1,4.223186970E0
8.217100540E-1,9.086201668E0,-1.364694685E-1,4.208822727E0
8.241498980E-1,9.069443703E0,-1.149225831E-1,4.153758049E0
8.265889080E-1,9.090991020E0,-7.182880491E-2,4.065176487E0
8.290279710E-1,9.141266823E0,-4.549372196E-2,3.998141527E0
8.314678150E-1,9.158024788E0,2.393514663E-2,3.923924446E0
8.339076580E-1,9.220272064E0,8.139351010E-2,3.899983406E0
8.363466690E-1,9.263365746E0,6.702892482E-2,3.904771805E0
8.387857310E-1,9.292095184E0,1.340636909E-1,3.938288927E0
8.412255230E-1,9.287306786E0,2.226453424E-1,3.988565207E0
8.436653670E-1,9.237030983E0,3.160151839E-1,4.029264927E0
8.461044290E-1,9.174783707E0,3.710794747E-1,4.026870728E0
8.485434920E-1,9.090991020E0,3.974145651E-1,4.017294884E0
8.509832830E-1,9.086201668E0,3.782617450E-1,4.029264927E0
8.534231270E-1,9.079019547E0,3.686853647E-1,4.029264927E0
8.558621900E-1,9.093384743E0,3.255915940E-1,3.986171007E0
8.583012520E-1,9.014378548E0,2.657391131E-1,3.938288927E0
8.607410440E-1,9.021561623E0,2.513745427E-1,3.902377605E0
8.631808880E-1,9.076625824E0,2.298276126E-1,3.859283686E0
8.656199500E-1,9.098173141E0,2.657391131E-1,3.823372364E0
8.680590130E-1,9.090991020E0,2.561627030E-1,3.842525244E0
8.704988040E-1,9.062260628E0,2.657391131E-1,3.828160524E0
8.729386480E-1,9.021561623E0,2.513745427E-1,3.792248964E0
8.753776580E-1,8.956920624E0,2.561627030E-1,3.722820282E0
8.778167210E-1,8.923403740E0,2.034925520E-1,3.648603201E0
8.802565650E-1,8.923403740E0,2.274335325E-1,3.581568480E0
8.826964080E-1,8.940161705E0,2.154630721E-1,3.514533758E0
8.851354190E-1,8.966496468E0,2.250394225E-1,3.421163797E0
8.875744810E-1,8.980861664E0,2.274335325E-1,3.356523037E0
8.900143250E-1,8.944951057E0,2.370099425E-1,3.303853035E0
8.924541690E-1,8.947344780E0,2.705273032E-1,3.275123596E0
8.948931790E-1,8.932979584E0,2.681332231E-1,3.260759115E0
8.973322420E-1,8.942555428E0,2.417981327E-1,3.236818075E0
8.997720860E-1,8.956920624E0,2.896800935E-1,3.239212275E0
9.022119290E-1,8.973679543E0,3.112269938E-1,3.263153076E0
9.046509400E-1,9.007196426E0,3.327738643E-1,3.289488077E0
9.070900020E-1,9.011984825E0,3.519266844E-1,3.287094116E0
9.095298460E-1,9.035925865E0,3.758676648E-1,3.308641195E0
9.119696900E-1,9.038319588E0,3.830499649E-1,3.325399637E0
9.144087000E-1,9.040713310E0,4.285378456E-1,3.330188036E0
9.168477630E-1,9.050291061E0,4.572669864E-1,3.303853035E0
9.192876060E-1,9.076625824E0,4.716316462E-1,3.294276476E0
9.217274500E-1,9.107748985E0,4.931784868E-1,3.296670675E0
9.241664610E-1,9.129295349E0,5.027548671E-1,3.270335436E0
9.266055230E-1,9.169995308E0,4.859961867E-1,3.265547276E0
9.290453670E-1,9.179572105E0,4.692375064E-1,3.265547276E0
9.314852110E-1,9.155631065E0,4.141732454E-1,3.239212275E0
9.339242210E-1,9.141266823E0,3.806558847E-1,3.222453356E0
9.363632830E-1,9.136477470E0,3.758676648E-1,3.232029915E0
9.388031270E-1,9.117325783E0,3.327738643E-1,3.239212275E0
9.412429710E-1,9.105354309E0,3.064388037E-1,3.248788595E0
9.436819810E-1,9.112536430E0,2.657391131E-1,3.258364916E0
9.461210440E-1,9.100566864E0,2.633450329E-1,3.244000435E0
9.485608360E-1,9.086201668E0,2.417981327E-1,3.272729635E0
9.510006790E-1,9.088595390E0,2.346158326E-1,3.277517796E0
9.534397420E-1,9.055078506E0,2.202512622E-1,3.294276476E0
9.558788040E-1,9.062260628E0,1.867338717E-1,3.282305956E0
9.583186480E-1,9.067049980E0,1.915220618E-1,3.282305956E0
9.607584920E-1,9.059866905E0,1.747633815E-1,3.255970955E0
9.631975020E-1,9.047896385E0,1.508223712E-1,3.236818075E0
9.656365650E-1,9.057473183E0,1.484282762E-1,3.234423876E0
9.680763560E-1,9.062260628E0,1.196990907E-1,3.210482836E0
9.705162000E-1,9.083807945E0,1.532164812E-1,3.220059395E0
9.729552630E-1,9.088595390E0,1.460341811E-1,3.227241755E0
9.753943250E-1,9.090991020E0,1.532164812E-1,3.227241755E0
9.778341170E-1,9.105354309E0,1.651869714E-1,3.260759115E0
9.802739610E-1,9.098173141E0,1.819456816E-1,3.275123596E0
9.827130230E-1,9.143660545E0,1.915220618E-1,3.284700155E0
9.851520860E-1,9.117325783E0,2.106748521E-1,3.284700155E0
9.875918770E-1,9.167601585E0,2.106748521E-1,3.303853035E0
9.900317210E-1,9.191542625E0,2.298276126E-1,3.313429117E0
9.924707830E-1,9.213089943E0,2.513745427E-1,3.323005676E0
9.949098460E-1,9.239424706E0,2.585568130E-1,3.323005676E0
9.973496380E-1,9.263365746E0,2.753155231E-1,3.337370157E0
9.997894810E-1,9.277729988E0,3.303797841E-1,3.318217516E0
1.002228544E0,9.299276352E0,3.543207645E-1,3.296670675E0
1.004667606E0,9.301671028E0,3.782617450E-1,3.294276476E0
1.007107398E0,9.313641548E0,4.189614356E-1,3.277517796E0
1.009547242E0,9.308854103E0,4.189614356E-1,3.258364916E0
1.011986304E0,9.316036224E0,4.500847459E-1,3.251182795E0
1.014425367E0,9.316036224E0,4.668434262E-1,3.246394396E0
1.016865158E0,9.337582588E0,4.955726266E-1,3.248788595E0
1.019305002E0,9.332795143E0,5.051490068E-1,3.239212275E0
1.021744065E0,9.318429947E0,5.314840674E-1,3.251182795E0
1.024183127E0,9.284913063E0,5.362722278E-1,3.275123596E0
1.026622919E0,9.277729988E0,5.482427478E-1,3.289488077E0
1.029062763E0,9.256182671E0,5.817601085E-1,3.306246996E0
1.031501773E0,9.237030983E0,6.152775884E-1,3.315823555E0
1.033940836E0,9.203513145E0,6.535831094E-1,3.342158556E0
1.036380679E0,9.174783707E0,6.942828298E-1,3.366099358E0
1.038820523E0,9.174783707E0,7.469530106E-1,3.370887756E0
1.041259533E0,9.181965828E0,7.948349118E-1,3.385252237E0
1.043698596E0,9.153236389E0,8.259582520E-1,3.397222757E0
1.046138440E0,9.155631065E0,8.451110125E-1,3.413981438E0
1.048578283E0,9.119719505E0,8.953870535E-1,3.418769598E0
1.051017294E0,9.105354309E0,9.480572939E-1,3.435528517E0
1.053456356E0,9.100566864E0,9.911509752E-1,3.437922478E0
1.055896200E0,9.086201668E0,1.015092015E0,3.483410120E0
1.058336044E0,9.074232101E0,1.053397655E0,3.473834038E0
1.060775054E0,9.067049980E0,1.074944496E0,3.476227999E0
1.063214117E0,9.050291061E0,1.115644097E0,3.512139559E0
1.065653961E0,9.014378548E0,1.122826457E0,3.548050880E0
1.068093804E0,9.011984825E0,1.139585137E0,3.555233240E0
1.070532815E0,8.992832184E0,1.168314338E0,3.598326921E0
1.072971877E0,8.983255386E0,1.173102498E0,3.600721121E0
1.075411721E0,8.961709023E0,1.173102498E0,3.627056122E0
1.077851565E0,8.952133179E0,1.141979218E0,3.646209002E0
1.080290575E0,8.947344780E0,1.110856056E0,3.643815041E0
1.082729638E0,8.959314346E0,1.077338576E0,3.679726362E0
1.085169481E0,8.952133179E0,1.051003456E0,3.662967682E0
1.087609325E0,8.952133179E0,9.815746546E-1,3.698879242E0
1.090048336E0,8.956920624E0,9.600276947E-1,3.720426083E0
1.092487398E0,8.985650063E0,8.762342930E-1,3.720426083E0
1.094927242E0,9.026350021E0,8.068054318E-1,3.746761084E0
1.097367086E0,9.067049980E0,7.254060507E-1,3.761125803E0
1.099806096E0,9.134083748E0,6.679477096E-1,3.734790802E0
1.102245158E0,9.162813187E0,5.841542482E-1,3.749155283E0
1.104685002E0,9.210694313E0,5.123313069E-1,3.730002403E0
1.107124846E0,9.239424706E0,4.165673554E-1,3.718031883E0
1.109563856E0,9.260972023E0,3.686853647E-1,3.689302683E0
1.112002919E0,9.299276352E0,3.160151839E-1,3.662967682E0
1.114442763E0,9.337582588E0,2.537686229E-1,3.634238482E0
1.116882606E0,9.335188866E0,1.963102520E-1,3.603115082E0
1.119321617E0,9.363917351E0,1.603987813E-1,3.598326921E0
1.121760679E0,9.368705750E0,1.125167906E-1,3.603115082E0
1.124200523E0,9.335188866E0,7.421121001E-2,3.603115082E0
1.126640367E0,9.339976311E0,6.224073470E-2,3.588750601E0
1.129079377E0,9.299276352E0,5.505843461E-2,3.588750601E0
1.131518440E0,9.304064751E0,2.393514663E-2,3.538474798E0
1.133958283E0,9.249000549E0,2.632924914E-2,3.574385881E0
1.136398127E0,9.227454185E0,2.388253808E-3,3.543262720E0
1.138837138E0,9.186754227E0,1.196465641E-2,3.540868759E0
1.141276200E0,9.126901627E0,-1.915863156E-2,3.531292200E0
1.143716044E0,9.095778465E0,-2.399936318E-3,3.521715879E0
1.146155888E0,9.067049980E0,-9.582236409E-3,3.492986679E0
1.148594898E0,9.064654350E0,-2.634092793E-2,3.473834038E0
1.151033961E0,9.040713310E0,-2.394682914E-2,3.454681158E0
1.153473804E0,9.023955345E0,-9.582236409E-3,3.442710638E0
1.155913648E0,9.016773224E0,3.111743927E-2,3.409193277E0
1.158352658E0,9.014378548E0,3.590563685E-2,3.418769598E0
1.160791721E0,8.997620583E0,7.660530508E-2,3.380463839E0
1.163231565E0,9.031137466E0,7.660530508E-2,3.349340677E0
1.165671408E0,9.023955345E0,1.340636909E-1,3.327793837E0
1.168110419E0,9.052684784E0,1.699751765E-1,3.344552755E0
1.170549481E0,9.069443703E0,2.202512622E-1,3.323005676E0
1.172989325E0,9.119719505E0,2.633450329E-1,3.313429117E0
1.175429169E0,9.167601585E0,3.040446937E-1,3.320611715E0
1.177868179E0,9.172389984E0,3.615030646E-1,3.327793837E0
1.180307242E0,9.177177429E0,3.902322352E-1,3.303853035E0
1.182747086E0,9.213089943E0,3.950204551E-1,3.291882515E0
1.185186929E0,9.227454185E0,4.022027552E-1,3.289488077E0
1.187625940E0,9.239424706E0,4.333260059E-1,3.260759115E0
1.190065002E0,9.270547867E0,4.620552063E-1,3.251182795E0
1.192504846E0,9.287306786E0,4.859961867E-1,3.224847794E0
1.194944690E0,9.260972023E0,4.859961867E-1,3.222453356E0
1.197383700E0,9.275335312E0,4.572669864E-1,3.188936234E0
1.199822763E0,9.270547867E0,4.788139462E-1,3.203300714E0
1.202262606E0,9.275335312E0,5.003607869E-1,3.176965714E0
1.204702450E0,9.268154144E0,5.195135474E-1,3.191330194E0
1.207141461E0,9.268154144E0,5.243018270E-1,3.172177553E0
1.209580523E0,9.268154144E0,5.314840674E-1,3.184147835E0
1.212020367E0,9.256182671E0,5.266958475E-1,3.186542034E0
1.214460211E0,9.260972023E0,5.243018270E-1,3.172177553E0
1.216899221E0,9.253788948E0,5.123313069E-1,3.186542034E0
1.219338283E0,9.253788948E0,4.955726266E-1,3.184147835E0
1.221778127E0,9.249000549E0,4.596611261E-1,3.198512554E0
1.224217971E0,9.253788948E0,4.357201457E-1,3.196118355E0
1.226656981E0,9.237030983E0,3.638971448E-1,3.200906754E0
1.229096044E0,9.249000549E0,3.638971448E-1,3.212877274E0
1.231535888E0,9.258576393E0,3.255915940E-1,3.232029915E0
1.233975731E0,9.260972023E0,2.920742035E-1,3.212877274E0
1.236414742E0,9.249000549E0,2.657391131E-1,3.220059395E0
1.238853804E0,9.301671028E0,2.681332231E-1,3.208088875E0
1.241293648E0,9.311247826E0,2.537686229E-1,3.191330194E0
1.243733492E0,9.306458473E0,2.441922128E-1,3.191330194E0
1.246172502E0,9.328005791E0,2.274335325E-1,3.198512554E0
1.248611565E0,9.349553108E0,1.963102520E-1,3.217665434E0
1.251051408E0,9.373494148E0,1.891279519E-1,3.198512554E0
1.253491252E0,9.378281593E0,1.627928764E-1,3.191330194E0
1.255930263E0,9.395040512E0,1.292755008E-1,3.215271235E0
1.258369325E0,9.399828911E0,1.173049957E-1,3.227241755E0
1.260809169E0,9.409405708E0,1.244872957E-1,3.241606474E0
1.263249013E0,9.426163673E0,7.899941504E-2,3.258364916E0
1.265688023E0,9.433346748E0,6.463482976E-2,3.258364916E0
1.268127086E0,9.457287788E0,2.632924914E-2,3.265547276E0
1.270566877E0,9.464469910E0,-5.848705769E-6,3.265547276E0
1.273006721E0,9.483622551E0,-1.676453277E-2,3.251182795E0
1.275445783E0,9.483622551E0,-3.831142560E-2,3.270335436E0
1.277884846E0,9.476439476E0,-5.746421218E-2,3.277517796E0
1.280324638E0,9.502776146E0,-5.028191581E-2,3.275123596E0
1.282764481E0,9.493198395E0,-3.831142560E-2,3.277517796E0
1.285203544E0,9.471652031E0,-3.112912923E-2,3.294276476E0
1.287642606E0,9.490804672E0,-1.676453277E-2,3.296670675E0
1.290082450E0,9.466863632E0,-5.848705769E-6,3.277517796E0
1.292522294E0,9.430953026E0,2.872334421E-2,3.277517796E0
1.294961304E0,9.423769951E0,6.463482976E-2,3.303853035E0
1.297400367E0,9.392646790E0,7.899941504E-2,3.296670675E0
1.299840158E0,9.373494148E0,9.575811028E-2,3.306246996E0
1.302280002E0,9.339976311E0,1.220932007E-1,3.306246996E0
1.304719065E0,9.337582588E0,1.556105763E-1,3.323005676E0
1.307158127E0,9.294488907E0,1.603987813E-1,3.320611715E0
1.309597971E0,9.246606827E0,1.795515716E-1,3.299064636E0
1.312037815E0,9.239424706E0,2.106748521E-1,3.282305956E0
1.314476825E0,9.210694313E0,2.274335325E-1,3.260759115E0
1.316915888E0,9.181965828E0,2.753155231E-1,3.236818075E0
1.319355679E0,9.143660545E0,2.657391131E-1,3.232029915E0
1.321795523E0,9.110142708E0,2.896800935E-1,3.167389154E0
1.324234586E0,9.098173141E0,2.920742035E-1,3.160207033E0
1.326673648E0,9.102960587E0,3.040446937E-1,3.136265993E0
1.329113440E0,9.093384743E0,3.016505837E-1,3.124295473E0
1.331553283E0,9.064654350E0,3.184092641E-1,3.100354433E0
1.333992346E0,9.069443703E0,3.279856741E-1,3.095566273E0
1.336431408E0,9.074232101E0,3.279856741E-1,3.097960472E0
1.338871200E0,9.076625824E0,3.399561942E-1,3.085989952E0
1.341311044E0,9.086201668E0,3.615030646E-1,3.023743391E0
1.343750106E0,9.102960587E0,3.638971448E-1,3.016561031E0
1.346189169E0,9.131690025E0,3.495325744E-1,2.997408152E0
1.348628961E0,9.131690025E0,3.854440749E-1,2.954314470E0
1.351068804E0,9.165207863E0,3.878381550E-1,2.918402910E0
1.353507867E0,9.210694313E0,3.615030646E-1,2.925585270E0
1.355946929E0,9.225059509E0,3.255915940E-1,2.920797110E0
1.358386721E0,9.258576393E0,3.136211038E-1,2.904038429E0
1.360826565E0,9.277729988E0,3.064388037E-1,2.918402910E0
1.363265627E0,9.304064751E0,3.112269938E-1,2.892067909E0
1.365704690E0,9.342370987E0,3.064388037E-1,2.916008949E0
1.368144533E0,9.366312027E0,2.920742035E-1,2.920797110E0
1.370584377E0,9.385464668E0,2.992565036E-1,2.927979469E0
1.373023388E0,9.397435188E0,3.112269938E-1,2.942343950E0
1.375462450E0,9.409405708E0,2.968623936E-1,2.980649471E0
1.377902294E0,9.423769951E0,2.370099425E-1,3.004590511E0
1.380342138E0,9.442922592E0,2.154630721E-1,3.038107872E0
1.382781148E0,9.474045753E0,1.603987813E-1,3.038107872E0
1.385220211E0,9.507563591E0,1.173049957E-1,3.059654951E0
1.387660054E0,9.533898354E0,7.421121001E-2,3.045290232E0
1.390099898E0,9.545868874E0,7.421121001E-2,3.030925751E0
1.392538908E0,9.529110909E0,5.984662473E-2,2.997408152E0
1.394977971E0,9.500380516E0,4.787612706E-2,2.990226030E0
1.397417815E0,9.469257355E0,6.224073470E-2,2.966284990E0
1.399857658E0,9.457287788E0,4.787612706E-2,2.927979469E0
1.402296669E0,9.426163673E0,2.393514663E-2,2.942343950E0
1.404735731E0,9.426163673E0,1.196465641E-2,2.923191309E0
1.407175575E0,9.407011986E0,-2.399936318E-3,2.932767630E0
1.409615419E0,9.361523628E0,1.435874403E-2,2.954314470E0
1.412054429E0,9.349553108E0,1.914694905E-2,2.978255510E0
1.414493492E0,9.296882629E0,4.548203945E-2,3.009378672E0
1.416933336E0,9.280123711E0,8.378760517E-2,3.021349192E0
1.419373179E0,9.249000549E0,8.618171513E-2,3.066837311E0
1.421812190E0,9.201118469E0,1.149109006E-1,3.074019432E0
1.424251252E0,9.150842667E0,1.364577860E-1,3.076413393E0
1.426691044E0,9.126901627E0,1.029404104E-1,3.095566273E0
1.429130888E0,9.114932060E0,1.532164812E-1,3.119507074E0
1.431569950E0,9.153236389E0,1.843397617E-1,3.174571514E0
1.434009013E0,9.172389984E0,2.633450329E-1,3.193724394E0
1.436448856E0,9.205906868E0,2.657391131E-1,3.200906754E0
1.438888700E0,9.186754227E0,2.681332231E-1,3.217665434E0
1.441327711E0,9.167601585E0,2.394040227E-1,3.205694914E0
1.443766773E0,9.150842667E0,2.154630721E-1,3.193724394E0
1.446206617E0,9.167601585E0,1.771574616E-1,3.188936234E0
1.448646461E0,9.225059509E0,1.675810814E-1,3.186542034E0
1.451085471E0,9.308854103E0,1.196990907E-1,3.184147835E0
1.453524533E0,9.392646790E0,1.603987813E-1,3.220059395E0
1.455964377E0,9.428557396E0,2.465863526E-1,3.258364916E0
1.458404221E0,9.462076187E0,3.088329136E-1,3.303853035E0
1.460843231E0,9.447710991E0,3.423502743E-1,3.346946716E0
1.463282294E0,9.414194107E0,4.069909453E-1,3.366099358E0
1.465722138E0,9.402222633E0,4.213555157E-1,3.404404879E0
1.468161981E0,9.433346748E0,3.854440749E-1,3.413981438E0
1.470600992E0,9.418981552E0,3.782617450E-1,3.442710638E0
1.473040054E0,9.414194107E0,4.285378456E-1,3.488198519E0
1.475479898E0,9.433346748E0,4.836021066E-1,3.509745359E0
1.477919742E0,9.469257355E0,5.338782072E-1,3.526504278E0
1.480358752E0,9.464469910E0,5.530309677E-1,3.603115082E0
1.482797815E0,9.490804672E0,5.985188484E-1,3.643815041E0
1.485237658E0,9.514745712E0,6.464008093E-1,3.665361643E0
1.487677502E0,9.524321556E0,6.559771895E-1,3.686908722E0
1.490116513E0,9.536293030E0,6.775241494E-1,3.689302683E0
1.492555575E0,9.519534111E0,6.679477096E-1,3.689302683E0
1.494995419E0,9.538686752E0,6.176716089E-1,3.672544241E0
1.497435263E0,9.521927834E0,5.985188484E-1,3.643815041E0
1.499874273E0,9.521927834E0,6.033070683E-1,3.624662161E0
1.502313336E0,9.481228828E0,5.626073480E-1,3.603115082E0
1.504753179E0,9.452498436E0,5.458486676E-1,3.595932961E0
1.507193023E0,9.466863632E0,5.266958475E-1,3.605509520E0
1.509632033E0,9.474045753E0,4.716316462E-1,3.607903481E0
1.512071096E0,9.442922592E0,4.357201457E-1,3.576780081E0
1.514510940E0,9.442922592E0,3.950204551E-1,3.574385881E0
1.516950783E0,9.392646790E0,3.830499649E-1,3.557627439E0
1.519389794E0,9.397435188E0,3.495325744E-1,3.543262720E0
1.521828856E0,9.351946831E0,3.231974840E-1,3.521715879E0
1.524268700E0,9.292095184E0,3.016505837E-1,3.509745359E0
1.526708544E0,9.263365746E0,2.848919034E-1,3.488198519E0
1.529147554E0,9.227454185E0,2.417981327E-1,3.440316439E0
1.531586617E0,9.193936348E0,2.106748521E-1,3.413981438E0
1.534026461E0,9.119719505E0,1.675810814E-1,3.385252237E0
1.536466304E0,9.100566864E0,1.220932007E-1,3.354128838E0
1.538905315E0,9.057473183E0,9.096990526E-2,3.344552755E0
1.541344377E0,9.047896385E0,1.914694905E-2,3.303853035E0
1.543784221E0,9.040713310E0,-4.794038832E-3,3.315823555E0
1.546224065E0,9.004802704E0,-5.028191581E-2,3.277517796E0
1.548663075E0,8.978467941E0,-1.053461879E-1,3.277517796E0
1.551102138E0,8.930585861E0,-1.436517686E-1,3.277517796E0
1.553541981E0,8.909038544E0,-1.867455393E-1,3.248788595E0
1.555981825E0,8.906644821E0,-2.322334200E-1,3.236818075E0
1.558420836E0,8.870732307E0,-2.729330957E-1,3.227241755E0
1.560859898E0,8.837215424E0,-3.375737667E-1,3.203300714E0
1.563299742E0,8.820456505E0,-3.591206670E-1,3.176965714E0
1.565739586E0,8.820456505E0,-3.902439475E-1,3.143448114E0
1.568178596E0,8.798910141E0,-3.974262178E-1,3.133872032E0
1.570617658E0,8.791728020E0,-4.333377182E-1,3.119507074E0
1.573057502E0,8.777363777E0,-4.357318282E-1,3.085989952E0
1.575497346E0,8.772574425E0,-4.620669186E-1,3.090778112E0
1.577936356E0,8.791728020E0,-4.740374088E-1,3.102748632E0
1.580375419E0,8.801304817E0,-4.812196791E-1,3.107536793E0
1.582815263E0,8.832427979E0,-4.836137891E-1,3.105142593E0
1.585255106E0,8.868338585E0,-4.812196791E-1,3.160207033E0
1.587694117E0,8.913826942E0,-4.644609988E-1,3.172177553E0
1.590133179E0,8.942555428E0,-4.572786987E-1,3.222453356E0
1.592573023E0,9.009591103E0,-4.668551087E-1,3.248788595E0
1.595012867E0,9.031137466E0,-4.285495281E-1,3.272729635E0
1.597451877E0,9.069443703E0,-4.022144377E-1,3.315823555E0
1.599890940E0,9.124507904E0,-3.902439475E-1,3.342158556E0
1.602330783E0,9.162813187E0,-3.782734275E-1,3.375675917E0
1.604770627E0,9.193936348E0,-3.519383371E-1,3.382858276E0
1.607209638E0,9.234635353E0,-3.351796865E-1,3.406799078E0
1.609648700E0,9.246606827E0,-3.160268664E-1,3.399616957E0
1.612088544E0,9.316036224E0,-3.040563762E-1,3.423557997E0
1.614528388E0,9.349553108E0,-2.872976959E-1,3.428345919E0
1.616967398E0,9.371099472E0,-2.801153958E-1,3.454681158E0
1.619406461E0,9.407011986E0,-2.465980202E-1,3.457075119E0
1.621846304E0,9.421376228E0,-2.513862252E-1,3.449892998E0
1.624286148E0,9.430953026E0,-2.370216101E-1,3.459469080E0
1.626725158E0,9.430953026E0,-1.675927490E-1,3.447498798E0
1.629164221E0,9.423769951E0,-1.292871833E-1,3.447498798E0
1.631604065E0,9.440528870E0,-1.101343855E-1,3.435528517E0
1.634043908E0,9.447710991E0,-7.661700249E-2,3.459469080E0
1.636482919E0,9.433346748E0,-6.704060733E-2,3.433134079E0
1.638921981E0,9.457287788E0,-4.788781703E-2,3.430740118E0
1.641361825E0,9.447710991E0,-1.437043771E-2,3.433134079E0
1.643801669E0,9.454894066E0,-2.399936318E-3,3.466651678E0
1.646240679E0,9.466863632E0,1.914694905E-2,3.473834038E0
1.648679742E0,9.430953026E0,2.154104412E-2,3.483410120E0
1.651119586E0,9.447710991E0,4.069383442E-2,3.481016159E0
1.653559429E0,9.457287788E0,5.745252967E-2,3.473834038E0
1.655998440E0,9.471652031E0,8.618171513E-2,3.471439600E0
1.658437502E0,9.442922592E0,8.857581019E-2,3.437922478E0
1.660877346E0,9.450104713E0,8.378760517E-2,3.416375399E0
1.663317190E0,9.438135147E0,1.149109006E-1,3.409193277E0
1.665756252E0,9.469257355E0,1.436400712E-1,3.409193277E0
1.668195263E0,9.469257355E0,1.675810814E-1,3.394828796E0
1.670635106E0,9.457287788E0,1.867338717E-1,3.368493557E0
1.673074950E0,9.435740471E0,2.346158326E-1,3.320611715E0
1.675513961E0,9.409405708E0,2.298276126E-1,3.315823555E0
1.677953023E0,9.426163673E0,2.441922128E-1,3.263153076E0
1.680392867E0,9.411799431E0,2.417981327E-1,3.239212275E0
1.682832711E0,9.399828911E0,2.705273032E-1,3.232029915E0
1.685271773E0,9.402222633E0,3.160151839E-1,3.193724394E0
1.687710836E0,9.390253067E0,3.615030646E-1,3.164995193E0
1.690150627E0,9.385464668E0,3.591089547E-1,3.145842552E0
1.692590471E0,9.356735229E0,4.045968354E-1,3.107536793E0
1.695029533E0,9.320823669E0,4.452965260E-1,3.090778112E0
1.697468596E0,9.299276352E0,5.003607869E-1,3.076413393E0
1.699908388E0,9.256182671E0,5.410605073E-1,3.062048912E0
1.702348231E0,9.239424706E0,5.578191876E-1,3.033319712E0
1.704787294E0,9.229847908E0,5.841542482E-1,3.014166832E0
1.707226356E0,9.184359550E0,5.937306285E-1,3.028531551E0
1.709666148E0,9.165207863E0,6.104893088E-1,3.021349192E0
1.712105992E0,9.134083748E0,6.272480488E-1,2.997408152E0
1.714545054E0,9.090991020E0,6.535831094E-1,2.999802351E0
1.716984117E0,9.021561623E0,6.440067291E-1,3.009378672E0
1.719423908E0,8.978467941E0,6.320362687E-1,2.971073151E0
1.721863752E0,8.988043785E0,6.320362687E-1,2.968679190E0
1.724302815E0,8.983255386E0,7.230119705E-1,2.963891029E0
1.726741877E0,8.995226860E0,8.187759519E-1,2.942343950E0
1.729181721E0,9.007196426E0,7.996231318E-1,2.889673710E0
1.731621565E0,8.983255386E0,8.115936518E-1,2.858550549E0
1.734060575E0,8.918614388E0,7.924408913E-1,2.832215548E0
1.736499638E0,8.844397545E0,8.115936518E-1,2.815456629E0
1.738939429E0,8.832427979E0,8.498991728E-1,2.841791868E0
1.741379273E0,8.796515465E0,8.642638326E-1,2.796303988E0
1.743818336E0,8.801304817E0,8.331404924E-1,2.750816107E0
1.746257398E0,8.839610100E0,8.331404924E-1,2.805880547E0
1.748697242E0,8.899462700E0,8.666579127E-1,2.837003708E0
1.751137086E0,8.937767982E0,9.289045334E-1,2.887279749E0
1.753576096E0,8.985650063E0,9.959392548E-1,2.995014191E0
1.756015158E0,9.045502663E0,1.055791736E0,3.102748632E0
1.758455002E0,9.107748985E0,1.096491337E0,3.193724394E0
1.760894846E0,9.138873100E0,1.134796977E0,3.258364916E0
1.763333856E0,9.196331024E0,1.173102498E0,3.385252237E0
1.765772919E0,9.263365746E0,1.209013939E0,3.445104599E0
1.768212763E0,9.351946831E0,1.216196418E0,3.495380640E0
1.770652606E0,9.459681511E0,1.199437618E0,3.583962440E0
1.773091617E0,9.545868874E0,1.211408138E0,3.646209002E0
1.775530679E0,9.672757149E0,1.170708537E0,3.696485281E0
1.777970523E0,9.763731956E0,1.163526177E0,3.739578962E0
1.780410367E0,9.806825638E0,1.120432377E0,3.820978165E0
1.782849377E0,9.871466637E0,1.072550416E0,3.852101326E0
1.785288440E0,9.893013954E0,1.053397655E0,3.885618925E0
1.787728283E0,9.938500404E0,1.039033055E0,3.849707365E0
1.790168127E0,9.914560318E0,1.007909775E0,3.852101326E0
1.792607138E0,9.900196075E0,9.839687347E-1,3.820978165E0
1.795046200E0,9.876255035E0,9.839687347E-1,3.794643164E0
1.797486044E0,9.876255035E0,9.408749342E-1,3.751549482E0
1.799925888E0,9.854707718E0,9.025693536E-1,3.706061363E0
1.802364898E0,9.797249794E0,8.714461327E-1,3.718031883E0
1.804803961E0,9.713456154E0,8.498991728E-1,3.718031883E0
1.807243804E0,9.598538399E0,7.996231318E-1,3.744366884E0
1.809683648E0,9.519534111E0,7.493470311E-1,3.780278444E0
1.812122658E0,9.454894066E0,6.966768503E-1,3.794643164E0
1.814561721E0,9.363917351E0,6.559771895E-1,3.864071846E0
1.817001565E0,9.296882629E0,6.128834486E-1,3.892801285E0
1.819441408E0,9.189148903E0,5.506368876E-1,3.909559965E0
1.821880419E0,9.069443703E0,5.099371672E-1,3.950259447E0
1.824319481E0,8.976074219E0,4.476906061E-1,3.990959406E0
1.826759325E0,8.932979584E0,3.686853647E-1,4.019688606E0
1.829199169E0,8.868338585E0,2.753155231E-1,4.048418045E0
1.831638179E0,8.791728020E0,2.250394225E-1,4.091511726E0
1.834077242E0,8.633717537E0,1.675810814E-1,4.108270645E0
1.836517086E0,8.523589134E0,1.268813908E-1,4.060388565E0
1.838956929E0,8.415854454E0,8.857581019E-2,4.017294884E0
1.841395940E0,8.276996613E0,4.548203945E-2,3.983776808E0
1.843835002E0,8.176445007E0,-7.188133895E-3,3.952653646E0
1.846274846E0,8.150109291E0,-8.619339764E-2,3.957442045E0
1.848714690E0,8.233902931E0,-1.388635635E-1,3.967018366E0
1.851153752E0,8.276996613E0,-2.154747397E-1,3.983776808E0
1.853592815E0,8.224327087E0,-1.867455393E-1,4.017294884E0
1.856032606E0,8.083074570E0,-2.082924396E-1,4.029264927E0
1.858472450E0,8.013646126E0,-1.651986539E-1,4.053205967E0
1.860911513E0,7.891547203E0,-1.843514442E-1,4.141787529E0
1.863350575E0,7.865212440E0,-1.867455393E-1,4.261492729E0
1.865790367E0,7.941823006E0,-1.939278394E-1,4.328526974E0
1.868230211E0,7.984917164E0,-2.130806297E-1,4.388379574E0
1.870669273E0,7.992099285E0,-2.537803054E-1,4.467385292E0
1.873108336E0,8.171656609E0,-2.442039102E-1,4.567937374E0
1.875548127E0,8.415854454E0,-3.112386763E-1,4.634972095E0
1.877987971E0,8.569076538E0,-3.543324769E-1,4.675671577E0
1.880427033E0,8.686388016E0,-3.974262178E-1,4.697218895E0
1.882866096E0,8.782152176E0,-4.381259084E-1,4.749888897E0
1.885305940E0,8.873127937E0,-4.907960892E-1,4.824105740E0
1.887745783E0,8.928192139E0,-5.171311498E-1,4.917475700E0
1.890184794E0,9.007196426E0,-5.147370696E-1,4.955780983E0
1.892623856E0,8.988043785E0,-5.027666092E-1,5.013239861E0
1.895063700E0,8.983255386E0,-5.171311498E-1,5.056333065E0
1.897503544E0,8.932979584E0,-4.572786987E-1,5.077880383E0
1.899942554E0,8.832427979E0,-4.046085477E-1,5.089850903E0
1.902381617E0,8.751029015E0,-3.878498375E-1,5.099427223E0
1.904821461E0,8.686388016E0,-3.758793473E-1,5.089850903E0
1.907261304E0,8.648081779E0,-3.447560668E-1,5.065909863E0
1.909700315E0,8.681599617E0,-3.686970770E-1,5.037180901E0
1.912139377E0,8.774970055E0,-3.543324769E-1,5.020421982E0
1.914579221E0,8.849186897E0,-3.112386763E-1,5.020421982E0
1.917019065E0,8.921010017E0,-2.944799662E-1,5.034786701E0
1.919458075E0,8.990437508E0,-2.681449056E-1,5.082668781E0
1.921897138E0,9.052684784E0,-2.226570398E-1,5.123368263E0
1.924336981E0,9.000014305E0,-1.843514442E-1,5.140126705E0
1.926776825E0,8.971285820E0,-1.508340687E-1,5.180826664E0
1.929215836E0,8.973679543E0,-1.029520929E-1,5.166461945E0
1.931654898E0,8.944951057E0,-8.858749270E-2,5.183220863E0
1.934094742E0,8.964102745E0,-8.140520006E-2,5.161673546E0
1.936534586E0,8.935373306E0,-5.028191581E-2,5.125761986E0
1.938973596E0,8.973679543E0,-2.399936318E-3,5.149703026E0
1.941412658E0,8.978467941E0,-4.794038832E-3,5.140126705E0
1.943852502E0,8.997620583E0,7.176451385E-3,5.123368263E0
1.946292346E0,9.079019547E0,1.435874403E-2,5.104215145E0
1.948731356E0,9.141266823E0,3.829973936E-2,5.097033024E0
1.951170419E0,9.181965828E0,7.660530508E-2,5.025210381E0
1.953610263E0,9.193936348E0,1.244872957E-1,4.972540379E0
1.956050106E0,9.193936348E0,1.915220618E-1,4.903110981E0
1.958489117E0,9.167601585E0,2.585568130E-1,4.831288338E0
1.960928179E0,9.122114182E0,3.231974840E-1,4.769041538E0
1.963368023E0,9.062260628E0,4.213555157E-1,4.721159458E0
1.965807867E0,9.014378548E0,5.027548671E-1,4.661307335E0
1.968246877E0,8.909038544E0,5.554250479E-1,4.603848457E0
1.970685940E0,8.851580620E0,6.511889696E-1,4.572725773E0
1.973125783E0,8.782152176E0,7.110415101E-1,4.560755253E0
1.975565627E0,8.717511177E0,8.044112921E-1,4.503296852E0
1.978004690E0,8.662446976E0,8.642638326E-1,4.474567413E0
1.980443752E0,8.583441734E0,9.576337337E-1,4.445837975E0
1.982883544E0,8.516407013E0,9.815746546E-1,4.395562172E0
1.985323388E0,8.444583893E0,1.072550416E0,4.335709572E0
1.987762450E0,8.164474487E0,1.247319579E0,4.340497494E0
1.990201513E0,8.207568169E0,1.240137219E0,4.304586411E0
1.992641304E0,8.303331375E0,1.235349178E0,4.263886452E0
1.995081148E0,8.315301895E0,1.304777980E0,4.271069050E0
1.997520211E0,8.329667091E0,1.304777980E0,4.273463249E0
1.999959273E0,8.367972374E0,1.307172179E0,4.266280651E0
2.002399065E0,8.377549171E0,1.283231139E0,4.278251171E0
2.004838908E0,8.344031334E0,1.242531419E0,4.328526974E0
2.007277971E0,8.279390335E0,1.197043538E0,4.369227409E0
2.009717033E0,8.197991371E0,1.194649339E0,4.390774250E0
2.012156877E0,8.135745049E0,1.185073018E0,4.405138493E0
2.014596721E0,8.133350372E0,1.156343818E0,4.385985851E0
2.017035731E0,8.140533447E0,1.094097257E0,4.328526974E0
2.019474794E0,8.248268127E0,1.048609376E0,4.328526974E0
2.021914638E0,8.276996613E0,1.015092015E0,4.321345329E0
2.024354481E0,8.274602890E0,9.552395344E-1,4.342892170E0
2.026793492E0,8.291360855E0,9.001753330E-1,4.371621132E0
2.029232554E0,8.231509209E0,8.594756126E-1,4.371621132E0
2.031672398E0,8.178838730E0,8.235641122E-1,4.407532692E0
2.034112242E0,8.140533447E0,7.637116909E-1,4.381197453E0
2.036551252E0,8.099833488E0,7.349824905E-1,4.402744770E0
2.038990315E0,8.078287125E0,7.206178904E-1,4.443444252E0
2.041430158E0,8.073498726E0,7.182238102E-1,4.467385292E0
2.043870002E0,8.097438812E0,6.775241494E-1,4.462596893E0
2.046309013E0,8.114197731E0,6.942828298E-1,4.464991093E0
2.048748075E0,8.118986130E0,7.062532902E-1,4.498507977E0
2.051187919E0,8.145320892E0,7.469530106E-1,4.553572655E0
2.053627763E0,8.157291412E0,7.876526117E-1,4.589484215E0
2.056066773E0,8.178838730E0,8.091995716E-1,4.618213177E0
2.058505836E0,8.193202972E0,8.068054318E-1,4.699612617E0
2.060945679E0,8.171656609E0,8.211699724E-1,4.713977337E0
2.063385523E0,8.152503967E0,7.996231318E-1,4.728341579E0
2.065824533E0,8.150109291E0,8.211699724E-1,4.757071018E0
2.068263596E0,8.174050331E0,7.852585316E-1,4.745100498E0
2.070703440E0,8.209961891E0,7.493470311E-1,4.745100498E0
2.073143283E0,8.205173492E0,7.780762315E-1,4.771435738E0
2.075582294E0,8.248268127E0,7.948349118E-1,4.804953098E0
2.078021356E0,8.267419815E0,8.187759519E-1,4.821711540E0
2.080461200E0,8.286573410E0,7.972290516E-1,4.848046780E0
2.082901044E0,8.300937653E0,8.044112921E-1,4.848046780E0
2.085340054E0,8.322484970E0,7.637116909E-1,4.848046780E0
2.087779117E0,8.312908173E0,7.684998512E-1,4.838469982E0
2.090218961E0,8.329667091E0,7.661057711E-1,4.773829460E0
2.092658804E0,8.322484970E0,7.541352510E-1,4.773829460E0
2.095097867E0,8.315301895E0,7.254060507E-1,4.747494698E0
2.097536929E0,8.298543930E0,7.062532902E-1,4.769041538E0
2.099976721E0,8.317696571E0,6.823123097E-1,4.733129978E0
2.102416565E0,8.298543930E0,6.535831094E-1,4.711583138E0
2.104855627E0,8.291360855E0,6.272480488E-1,4.682854176E0
2.107294690E0,8.291360855E0,6.224598289E-1,4.675671577E0
2.109734481E0,8.260238647E0,5.913365483E-1,4.632578373E0
2.112174325E0,8.272209167E0,5.673955679E-1,4.651730537E0
2.114613388E0,8.253055573E0,5.673955679E-1,4.613425255E0
2.117052450E0,8.226720810E0,5.458486676E-1,4.618213177E0
2.119492242E0,8.224327087E0,5.434545875E-1,4.611031055E0
2.121932086E0,8.267419815E0,5.171195269E-1,4.625395775E0
2.124371148E0,8.262632370E0,5.003607869E-1,4.613425255E0
2.126810211E0,8.226720810E0,4.955726266E-1,4.615818977E0
2.129250054E0,8.224327087E0,4.979667068E-1,4.618213177E0
2.131689898E0,8.236297607E0,4.764198065E-1,4.642154217E0
2.134128908E0,8.253055573E0,4.764198065E-1,4.692430019E0
2.136567971E0,8.265026093E0,4.764198065E-1,4.723553658E0
2.139007815E0,8.279390335E0,4.596611261E-1,4.721159458E0
2.141447658E0,8.300937653E0,4.452965260E-1,4.735524178E0
2.143886669E0,8.296150208E0,4.237496257E-1,4.742706776E0
2.146325731E0,8.322484970E0,4.045968354E-1,4.728341579E0
2.148765575E0,8.303331375E0,4.069909453E-1,4.718765736E0
2.151205419E0,8.320090294E0,4.093850255E-1,4.692430019E0
2.153644429E0,8.332060814E0,3.567148745E-1,4.690036297E0
2.156083492E0,8.322484970E0,3.423502743E-1,4.690036297E0
2.158523336E0,8.281785011E0,3.112269938E-1,4.702006817E0
2.160963179E0,8.231509209E0,3.231974840E-1,4.687642097E0
2.163402190E0,8.233902931E0,3.040446937E-1,4.699612617E0
2.165841252E0,8.241085052E0,2.753155231E-1,4.733129978E0
2.168281096E0,8.255449295E0,2.585568130E-1,4.704400539E0
2.170720940E0,8.253055573E0,2.896800935E-1,4.718765736E0
2.173159950E0,8.291360855E0,2.848919034E-1,4.725947857E0
2.175599013E0,8.293755531E0,3.136211038E-1,4.723553658E0
2.178038856E0,8.317696571E0,3.136211038E-1,4.745100498E0
2.180478700E0,8.346426010E0,3.591089547E-1,4.778618336E0
2.182917711E0,8.351213455E0,3.998086452E-1,4.776223660E0
2.185356773E0,8.389519691E0,4.405083656E-1,4.797770500E0
2.187796617E0,8.423036575E0,4.548729062E-1,4.800164700E0
2.190236461E0,8.446977615E0,5.003607869E-1,4.812135220E0
2.192675471E0,8.485283852E0,4.907843471E-1,4.802559376E0
2.195114533E0,8.514012337E0,4.788139462E-1,4.771435738E0
2.197554377E0,8.545135498E0,4.836021066E-1,4.761859417E0
2.199994221E0,8.552317619E0,4.931784868E-1,4.740312099E0
2.202433283E0,8.621747017E0,4.812080264E-1,4.721159458E0
2.204872346E0,8.636112213E0,4.907843471E-1,4.687642097E0
2.207312138E0,8.681599617E0,4.668434262E-1,4.663701057E0
2.209751981E0,8.724692345E0,4.931784868E-1,4.694824696E0
2.212191044E0,8.801304817E0,4.812080264E-1,4.706795216E0
2.214630106E0,8.822851181E0,4.788139462E-1,4.742706776E0
2.217069898E0,8.882703781E0,4.500847459E-1,4.776223660E0
2.219509742E0,8.897068977E0,4.620552063E-1,4.826500416E0
2.221948804E0,8.940161705E0,4.429024458E-1,4.816923618E0
2.224387867E0,8.956920624E0,4.237496257E-1,4.807347298E0
2.226827711E0,8.954526901E0,4.093850255E-1,4.831288338E0
2.229267554E0,8.971285820E0,4.333260059E-1,4.826500416E0
2.231706565E0,8.973679543E0,4.309319258E-1,4.812135220E0
2.234145627E0,8.971285820E0,4.524788260E-1,4.800164700E0
2.236585471E0,8.985650063E0,4.620552063E-1,4.828894138E0
2.239025315E0,8.992832184E0,4.788139462E-1,4.838469982E0
2.241464325E0,8.983255386E0,5.051490068E-1,4.860017300E0
2.243903388E0,9.014378548E0,5.626073480E-1,4.912687778E0
2.246343231E0,9.007196426E0,5.769719481E-1,4.958175182E0
2.248783075E0,9.050291061E0,6.009129286E-1,4.991692543E0
2.251222086E0,9.050291061E0,6.176716089E-1,5.003663063E0
2.253661148E0,9.057473183E0,6.487949491E-1,5.027604103E0
2.256100992E0,9.057473183E0,6.487949491E-1,5.029998302E0
2.258540836E0,9.064654350E0,6.607654095E-1,5.032392025E0
2.260979846E0,9.035925865E0,6.847063899E-1,4.986904621E0
2.263418908E0,9.033532143E0,7.014650702E-1,4.974934101E0
2.265858752E0,9.045502663E0,7.062532902E-1,4.953387260E0
2.268298596E0,9.026350021E0,7.517411709E-1,4.919869900E0
2.270737606E0,8.988043785E0,7.708939314E-1,4.910293102E0
2.273176669E0,8.973679543E0,8.355346322E-1,4.879170418E0
2.275616513E0,8.983255386E0,8.738402128E-1,4.845652580E0
2.278056356E0,8.952133179E0,9.025693536E-1,4.824105740E0
2.280495367E0,8.870732307E0,9.217221737E-1,4.826500416E0
2.282934429E0,8.818062782E0,9.887570143E-1,4.824105740E0
2.285374273E0,8.767786980E0,1.039033055E0,4.831288338E0
2.287814117E0,8.741452217E0,1.074944496E0,4.831288338E0
2.290253179E0,8.746239662E0,1.000727415E0,4.840864658E0
2.292692242E0,8.679205894E0,9.959392548E-1,4.845652580E0
2.295132033E0,8.640899658E0,9.767864943E-1,4.881564140E0
2.297571877E0,8.583441734E0,9.863628149E-1,4.883958340E0
2.300010940E0,8.552317619E0,9.672100544E-1,4.929446220E0
2.302450002E0,8.494859695E0,9.528454542E-1,4.967751503E0
2.304889794E0,8.468524933E0,9.265103340E-1,4.989298820E0
2.307329638E0,8.439795494E0,9.121457934E-1,5.013239861E0
2.309768700E0,8.413460732E0,9.217221737E-1,5.053939342E0
2.312207763E0,8.360790253E0,9.241162539E-1,5.089850903E0
2.314647554E0,8.341637611E0,9.528454542E-1,5.113791466E0
2.317087398E0,8.351213455E0,9.696041346E-1,5.156885624E0
2.319526461E0,8.356001854E0,9.719982147E-1,5.228708744E0
2.321965523E0,8.353608131E0,9.624218941E-1,5.274196148E0
2.324405367E0,8.415854454E0,9.719982147E-1,5.310107708E0
2.326845211E0,8.480494499E0,9.743924141E-1,5.362778187E0
2.329284221E0,8.537953377E0,9.719982147E-1,5.403477669E0
2.331723283E0,8.614564896E0,9.360867739E-1,5.405871868E0
2.334163127E0,8.667234421E0,9.145398736E-1,5.410660267E0
2.336602971E0,8.700751305E0,9.121457934E-1,5.432206631E0
2.339041981E0,8.755816460E0,9.360867739E-1,5.446571827E0
2.341481044E0,8.810880661E0,9.217221737E-1,5.432206631E0
2.343920888E0,8.851580620E0,9.001753330E-1,5.432206631E0
2.346360731E0,8.892279625E0,8.738402128E-1,5.427418709E0
2.348799742E0,8.952133179E0,8.618696928E-1,5.432206631E0
2.351238804E0,9.009591103E0,8.331404924E-1,5.453753471E0
2.353678648E0,9.014378548E0,7.948349118E-1,5.446571827E0
2.356118492E0,9.040713310E0,7.852585316E-1,5.436995029E0
2.358557502E0,9.052684784E0,7.684998512E-1,5.463330269E0
2.360996565E0,9.069443703E0,7.397707105E-1,5.453753471E0
2.363436408E0,9.067049980E0,7.254060507E-1,5.422630787E0
2.365876252E0,9.074232101E0,6.966768503E-1,5.389112949E0
2.368315263E0,9.100566864E0,6.751300097E-1,5.360383987E0
2.370754325E0,9.112536430E0,6.368244290E-1,5.341231346E0
2.373194169E0,9.126901627E0,6.033070683E-1,5.338837147E0
2.375634013E0,9.138873100E0,5.697897077E-1,5.357989788E0
2.378073075E0,9.167601585E0,5.554250479E-1,5.326866627E0
2.380512138E0,9.196331024E0,5.195135474E-1,5.353201866E0
2.382951929E0,9.227454185E0,4.859961867E-1,5.381930828E0
2.385391773E0,9.253788948E0,4.836021066E-1,5.429812908E0
2.387830836E0,9.256182671E0,5.075431466E-1,5.504029751E0
2.390269898E0,9.268154144E0,5.147253871E-1,5.561488152E0
2.392709690E0,9.299276352E0,5.338782072E-1,5.640493870E0
2.395149533E0,9.280123711E0,5.961247683E-1,5.662040234E0
2.397588596E0,9.292095184E0,5.793660879E-1,5.695557594E0
2.400027658E0,9.282517433E0,5.745778680E-1,5.774563313E0
2.402467502E0,9.239424706E0,5.985188484E-1,5.846385956E0
2.404907346E0,9.234635353E0,5.913365483E-1,5.870326996E0
2.407346356E0,9.277729988E0,5.937306285E-1,5.824839115E0
2.409785419E0,9.320823669E0,5.889424086E-1,5.808080196E0
2.412225263E0,9.366312027E0,5.602132678E-1,5.796109676E0
2.414665106E0,9.440528870E0,6.033070683E-1,5.779351234E0
2.417104117E0,9.545868874E0,5.865483880E-1,5.772169113E0
2.419543179E0,9.632057190E0,6.080952287E-1,5.741045475E0
2.421983023E0,9.694302559E0,6.248539090E-1,5.733863354E0
2.424422867E0,9.835555077E0,6.942828298E-1,5.726681232E0
2.426861877E0,9.950471878E0,7.565293908E-1,5.669222832E0
2.429300940E0,1.001032352E1,8.211699724E-1,5.647675514E0
2.431740783E0,1.008454132E1,8.786283731E-1,5.650069714E0
2.434180627E0,1.017551708E1,9.408749342E-1,5.621340752E0
2.436619638E0,1.027367496E1,1.003121495E0,5.662040234E0
2.439058700E0,1.034549809E1,1.089309096E0,5.657252312E0
2.441498544E0,1.040774441E1,1.185073018E0,5.642887592E0
2.443938388E0,1.047717381E1,1.252107739E0,5.633311272E0
2.446377398E0,1.052744961E1,1.302383900E0,5.611763954E0
2.448816461E0,1.058730221E1,1.350265861E0,5.611763954E0
2.451256304E0,1.058490753E1,1.343083501E0,5.621340752E0
2.453696148E0,1.057293797E1,1.357448101E0,5.645281792E0
2.456135211E0,1.055617905E1,1.355054021E0,5.678799152E0
2.458574273E0,1.053223801E1,1.316748500E0,5.669222832E0
2.461014065E0,1.046759701E1,1.280836940E0,5.755410194E0
2.463453908E0,1.036943913E1,1.276048779E0,5.817656517E0
2.465892971E0,1.023536968E1,1.249713778E0,5.877509117E0
2.468332033E0,1.009890556E1,1.261684299E0,5.990031719E0
2.470771825E0,9.950471878E0,1.242531419E0,6.097766399E0
2.473211669E0,9.794856071E0,1.271260619E0,6.246200562E0
2.475650731E0,9.627268791E0,1.244925499E0,6.353935242E0
2.478089794E0,9.421376228E0,1.218590379E0,6.495186806E0
2.480529638E0,9.205906868E0,1.180284858E0,6.590950489E0
2.482969481E0,8.990437508E0,1.127614617E0,6.713049889E0
2.485408492E0,8.774970055E0,1.036638856E0,6.746567249E0
2.487847554E0,8.583441734E0,9.576337337E-1,6.787266731E0
2.490287398E0,8.413460732E0,9.121457934E-1,6.760931492E0
2.492727242E0,8.281785011E0,8.858106732E-1,6.708261490E0
2.495166252E0,8.207568169E0,8.666579127E-1,6.610103607E0
2.497605315E0,8.178838730E0,8.690519929E-1,6.476034164E0
2.500045158E0,8.212356567E0,8.858106732E-1,6.255776882E0
2.502485002E0,8.265026093E0,8.690519929E-1,6.066643238E0
2.504924013E0,8.296150208E0,8.163818121E-1,5.836809635E0
2.507363075E0,8.353608131E0,7.780762315E-1,5.650069714E0
2.509802919E0,8.401490211E0,6.871004701E-1,5.386719227E0
2.512242763E0,8.449371338E0,5.865483880E-1,5.142521381E0
2.514681773E0,8.482889175E0,4.883903265E-1,4.864805698E0
2.517120836E0,8.528376579E0,4.405083656E-1,4.534419537E0
2.519560679E0,8.588230133E0,4.117791653E-1,4.208822727E0
2.522000523E0,8.703146935E0,3.998086452E-1,3.835342646E0
2.524439533E0,8.774970055E0,3.974145651E-1,3.461863518E0
2.526878596E0,8.846792221E0,3.686853647E-1,3.107536793E0
2.529318440E0,8.887492180E0,3.591089547E-1,2.746027946E0
2.531758283E0,8.973679543E0,3.447443843E-1,2.420430422E0
2.534197346E0,9.040713310E0,3.064388037E-1,2.128350496E0
2.536636408E0,9.107748985E0,2.441922128E-1,1.879364252E0
2.539076200E0,9.124507904E0,1.819456816E-1,1.659107208E0
2.541516044E0,9.143660545E0,1.149109006E-1,1.520249367E0
2.543955106E0,9.155631065E0,5.984662473E-2,1.414908886E0
2.546394169E0,9.136477470E0,-4.794038832E-3,1.352662563E0
2.548833961E0,9.143660545E0,-8.619339764E-2,1.316751003E0
2.551273804E0,9.150842667E0,-1.292871833E-1,1.273657322E0
2.553712867E0,9.193936348E0,-2.106865346E-1,1.218592882E0
2.556151929E0,9.251395226E0,-2.753272057E-1,1.146770000E0
2.558591773E0,9.287306786E0,-3.591206670E-1,1.055794239E0
2.561031617E0,9.323217392E0,-4.979783893E-1,9.720007777E-1
2.563470627E0,9.320823669E0,-5.937423706E-1,8.953896165E-1
2.565909690E0,9.301671028E0,-6.919003725E-1,8.355371356E-1
2.568349533E0,9.268154144E0,-8.092111945E-1,7.780787349E-1
2.570789377E0,9.234635353E0,-8.714578152E-1,7.158321738E-1
2.573228388E0,9.189148903E0,-9.193397760E-1,6.655561328E-1
2.575667450E0,9.165207863E0,-9.887686372E-1,6.176741123E-1
2.578107294E0,9.222665787E0,-1.079744339E0,6.080977321E-1
2.580547138E0,9.318429947E0,-1.113261700E0,6.009154320E-1
2.582986148E0,9.411799431E0,-1.153961420E0,6.104918718E-1
2.585425211E0,9.490804672E0,-1.141991019E0,6.775266528E-1
2.587865054E0,9.541080475E0,-1.118049979E0,7.900492549E-1
2.590304898E0,9.538686752E0,-1.046226978E0,1.000730038E0
2.592743908E0,9.421376228E0,-9.600394368E-1,1.225775242E0
2.595182971E0,9.208300591E0,-8.163934946E-1,1.501096725E0
2.597622815E0,9.016773224E0,-6.152892113E-1,1.800358772E0
2.600062658E0,8.904251099E0,-3.902439475E-1,2.109197617E0
2.602501669E0,8.858762741E0,-1.675927490E-1,2.430006981E0
2.604940731E0,8.818062782E0,2.154104412E-2,2.702934265E0
2.607380575E0,8.842003822E0,1.987043321E-1,3.030925751E0
2.609820419E0,8.911433220E0,4.022027552E-1,3.346946716E0
2.612259481E0,8.988043785E0,5.889424086E-1,3.543262720E0
2.614698544E0,9.083807945E0,7.373765707E-1,3.653391123E0
2.617138336E0,9.270547867E0,8.882048130E-1,3.662967682E0
2.619578179E0,9.562627792E0,9.767864943E-1,3.703667402E0
2.622017242E0,9.864283562E0,1.041427135E0,3.720426083E0
2.624456304E0,1.006778240E1,1.070156217E0,3.679726362E0
2.626896096E0,1.016354656E1,1.048609376E0,3.631844521E0
2.629335940E0,1.023058128E1,1.005515575E0,3.567203760E0
2.631775002E0,1.026888657E1,9.193280339E-1,3.481016159E0
2.634214065E0,1.031676865E1,8.020172715E-1,3.454681158E0
2.636653908E0,1.027846336E1,7.373765707E-1,3.363705397E0
2.639093752E0,1.022100449E1,6.631594896E-1,3.342158556E0
2.641532763E0,1.027367496E1,6.104893088E-1,3.344552755E0
2.643971825E0,1.030719280E1,6.104893088E-1,3.392434359E0
2.646411669E0,1.035986233E1,6.272480488E-1,3.469045639E0
2.648851513E0,1.039816761E1,6.775241494E-1,3.560021400E0
2.651290523E0,1.035507488E1,7.134355307E-1,3.615085602E0
2.653729586E0,1.034549809E1,7.589234114E-1,3.701273203E0
2.656169429E0,1.027367496E1,8.163818121E-1,3.801825523E0
2.658609273E0,1.014200020E1,9.073575735E-1,3.844919205E0
2.661048283E0,1.002947712E1,9.959392548E-1,3.888012886E0
2.663487346E0,9.972019196E0,1.158738017E0,3.909559965E0
2.665927190E0,9.919348717E0,1.307172179E0,3.907165766E0
2.668367033E0,9.907378197E0,1.386177421E0,3.852101326E0
2.670806044E0,9.890620232E0,1.419694781E0,3.792248964E0
2.673245106E0,9.830766678E0,1.402935982E0,3.725214243E0
2.675684950E0,9.694302559E0,1.376600981E0,3.646209002E0
2.678124794E0,9.560234070E0,1.297595620E0,3.598326921E0
2.680563856E0,9.454894066E0,1.220984459E0,3.540868759E0
2.683002919E0,9.337582588E0,1.125220656E0,3.471439600E0
2.685442711E0,9.227454185E0,9.959392548E-1,3.390040398E0
2.687882554E0,9.177177429E0,8.858106732E-1,3.344552755E0
2.690321617E0,9.234635353E0,8.187759519E-1,3.289488077E0
2.692760679E0,9.387858391E0,7.613175511E-1,3.205694914E0
2.695200471E0,9.337582588E0,7.421647310E-1,3.157812834E0
2.697640315E0,9.270547867E0,7.301942706E-1,3.167389154E0
2.700079377E0,9.184359550E0,6.344302893E-1,3.217665434E0
2.702518440E0,9.205906868E0,5.697897077E-1,3.313429117E0
2.704958283E0,9.249000549E0,4.788139462E-1,3.334976196E0
2.707398127E0,9.258576393E0,3.974145651E-1,3.284700155E0
2.709837138E0,9.239424706E0,2.657391131E-1,3.272729635E0
2.712276200E0,9.179572105E0,1.747633815E-1,3.244000435E0
2.714716044E0,9.102960587E0,8.618171513E-2,3.272729635E0
2.717155888E0,8.995226860E0,7.176451385E-3,3.248788595E0
2.719594898E0,8.928192139E0,-5.267601460E-2,3.267941475E0
2.722033961E0,8.877915382E0,-7.901109755E-2,3.294276476E0
2.724473804E0,8.801304817E0,-7.422290742E-2,3.315823555E0
2.726913648E0,8.743845940E0,-1.053461879E-1,3.370887756E0
2.729352658E0,8.724692345E0,-1.580163538E-1,3.382858276E0
2.731791721E0,8.719904900E0,-2.298393101E-1,3.421163797E0
2.734231565E0,8.700751305E0,-2.202629298E-1,3.390040398E0
2.736671408E0,8.554711342E0,-2.178688347E-1,3.368493557E0
2.739110419E0,8.444583893E0,-2.513862252E-1,3.334976196E0
2.741549481E0,8.379942894E0,-2.585684955E-1,3.279911995E0
2.743989325E0,8.356001854E0,-2.585684955E-1,3.212877274E0
2.746429169E0,8.382336617E0,-2.633566856E-1,3.148236513E0
2.748868231E0,8.372760773E0,-2.346275151E-1,3.090778112E0
2.751307294E0,8.286573410E0,-1.819573492E-1,3.059654951E0
2.753747086E0,8.190809250E0,-1.221048757E-1,3.071625233E0
2.756186929E0,8.140533447E0,-8.379930258E-2,3.088383913E0
2.758625992E0,8.166868210E0,-7.661700249E-2,3.102748632E0
2.761065054E0,8.154897690E0,-6.704060733E-2,3.117113113E0
2.763504898E0,8.090257645E0,-8.858749270E-2,3.109930992E0
2.765944742E0,8.011251450E0,-1.173166782E-1,3.126689672E0
2.768383752E0,8.049557686E0,-1.268930733E-1,3.133872032E0
2.770822815E0,8.154897690E0,-1.699868441E-1,3.148236513E0
2.773262658E0,8.140533447E0,-1.747750491E-1,3.126689672E0
2.775702502E0,8.097438812E0,-1.197107807E-1,3.107536793E0
2.778141513E0,8.042375565E0,-8.140520006E-2,3.126689672E0
2.780580575E0,7.984917164E0,-5.507011339E-2,3.160207033E0
2.783020419E0,7.965764046E0,-6.704060733E-2,3.155418634E0
2.785460263E0,7.922670841E0,-5.028191581E-2,3.138660192E0
2.787899273E0,7.819724083E0,-3.591732308E-2,3.114719152E0
2.790338336E0,7.747901440E0,-4.794038832E-3,3.083595753E0
2.792778179E0,7.726354122E0,-2.155273408E-2,3.054866791E0
2.795218023E0,7.735930920E0,-1.915863156E-2,3.085989952E0
2.797657033E0,7.858029842E0,-3.591732308E-2,3.038107872E0
2.800096096E0,7.925064564E0,1.053344905E-1,3.033319712E0
2.802535940E0,7.984917164E0,2.106748521E-1,3.009378672E0
2.804975783E0,8.090257645E0,2.753155231E-1,3.016561031E0
2.807414794E0,8.140533447E0,3.327738643E-1,3.081201792E0
2.809853856E0,8.126168251E0,3.279856741E-1,3.148236513E0
2.812293700E0,8.109409332E0,3.495325744E-1,3.227241755E0
2.814733544E0,8.142927170E0,3.638971448E-1,3.291882515E0
2.817172606E0,8.205173492E0,3.543207645E-1,3.334976196E0
2.819611669E0,8.202779770E0,3.351680040E-1,3.349340677E0
2.822051461E0,8.202779770E0,3.303797841E-1,3.390040398E0
2.824491304E0,8.226720810E0,3.016505837E-1,3.416375399E0
2.826930367E0,8.300937653E0,2.585568130E-1,3.457075119E0
2.829369429E0,8.317696571E0,2.058866620E-1,3.469045639E0
2.831809273E0,8.341637611E0,1.580046713E-1,3.536080360E0
2.834249117E0,8.341637611E0,1.268813908E-1,3.622267962E0
2.836688127E0,8.329667091E0,1.460341811E-1,3.658179522E0
2.839127190E0,8.293755531E0,1.747633815E-1,3.706061363E0
2.841567033E0,8.260238647E0,1.723692566E-1,3.744366884E0
2.844006877E0,8.233902931E0,1.675810814E-1,3.749155283E0
2.846445888E0,8.193202972E0,1.388518810E-1,3.763520002E0
2.848884950E0,8.178838730E0,1.316695958E-1,3.770702124E0
2.851324794E0,8.138138771E0,1.268813908E-1,3.777884483E0
2.853764638E0,8.126168251E0,1.316695958E-1,3.804219484E0
2.856203648E0,8.095045090E0,1.149109006E-1,3.806613684E0
2.858642711E0,8.047163010E0,5.027022958E-2,3.861677885E0
2.861082554E0,8.001675606E0,9.570553899E-3,3.885618925E0
2.863522398E0,7.927458763E0,-4.549372196E-2,3.921530485E0
2.865961408E0,7.870000362E0,-7.182880491E-2,3.919136286E0
2.868400471E0,7.836483002E0,-8.858749270E-2,3.962229967E0
2.870840315E0,7.824512959E0,-1.005579904E-1,3.947865486E0
2.873280158E0,7.843665123E0,-1.292871833E-1,3.962229967E0
2.875719221E0,7.848453522E0,-1.604104638E-1,3.947865486E0
2.878158283E0,7.829300880E0,-1.651986539E-1,3.969412565E0
2.880598075E0,7.769448280E0,-1.747750491E-1,3.983776808E0
2.883037919E0,7.721566200E0,-1.747750491E-1,4.036447525E0
2.885476981E0,7.678472519E0,-1.843514442E-1,4.074752808E0
2.887916044E0,7.625802040E0,-1.915337443E-1,4.127423286E0
2.890355836E0,7.601861000E0,-2.202629298E-1,4.146575928E0
2.892795679E0,7.582708836E0,-2.489921153E-1,4.156152248E0
2.895234742E0,7.568343639E0,-2.561744153E-1,4.189669609E0
2.897673804E0,7.601861000E0,-2.585684955E-1,4.223186970E0
2.900113648E0,7.611437798E0,-2.537803054E-1,4.223186970E0
2.902553492E0,7.625802040E0,-2.513862252E-1,4.244734287E0
2.904992502E0,7.609043598E0,-2.346275151E-1,4.251916409E0
2.907431565E0,7.630590916E0,-2.011101246E-1,4.263886452E0
2.909871408E0,7.618620396E0,-2.274452150E-1,4.314162731E0
2.912311252E0,7.606649876E0,-2.513862252E-1,4.345286369E0
2.914750263E0,7.623408318E0,-2.346275151E-1,4.393167973E0
2.917189325E0,7.630590916E0,-2.322334200E-1,4.443444252E0
2.919629169E0,7.668896198E0,-2.585684955E-1,4.481749535E0
2.922069013E0,7.714384079E0,-2.705389857E-1,4.520055294E0
2.924508023E0,7.802965641E0,-2.920858860E-1,4.534419537E0
2.926947086E0,7.853241920E0,-2.944799662E-1,4.541602135E0
2.929386929E0,7.934641361E0,-2.920858860E-1,4.570331097E0
2.931826773E0,8.039980888E0,-3.136327863E-1,4.615818977E0
2.934265783E0,8.095045090E0,-3.064504862E-1,4.637366295E0
2.936704846E0,8.178838730E0,-3.040563762E-1,4.682854176E0
2.939144690E0,8.274602890E0,-2.849035859E-1,4.721159458E0
2.941584533E0,8.365578651E0,-2.585684955E-1,4.776223660E0
2.944023596E0,8.475707054E0,-2.322334200E-1,4.843258858E0
2.946462658E0,8.547530174E0,-2.106865346E-1,4.907899380E0
2.948902502E0,8.578652382E0,-1.771691442E-1,4.967751503E0
2.951342346E0,8.609776497E0,-1.364694685E-1,5.041968822E0
2.953781356E0,8.674416542E0,-5.985831097E-2,5.135338783E0
2.956220419E0,8.695963860E0,-4.794038832E-3,5.240679264E0
2.958660263E0,8.748633385E0,4.548203945E-2,5.331654549E0
2.961100106E0,8.789333344E0,8.378760517E-2,5.401083469E0
2.963539117E0,8.815669060E0,1.771574616E-1,5.453753471E0
2.965978179E0,8.798910141E0,2.394040227E-1,5.520788670E0
2.968418023E0,8.784545898E0,2.992565036E-1,5.561488152E0
2.970857867E0,8.753422737E0,3.591089547E-1,5.559093952E0
2.973296877E0,8.755816460E0,4.572669864E-1,5.609370232E0
2.975735940E0,8.777363777E0,5.530309677E-1,5.616552830E0
2.978175783E0,8.791728020E0,6.272480488E-1,5.611763954E0
2.980615627E0,8.830033302E0,6.775241494E-1,5.626128674E0
2.983054638E0,8.803698540E0,7.469530106E-1,5.626128674E0
2.985493700E0,8.774970055E0,7.565293908E-1,5.630917072E0
2.987933544E0,8.743845940E0,7.541352510E-1,5.645281792E0
2.990373388E0,8.717511177E0,7.517411709E-1,5.659646034E0
2.992812450E0,8.674416542E0,7.301942706E-1,5.633311272E0
2.995251513E0,8.621747017E0,7.110415101E-1,5.638099194E0
2.997691304E0,8.588230133E0,6.942828298E-1,5.575852871E0
3.000131148E0,8.533165932E0,7.301942706E-1,5.501635551E0
3.002570211E0,8.504435539E0,7.254060507E-1,5.417842388E0
3.005009273E0,8.446977615E0,7.278001904E-1,5.334048748E0
3.007449065E0,8.411066055E0,7.613175511E-1,5.283772469E0
3.009888908E0,8.406277657E0,8.068054318E-1,5.259831905E0
3.012327971E0,8.384730339E0,7.948349118E-1,5.295742989E0
3.014767033E0,8.403883934E0,8.139877319E-1,5.353201866E0
3.017206877E0,8.442190170E0,8.810225129E-1,5.425024509E0
3.019646721E0,8.451766014E0,9.073575735E-1,5.554306030E0
3.022085731E0,8.458948135E0,9.025693536E-1,5.645281792E0
3.024524794E0,8.518800735E0,9.025693536E-1,5.731469154E0
3.026964638E0,8.566682816E0,8.929929733E-1,5.815262794E0
3.029404481E0,8.616958618E0,8.858106732E-1,5.875115395E0
3.031843492E0,8.664840698E0,8.810225129E-1,5.908632755E0
3.034282554E0,8.703146935E0,9.193280339E-1,5.930179596E0
3.036722398E0,8.727087975E0,9.145398736E-1,5.925391197E0
3.039162242E0,8.765392303E0,9.217221737E-1,5.939755917E0
3.041601252E0,8.731875420E0,9.193280339E-1,5.994820118E0
3.044040315E0,8.700751305E0,8.882048130E-1,6.057066917E0
3.046480158E0,8.672022820E0,8.738402128E-1,6.138466358E0
3.048920002E0,8.645688057E0,7.756821513E-1,6.212683201E0
3.051359065E0,8.590623856E0,7.421647310E-1,6.310841084E0
3.053798127E0,8.571471214E0,7.206178904E-1,6.416181564E0
3.056237919E0,8.533165932E0,6.368244290E-1,6.456881046E0
3.058677763E0,8.468524933E0,5.913365483E-1,6.511945724E0
3.061116825E0,8.444583893E0,5.027548671E-1,6.586162567E0
3.063555888E0,8.418249130E0,4.596611261E-1,6.593344688E0
3.065995731E0,8.408671379E0,4.093850255E-1,6.590950489E0
3.068435575E0,8.446977615E0,3.495325744E-1,6.602921009E0
3.070874586E0,8.545135498E0,3.375620842E-1,6.559827328E0
3.073313648E0,8.600199699E0,2.848919034E-1,6.521521568E0
3.075753492E0,8.664840698E0,2.082807422E-1,6.480822086E0
3.078193336E0,8.806093216E0,1.819456816E-1,6.392240524E0
3.080632346E0,8.952133179E0,1.460341811E-1,6.286900043E0
3.083071408E0,9.138873100E0,1.149109006E-1,6.167195320E0
3.085511252E0,9.325612068E0,1.029404104E-1,6.021155357E0
3.087951096E0,9.581780434E0,1.508223712E-1,5.867932796E0
3.090390106E0,9.849919319E0,2.178571522E-1,5.712316513E0
3.092829169E0,1.011327076E1,2.657391131E-1,5.590217590E0
3.095269013E0,1.042210865E1,3.471384645E-1,5.448965549E0
3.097708856E0,1.082192421E1,4.141732454E-1,5.326866627E0
3.100147919E0,1.122173786E1,5.362722278E-1,5.190402985E0
3.102586981E0,1.170055771E1,5.937306285E-1,5.020421982E0
3.105026773E0,1.214346600E1,6.033070683E-1,4.879170418E0
3.107466617E0,1.258158684E1,6.009129286E-1,4.749888897E0
3.109905679E0,1.305561733E1,6.033070683E-1,4.560755253E0
3.112344742E0,1.348894978E1,5.530309677E-1,4.318951130E0
3.114784586E0,1.389834118E1,5.554250479E-1,4.060388565E0
3.117224429E0,1.434603691E1,6.296421289E-1,3.804219484E0
3.119663440E0,1.472669888E1,7.086473703E-1,3.461863518E0
3.122102502E0,1.508341980E1,8.235641122E-1,3.078807592E0
3.124542346E0,1.535155869E1,8.905988932E-1,2.796303988E0
3.126982190E0,1.553590393E1,1.036638856E0,2.554499865E0
3.129421200E0,1.560054493E1,1.180284858E0,2.365366220E0
3.131860263E0,1.560293865E1,1.352659941E0,2.219326258E0
3.134300106E0,1.551196289E1,1.534611464E0,2.125956297E0
3.136739950E0,1.533479977E1,1.793174148E0,2.118773937E0
3.139178961E0,1.508581352E1,2.032583952E0,2.166656017E0
3.141618023E0,1.482006836E1,2.274388075E0,2.240872860E0
3.144057867E0,1.445137787E1,2.339028835E0,2.389307261E0
3.146497711E0,1.398692131E1,2.327058315E0,2.542529345E0
3.148936721E0,1.350331497E1,2.281570196E0,2.631111145E0
3.151375783E0,1.299337101E1,2.135530233E0,2.726875305E0
3.153815627E0,1.252652168E1,1.967943430E0,2.753210306E0
3.156255471E0,1.209797859E1,1.785991907E0,2.707722187E0
3.158694533E0,1.166464710E1,1.661498785E0,2.664628506E0
3.161133596E0,1.123370838E1,1.556158423E0,2.525770664E0
3.163573388E0,1.077164745E1,1.472364902E0,2.386913300E0
3.166013231E0,1.036225700E1,1.357448101E0,2.219326258E0
3.168452294E0,1.003905392E1,1.285625100E0,2.020616055E0
3.170891356E0,9.679938316E0,1.252107739E0,1.817117691E0
3.173331200E0,9.359129906E0,1.230560899E0,1.639954329E0
3.175771044E0,9.148448944E0,1.175496578E0,1.436455965E0
3.178210054E0,8.904251099E0,1.132402897E0,1.192257881E0
3.180649117E0,8.679205894E0,1.134796977E0,1.048611879E0
3.183088961E0,8.458948135E0,1.060579896E0,9.432715774E-1
3.185528804E0,8.257843971E0,9.624218941E-1,8.690544963E-1
3.187967815E0,8.142927170E0,8.235641122E-1,8.475076556E-1
3.190406877E0,8.020828247E0,6.799181700E-1,9.193305969E-1
3.192846721E0,7.920276165E0,5.003607869E-1,1.036641359E0
3.195286565E0,7.824512959E0,3.136211038E-1,1.225775242E0
3.197725575E0,7.805359840E0,1.244872957E-1,1.417303085E0
3.200164638E0,7.858029842E0,-8.858749270E-2,1.680654049E0
3.202604481E0,7.956187725E0,-2.992681861E-1,1.932034492E0
3.205044325E0,8.095045090E0,-5.051606894E-1,2.200173378E0
3.207483388E0,8.221932411E0,-6.703535318E-1,2.420430422E0
3.209922450E0,8.370367050E0,-7.948466539E-1,2.628716946E0
3.212362242E0,8.542741776E0,-9.576452971E-1,2.815456629E0
3.214802086E0,8.765392303E0,-1.084532619E0,2.978255510E0
3.217241148E0,8.935373306E0,-1.168326020E0,3.109930992E0
3.219680211E0,9.062260628E0,-1.285636902E0,3.167389154E0
3.222120002E0,9.134083748E0,-1.367036223E0,3.260759115E0
3.224559846E0,9.186754227E0,-1.520258546E0,3.318217516E0
3.226998908E0,9.301671028E0,-1.608840227E0,3.409193277E0
3.229437971E0,9.385464668E0,-1.683057308E0,3.514533758E0
3.231877815E0,9.462076187E0,-1.757274389E0,3.600721121E0
3.234317658E0,9.581780434E0,-1.824309111E0,3.701273203E0
3.236756669E0,9.727820396E0,-1.929649353E0,3.775490522E0
3.239195731E0,9.768519402E0,-2.051748514E0,3.859283686E0
3.241635575E0,9.730215073E0,-2.176241398E0,3.890407085E0
3.244075419E0,9.651209831E0,-2.300734758E0,3.923924446E0
3.246514429E0,9.541080475E0,-2.401287079E0,3.935894966E0
3.248953492E0,9.481228828E0,-2.504233360E0,3.962229967E0
3.251393336E0,9.490804672E0,-2.655061245E0,3.995747328E0
3.253833179E0,9.486017227E0,-2.825042248E0,3.976594687E0
3.256272242E0,9.529110909E0,-2.992629290E0,4.031659126E0
3.258711304E0,9.572203636E0,-3.059664011E0,4.036447525E0
3.261151096E0,9.612903595E0,-3.102757692E0,4.036447525E0
3.263590940E0,9.670361519E0,-3.121910572E0,4.053205967E0
3.266030002E0,9.694302559E0,-3.148245811E0,4.072359085E0
3.268469065E0,9.636844635E0,-3.074028730E0,4.050811768E0
3.270908908E0,9.514745712E0,-2.961505890E0,4.002930164E0
3.273348752E0,9.402222633E0,-2.808283806E0,3.990959406E0
3.275787763E0,9.282517433E0,-2.619149685E0,3.995747328E0
3.278226825E0,9.227454185E0,-2.406075001E0,3.990959406E0
3.280666669E0,9.249000549E0,-2.207365036E0,3.962229967E0
3.283106513E0,9.256182671E0,-1.955984473E0,3.933501005E0
3.285545523E0,9.153236389E0,-1.690239549E0,3.902377605E0
3.287984586E0,9.102960587E0,-1.431676865E0,3.914348125E0
3.290424429E0,9.059866905E0,-1.170720100E0,3.854495764E0
3.292864273E0,9.043108940E0,-9.073692560E-1,3.873648405E0
3.295303283E0,8.940161705E0,-7.038708925E-1,3.871254206E0
3.297742346E0,8.889885902E0,-5.578308105E-1,3.864071846E0
3.300182190E0,8.856369019E0,-4.189731181E-1,3.835342646E0
3.302622033E0,8.844397545E0,-2.968740761E-1,3.794643164E0
3.305061096E0,8.743845940E0,-1.460458636E-1,3.713243723E0
3.307500158E0,8.794121742E0,-6.704060733E-2,3.662967682E0
3.309939950E0,8.810880661E0,2.154104412E-2,3.737184763E0
3.312379794E0,8.746239662E0,1.316695958E-1,3.816190004E0
3.314818856E0,8.643293381E0,1.795515716E-1,3.847313166E0
3.317257919E0,8.530770302E0,2.154630721E-1,3.852101326E0
3.319697763E0,8.382336617E0,2.513745427E-1,3.809007645E0
3.322137606E0,8.262632370E0,3.160151839E-1,3.756337404E0
3.324576617E0,8.157291412E0,3.854440749E-1,3.737184763E0
3.327015679E0,7.980128765E0,4.357201457E-1,3.722820282E0
3.329455523E0,7.858029842E0,4.644492865E-1,3.694090843E0
3.331895367E0,7.790995121E0,5.769719481E-1,3.672544241E0
3.334334377E0,7.702413559E0,6.057011485E-1,3.646209002E0
3.336773440E0,7.644955158E0,6.080952287E-1,3.643815041E0
3.339213283E0,7.628196239E0,6.152775884E-1,3.631844521E0
3.341653127E0,7.688048840E0,7.278001904E-1,3.595932961E0
3.344092138E0,7.688048840E0,8.714461327E-1,3.571991920E0
3.346531200E0,7.676078320E0,1.015092015E0,3.524109840E0
3.348971044E0,7.635378838E0,1.096491337E0,3.478622198E0
3.351410888E0,7.530038357E0,1.161131978E0,3.469045639E0
3.353849898E0,7.360057354E0,1.223378658E0,3.466651678E0
3.356288961E0,7.235564232E0,1.264078259E0,3.449892998E0
3.358728804E0,7.139800072E0,1.273654699E0,3.387646437E0
3.361168648E0,7.015307426E0,1.266472340E0,3.358917236E0
3.363607711E0,6.912360668E0,1.254501820E0,3.323005676E0
3.366046773E0,6.857296944E0,1.266472340E0,3.260759115E0
3.368486617E0,6.828567028E0,1.271260619E0,3.210482836E0
3.370926461E0,6.775897026E0,1.307172179E0,3.160207033E0
3.373365471E0,6.689709663E0,1.347871780E0,3.112324953E0
3.375804533E0,6.644221783E0,1.367024541E0,3.119507074E0
3.378244377E0,6.637039661E0,1.393359661E0,3.131477594E0
3.380684221E0,6.581975460E0,1.400541902E0,3.143448114E0
3.383123231E0,6.553246021E0,1.402935982E0,3.217665434E0
3.385562294E0,6.589157581E0,1.412512422E0,3.263153076E0
3.388002138E0,6.730409145E0,1.378994942E0,3.375675917E0
3.390441981E0,6.744774342E0,1.410118341E0,3.459469080E0
3.392880992E0,6.682527065E0,1.441241622E0,3.536080360E0
3.395320054E0,6.651404381E0,1.496305823E0,3.579174280E0
3.397759898E0,6.644221783E0,1.548975945E0,3.653391123E0
3.400199742E0,6.684921741E0,1.570523024E0,3.684514761E0
3.402638804E0,6.656192303E0,1.606434345E0,3.713243723E0
3.405077867E0,6.615492821E0,1.656710505E0,3.725214243E0
3.407517658E0,6.625069141E0,1.651922226E0,3.739578962E0
3.409957502E0,6.728015423E0,1.661498785E0,3.713243723E0
3.412396565E0,6.862084866E0,1.675863266E0,3.701273203E0
3.414835627E0,6.998548031E0,1.647134066E0,3.679726362E0
3.417275471E0,7.012913227E0,1.637557745E0,3.655785561E0
3.419715315E0,7.056006908E0,1.635163665E0,3.655785561E0
3.422154325E0,7.084736347E0,1.606434345E0,3.694090843E0
3.424593388E0,7.103888512E0,1.620798945E0,3.691696882E0
3.427033231E0,7.154164791E0,1.570523024E0,3.706061363E0
3.429473075E0,7.221199512E0,1.539399624E0,3.741972923E0
3.431912086E0,7.259505272E0,1.472364902E0,3.765913963E0
3.434351148E0,7.398362637E0,1.477153182E0,3.832948685E0
3.436790992E0,7.577920437E0,1.424482822E0,3.856889725E0
3.439230836E0,7.759871960E0,1.398147821E0,3.935894966E0
3.441669898E0,7.925064564E0,1.405330181E0,3.998141527E0
3.444108961E0,8.006464005E0,1.426877022E0,4.034053326E0
3.446548752E0,7.992099285E0,1.374206901E0,4.067570686E0
3.448988596E0,7.960976124E0,1.359842300E0,4.089117527E0
3.451427658E0,7.925064564E0,1.309566140E0,4.105875969E0
3.453866721E0,7.925064564E0,1.290413380E0,4.129817009E0
3.456306565E0,7.903517723E0,1.273654699E0,4.151364326E0
3.458746408E0,7.881970882E0,1.288019300E0,4.208822727E0
3.461185419E0,7.865212440E0,1.314354420E0,4.278251171E0
3.463624481E0,7.846059322E0,1.307172179E0,4.306980610E0
3.466064325E0,7.896335602E0,1.285625100E0,4.357256889E0
3.468504169E0,7.956187725E0,1.316748500E0,4.429079533E0
3.470943179E0,8.032798767E0,1.333507180E0,4.476961613E0
3.473382242E0,8.085468292E0,1.309566140E0,4.584696293E0
3.475822086E0,8.130956650E0,1.314354420E0,4.642154217E0
3.478261929E0,8.183627129E0,1.288019300E0,4.723553658E0
3.480700940E0,8.200386047E0,1.223378658E0,4.778618336E0
3.483140002E0,8.212356567E0,1.151555657E0,4.831288338E0
3.485579846E0,8.169261932E0,1.091703296E0,4.898322582E0
3.488019690E0,8.104621887E0,1.003121495E0,4.929446220E0
3.490458752E0,8.102228165E0,9.145398736E-1,4.970145702E0
3.492897815E0,8.109409332E0,9.001753330E-1,4.974934101E0
3.495337606E0,8.104621887E0,8.786283731E-1,4.989298820E0
3.497777450E0,8.102228165E0,8.475051522E-1,5.008451462E0
3.500216513E0,8.092651367E0,7.852585316E-1,5.051545143E0
3.502655575E0,8.004069328E0,7.038592100E-1,5.053939342E0
3.505095419E0,7.937035084E0,6.631594896E-1,5.089850903E0
3.507535263E0,7.889153004E0,5.338782072E-1,5.087456703E0
3.509974273E0,7.822118282E0,4.333260059E-1,5.094639301E0
3.512413336E0,7.740719318E0,3.231974840E-1,5.144915104E0
3.514853179E0,7.673684120E0,2.322217524E-1,5.154491901E0
3.517293023E0,7.621014118E0,1.388518810E-1,5.173644066E0
3.519732033E0,7.549190998E0,9.570553899E-3,5.207161903E0
3.522171096E0,7.460609913E0,-9.576979280E-2,5.250255108E0
3.524610940E0,7.386392117E0,-1.747750491E-1,5.238284588E0
3.527050783E0,7.364845753E0,-2.849035859E-1,5.255043507E0
3.529489794E0,7.355269432E0,-3.639088571E-1,5.245467186E0
3.531928856E0,7.297810555E0,-4.189731181E-1,5.240679264E0
3.534368700E0,7.233170033E0,-4.309436381E-1,5.183220863E0
3.536808544E0,7.139800072E0,-4.524905086E-1,5.159279823E0
3.539247606E0,7.044036388E0,-4.357318282E-1,5.128156185E0
3.541686669E0,6.984183788E0,-4.141849279E-1,5.130550861E0
3.544126513E0,6.943484306E0,-3.758793473E-1,5.116185665E0
3.546566356E0,6.933907509E0,-2.705389857E-1,5.116185665E0
3.549005367E0,6.929119587E0,-1.675927490E-1,5.144915104E0
3.551444429E0,6.917149067E0,-5.267601460E-2,5.142521381E0
3.553884273E0,6.914755344E0,5.266433954E-2,5.142521381E0
3.556324117E0,6.929119587E0,1.436400712E-1,5.130550861E0
3.558763127E0,6.943484306E0,2.010984719E-1,5.120974064E0
3.561202190E0,6.950666904E0,2.106748521E-1,5.116185665E0
3.563642033E0,6.943484306E0,2.274335325E-1,5.125761986E0
3.566081877E0,6.969819069E0,2.274335325E-1,5.089850903E0
3.568520888E0,6.991366386E0,2.226453424E-1,5.080274105E0
3.570959950E0,7.005730629E0,2.585568130E-1,5.044362545E0
3.573399794E0,7.070371151E0,2.298276126E-1,5.025210381E0
3.575839638E0,7.130223751E0,2.489804327E-1,4.996480942E0
3.578278700E0,7.225987911E0,2.346158326E-1,4.974934101E0
3.580717763E0,7.333722115E0,2.154630721E-1,4.986904621E0
3.583157554E0,7.427092075E0,2.322217524E-1,5.015633583E0
3.585597398E0,7.498915195E0,2.058866620E-1,5.051545143E0
3.588036461E0,7.585102558E0,1.939161420E-1,5.140126705E0
3.590475523E0,7.685654640E0,1.867338717E-1,5.216738224E0
3.592915367E0,7.790995121E0,1.675810814E-1,5.267014027E0
3.595355211E0,7.896335602E0,9.815220535E-2,5.353201866E0
3.597794221E0,8.018434525E0,1.435874403E-2,5.434601307E0
3.600233283E0,8.075892448E0,-6.225240976E-2,5.513606071E0
3.602673127E0,8.140533447E0,-1.316812634E-1,5.614158154E0
3.605112971E0,8.195597649E0,-1.053461879E-1,5.652464390E0
3.607551981E0,8.274602890E0,7.176451385E-3,5.717104912E0
3.609991044E0,8.334455490E0,1.364577860E-1,5.743439674E0
3.612430888E0,8.437401772E0,2.896800935E-1,5.772169113E0
3.614870731E0,8.509224892E0,3.758676648E-1,5.796109676E0
3.617309794E0,8.595411301E0,4.429024458E-1,5.824839115E0
3.619748856E0,8.707934380E0,4.740256667E-1,5.870326996E0
3.622188648E0,8.803698540E0,3.662912846E-1,5.913420677E0
3.624628492E0,8.913826942E0,2.920742035E-1,5.956514835E0
3.627067554E0,9.028743744E0,2.274335325E-1,6.009184837E0
3.629506617E0,9.150842667E0,1.747633815E-1,5.992426395E0
3.631946461E0,9.258576393E0,2.034925520E-1,5.966091156E0
3.634386304E0,9.323217392E0,2.537686229E-1,5.906238556E0
3.636825315E0,9.390253067E0,3.471384645E-1,5.822445393E0
3.639264377E0,9.430953026E0,4.500847459E-1,5.757804394E0
3.641704221E0,9.486017227E0,5.530309677E-1,5.671616554E0
3.644144065E0,9.502776146E0,6.272480488E-1,5.592611790E0
3.646583075E0,9.572203636E0,6.152775884E-1,5.578247070E0
3.649022138E0,9.634450912E0,6.104893088E-1,5.595005512E0
3.651461981E0,9.708667755E0,6.296421289E-1,5.657252312E0
3.653901825E0,9.713456154E0,7.278001904E-1,5.729074955E0
3.656340888E0,9.694302559E0,8.020172715E-1,5.757804394E0
3.658779950E0,9.723032951E0,8.475051522E-1,5.891873837E0
3.661219742E0,9.691908836E0,8.929929733E-1,6.073825359E0
3.663659586E0,9.644026756E0,9.480572939E-1,6.229441643E0
3.666098648E0,9.586568832E0,1.012697816E0,6.408998966E0
3.668537711E0,9.545868874E0,1.113250136E0,6.614891529E0
3.670977554E0,9.565021515E0,1.151555657E0,6.811207771E0
3.673417398E0,9.574597359E0,1.141979218E0,7.026676655E0
3.675856408E0,9.555445671E0,1.115644097E0,7.213416100E0
3.678295471E0,9.471652031E0,1.144373417E0,7.433673859E0
3.680735315E0,9.383070946E0,1.122826457E0,7.629989624E0
3.683175158E0,9.287306786E0,1.074944496E0,7.799970627E0
3.685614169E0,9.189148903E0,1.003121495E0,7.946010590E0
3.688053231E0,9.105354309E0,9.169340134E-1,8.041774750E0
3.690493075E0,9.011984825E0,8.570814729E-1,8.056138992E0
3.692932919E0,8.887492180E0,7.948349118E-1,8.034592628E0
3.695371981E0,8.851580620E0,7.469530106E-1,7.948404789E0
3.697811044E0,8.830033302E0,6.727359295E-1,7.792788029E0
3.700250836E0,8.834821701E0,6.128834486E-1,7.639565945E0
3.702690679E0,8.832427979E0,5.362722278E-1,7.443249702E0
3.705129742E0,8.846792221E0,4.740256667E-1,7.278057098E0
3.707568804E0,8.873127937E0,3.806558847E-1,7.115258217E0
3.710008648E0,8.947344780E0,3.184092641E-1,6.904577732E0
3.712448492E0,9.076625824E0,2.609509230E-1,6.705867767E0
3.714887502E0,9.153236389E0,2.082807422E-1,6.514339447E0
3.717326565E0,9.318429947E0,1.627928764E-1,6.298870564E0
3.719766408E0,9.538686752E0,6.702892482E-2,6.045096397E0
3.722206252E0,9.749367714E0,-4.794038832E-3,5.805685997E0
3.724645263E0,1.001511288E1,-7.422290742E-2,5.575852871E0
3.727084325E0,1.030479908E1,-1.340753734E-1,5.410660267E0
3.729524169E0,1.065433693E1,-1.556222588E-1,5.214344025E0
3.731964013E0,1.097754002E1,-1.699868441E-1,5.032392025E0
3.734403075E0,1.131989574E1,-1.819573492E-1,4.850440502E0
3.736842138E0,1.169816399E1,-1.939278394E-1,4.675671577E0
3.739281929E0,1.213389015E1,-1.843514442E-1,4.467385292E0
3.741721773E0,1.260792160E1,-1.484399736E-1,4.242339611E0
3.744160836E0,1.302928257E1,-9.576979280E-2,4.005324364E0
3.746599898E0,1.337882042E1,-7.182880491E-2,3.818584204E0
3.749039742E0,1.365893078E1,-2.873502672E-2,3.643815041E0
3.751479586E0,1.403719902E1,3.590563685E-2,3.483410120E0
3.753918596E0,1.426463795E1,1.460341811E-1,3.303853035E0
3.756357658E0,1.444180107E1,2.226453424E-1,3.212877274E0
3.758797502E0,1.459502411E1,3.375620842E-1,3.191330194E0
3.761237346E0,1.472669888E1,5.386663675E-1,3.232029915E0
3.763676356E0,1.471951675E1,6.871004701E-1,3.337370157E0
3.766115419E0,1.462854099E1,7.876526117E-1,3.502563238E0
3.768555263E0,1.441307163E1,8.475051522E-1,3.763520002E0
3.770995106E0,1.407310963E1,8.762342930E-1,3.990959406E0
3.773434117E0,1.362301922E1,8.187759519E-1,4.230369091E0
3.775873179E0,1.312504673E1,6.607654095E-1,4.431473732E0
3.778313023E0,1.265340900E1,5.530309677E-1,4.563148975E0
3.780752867E0,1.228232384E1,4.069909453E-1,4.579907894E0
3.783191929E0,1.195433235E1,2.968623936E-1,4.522449017E0
3.785630992E0,1.172689247E1,2.394040227E-1,4.383591652E0
3.788070836E0,1.147790718E1,1.963102520E-1,4.256704807E0
3.790510679E0,1.127201366E1,1.340636909E-1,4.022082806E0
3.792949690E0,1.105654621E1,9.575811028E-2,3.816190004E0
3.795388752E0,1.079319477E1,5.984662473E-2,3.574385881E0
3.797828596E0,1.052026653E1,2.154104412E-2,3.354128838E0
3.800268440E0,1.022100449E1,2.393514663E-2,3.143448114E0
3.802707450E0,9.919348717E0,2.872334421E-2,2.973467112E0
3.805146513E0,9.622479439E0,-1.197633147E-2,2.827427149E0
3.807586356E0,9.287306786E0,-3.591732308E-2,2.717298746E0
3.810026200E0,8.913826942E0,-5.985831097E-2,2.626322985E0
3.812465263E0,8.566682816E0,-9.576979280E-2,2.597593784E0
3.814904325E0,8.303331375E0,-1.221048757E-1,2.602381945E0
3.817344117E0,8.039980888E0,-1.604104638E-1,2.564076424E0
3.819783961E0,7.824512959E0,-2.130806297E-1,2.523376703E0
3.822223023E0,7.594679356E0,-3.208150864E-1,2.504223824E0
3.824662086E0,7.374421597E0,-3.567265570E-1,2.465918541E0
3.827101929E0,7.120647907E0,-4.213672280E-1,2.444371462E0
3.829541773E0,6.874055386E0,-4.644609988E-1,2.408459902E0
3.831980783E0,6.675345421E0,-4.644609988E-1,2.334243059E0
3.834419846E0,6.553246021E0,-4.429140985E-1,2.212143898E0
3.836859690E0,6.488605022E0,-3.686970770E-1,2.113985777E0
3.839299533E0,6.443117619E0,-2.753272057E-1,1.991886854E0
3.841738544E0,6.486211300E0,-1.436517686E-1,1.888940573E0
3.844177606E0,6.658586025E0,-1.197633147E-2,1.778811932E0
3.846617450E0,6.981789589E0,1.412459761E-1,1.644742489E0
3.849057294E0,7.340904713E0,3.064388037E-1,1.532219887E0
3.851496356E0,7.723960400E0,4.644492865E-1,1.446032286E0
3.853935419E0,8.044769287E0,6.009129286E-1,1.388573885E0
3.856375211E0,8.334455490E0,7.301942706E-1,1.347874165E0
3.858815054E0,8.604988098E0,8.522933125E-1,1.340692043E0
3.861254117E0,8.846792221E0,9.552395344E-1,1.405332565E0
3.863693179E0,8.976074219E0,9.911509752E-1,1.467579365E0
3.866133023E0,9.071837425E0,1.077338576E0,1.587284088E0
3.868572867E0,9.196331024E0,1.153949738E0,1.752476931E0
3.871011877E0,9.277729988E0,1.242531419E0,1.965551615E0
3.873450940E0,9.361523628E0,1.323930740E0,2.188202858E0
3.875890783E0,9.440528870E0,1.410118341E0,2.401277781E0
3.878330627E0,9.526717186E0,1.479547143E0,2.674204826E0
3.880769638E0,9.586568832E0,1.532217383E0,2.872915268E0
3.883208700E0,9.644026756E0,1.639951706E0,3.062048912E0
3.885648544E0,9.792460442E0,1.778809547E0,3.270335436E0
3.888088388E0,9.955259323E0,1.924849510E0,3.457075119E0
3.890527450E0,1.010369396E1,2.054131031E0,3.562415361E0
3.892966513E0,1.021621704E1,2.192988396E0,3.643815041E0
3.895406304E0,1.030479908E1,2.221717834E0,3.703667402E0
3.897846148E0,1.034310341E1,2.260023594E0,3.780278444E0
3.900285211E0,1.040056229E1,2.255235195E0,3.828160524E0
3.902724273E0,1.042929173E1,2.207353354E0,3.825766325E0
3.905164117E0,1.049153805E1,2.154683113E0,3.854495764E0
3.907603961E0,1.049632645E1,2.102012634E0,3.873648405E0
3.910042971E0,1.052744961E1,2.013431311E0,3.883224726E0
3.912482033E0,1.047956753E1,1.905696750E0,3.873648405E0
3.914921877E0,1.042210865E1,1.783597708E0,3.911953926E0
3.917361721E0,1.038140965E1,1.702198386E0,3.938288927E0
3.919800783E0,1.038380337E1,1.613616705E0,3.993353605E0
3.922239846E0,1.027128029E1,1.515458584E0,3.945471525E0
3.924679638E0,1.015157604E1,1.426877022E0,3.842525244E0
3.927119481E0,1.002468872E1,1.309566140E0,3.775490522E0
3.929558544E0,9.828372955E0,1.228166819E0,3.710849762E0
3.931997606E0,9.608116150E0,1.173102498E0,3.672544241E0
3.934437450E0,9.220272064E0,1.127614617E0,3.641420603E0
3.936877294E0,8.997620583E0,1.058185697E0,3.627056122E0
3.939316304E0,8.858762741E0,1.005515575E0,3.598326921E0
3.941755367E0,8.700751305E0,9.169340134E-1,3.574385881E0
3.944195211E0,8.640899658E0,8.714461327E-1,3.576780081E0
3.946635054E0,8.604988098E0,7.804703712E-1,3.562415361E0
3.949074065E0,8.604988098E0,6.631594896E-1,3.595932961E0
3.951513127E0,8.480494499E0,5.602132678E-1,3.639026642E0
3.953952971E0,8.394308090E0,4.548729062E-1,3.624662161E0
3.956392815E0,8.375154495E0,3.710794747E-1,3.619874001E0
3.958831825E0,8.288967133E0,2.513745427E-1,3.622267962E0
3.961270888E0,8.150109291E0,1.508223712E-1,3.605509520E0
3.963710731E0,7.977734566E0,5.745252967E-2,3.588750601E0
3.966150575E0,7.774236202E0,-4.549372196E-2,3.538474798E0
3.968589638E0,7.606649876E0,-1.149225831E-1,3.540868759E0
3.971028700E0,7.520462036E0,-2.394157201E-1,3.449892998E0
3.973468544E0,7.515673637E0,-3.184209764E-1,3.330188036E0
3.975908388E0,7.508491516E0,-3.543324769E-1,3.234423876E0
3.978347398E0,7.357663155E0,-3.950321376E-1,3.162600994E0
3.980786461E0,7.266687870E0,-4.189731181E-1,3.105142593E0
3.983226304E0,7.099100590E0,-4.692491889E-1,3.045290232E0
3.985666148E0,6.950666904E0,-4.979783893E-1,3.018955231E0
3.988105158E0,6.818991184E0,-5.267075300E-1,2.961496592E0
3.990544221E0,6.704074383E0,-4.955842793E-1,2.930373430E0
3.992984065E0,6.617886543E0,-4.548845887E-1,2.884885788E0
3.995423908E0,6.629857063E0,-4.070026278E-1,2.813062668E0
3.997862971E0,6.723227024E0,-3.591206670E-1,2.731663227E0
4.000302033E0,6.797444344E0,-3.279973865E-1,2.652657986E0
4.002741877E0,6.874055386E0,-2.657507956E-1,2.595199585E0
4.005181721E0,6.900390148E0,-1.939278394E-1,2.576046944E0
4.007620731E0,6.926725864E0,-1.268930733E-1,2.595199585E0
4.010059794E0,6.955454826E0,-5.507011339E-2,2.683781147E0
4.012499638E0,7.022489071E0,9.570553899E-3,2.741239786E0
4.014939481E0,7.053612709E0,9.570553899E-3,2.779545307E0
4.017378492E0,7.005730629E0,-7.188133895E-3,2.789121628E0
4.019817554E0,7.075159550E0,-1.676453277E-2,2.829821348E0
4.022257398E0,7.149376869E0,-1.005579904E-1,2.841791868E0
4.024697242E0,7.297810555E0,-4.549372196E-2,2.853762388E0
4.027136252E0,7.465397835E0,-2.394682914E-2,2.899250269E0
4.029575315E0,7.644955158E0,6.942303479E-2,2.927979469E0
4.032015158E0,7.755083561E0,1.651869714E-1,2.975861549E0
4.034455002E0,7.855635643E0,2.274335325E-1,3.033319712E0
4.036894065E0,7.905911922E0,2.322217524E-1,3.076413393E0
4.039333127E0,7.829300880E0,1.987043321E-1,3.105142593E0
4.041772971E0,7.783812523E0,1.125167906E-1,3.117113113E0
4.044212815E0,7.755083561E0,-5.848705769E-6,3.083595753E0
4.046651825E0,7.776630878E0,-2.394682914E-2,3.052472353E0
4.049090888E0,7.850847721E0,1.077286005E-1,3.117113113E0
4.051530731E0,7.992099285E0,1.508223712E-1,3.164995193E0
4.053970575E0,8.083074570E0,1.388518810E-1,3.244000435E0
4.056409586E0,8.212356567E0,9.336401522E-2,3.368493557E0
4.058848648E0,8.334455490E0,1.101226956E-1,3.528898239E0
4.061288492E0,8.525982857E0,7.181712985E-2,3.655785561E0
4.063728336E0,8.679205894E0,5.505843461E-2,3.749155283E0
4.066167398E0,8.827639580E0,3.590563685E-2,3.794643164E0
4.068606461E0,8.906644821E0,7.176451385E-3,3.864071846E0
4.071046304E0,8.937767982E0,1.675284654E-2,3.883224726E0
4.073486148E0,8.937767982E0,-1.197633147E-2,3.897589445E0
4.075925158E0,8.985650063E0,-8.619339764E-2,3.868860245E0
4.078364221E0,8.992832184E0,-1.412576735E-1,3.871254206E0
4.080804065E0,8.966496468E0,-1.221048757E-1,3.883224726E0
4.083243908E0,8.978467941E0,-6.704060733E-2,3.947865486E0
4.085682919E0,8.909038544E0,-4.070552066E-2,4.014900208E0
4.088121981E0,8.796515465E0,-6.464651227E-2,4.067570686E0
4.090561825E0,8.734270096E0,-7.901109755E-2,4.103482246E0
4.093001669E0,8.667234421E0,-1.101343855E-1,4.148970127E0
4.095440679E0,8.581048012E0,-1.197107807E-1,4.199246407E0
4.097879742E0,8.535559654E0,-1.436517686E-1,4.237551689E0
4.100319586E0,8.509224892E0,-1.675927490E-1,4.278251171E0
4.102759429E0,8.530770302E0,-2.178688347E-1,4.338103771E0
4.105198492E0,8.509224892E0,-2.633566856E-1,4.369227409E0
4.107637554E0,8.430218697E0,-3.160268664E-1,4.441050053E0
4.110077398E0,8.284179688E0,-3.830616176E-1,4.460202694E0
4.112517242E0,8.205173492E0,-4.524905086E-1,4.472173214E0
4.114956252E0,8.097438812E0,-5.458603501E-1,4.462596893E0
4.117395315E0,7.982523441E0,-6.344420314E-1,4.457808495E0
4.119835158E0,7.903517723E0,-6.966885924E-1,4.424291134E0
4.122275002E0,7.877182961E0,-7.541469336E-1,4.397956371E0
4.124714013E0,7.855635643E0,-8.044229746E-1,4.374015331E0
4.127153075E0,7.877182961E0,-8.594872952E-1,4.321345329E0
4.129592919E0,7.903517723E0,-8.810341954E-1,4.314162731E0
4.132032763E0,7.896335602E0,-9.097633958E-1,4.340497494E0
4.134471825E0,7.877182961E0,-9.384925365E-1,4.352468014E0
4.136910888E0,7.800571918E0,-9.504630566E-1,4.376409054E0
4.139350679E0,7.771842003E0,-9.408866167E-1,4.429079533E0
4.141790523E0,7.740719318E0,-9.241279364E-1,4.462596893E0
4.144229586E0,7.719172001E0,-8.882164955E-1,4.508084774E0
4.146668648E0,7.721566200E0,-7.948466539E-1,4.541602135E0
4.149108492E0,7.719172001E0,-7.397823930E-1,4.575119495E0
4.151548336E0,7.700019360E0,-6.751416922E-1,4.589484215E0
4.153987346E0,7.704807758E0,-5.865600109E-1,4.611031055E0
4.156426408E0,7.688048840E0,-4.931901991E-1,4.632578373E0
4.158866252E0,7.709595680E0,-3.902439475E-1,4.661307335E0
4.161306096E0,7.728748798E0,-2.992681861E-1,4.692430019E0
4.163745158E0,7.781418800E0,-1.939278394E-1,4.778618336E0
4.166184221E0,7.793389320E0,-1.316812634E-1,4.826500416E0
4.168624013E0,7.841271400E0,4.782356322E-3,4.900717258E0
4.171063856E0,7.838877201E0,1.220932007E-1,4.939022541E0
4.173502919E0,7.858029842E0,2.250394225E-1,4.972540379E0
4.175941981E0,7.901123524E0,2.777096331E-1,5.008451462E0
4.178381825E0,7.956187725E0,3.447443843E-1,5.039574623E0
4.180821669E0,8.054346085E0,4.189614356E-1,5.041968822E0
4.183260679E0,8.128562927E0,4.524788260E-1,5.039574623E0
4.185699742E0,8.174050331E0,5.027548671E-1,5.046757221E0
4.188139586E0,8.214750290E0,5.362722278E-1,5.041968822E0
4.190579429E0,8.281785011E0,5.554250479E-1,5.029998302E0
4.193018440E0,8.298543930E0,5.793660879E-1,5.037180901E0
4.195457502E0,8.327272415E0,5.578191876E-1,5.039574623E0
4.197897346E0,8.346426010E0,5.769719481E-1,5.049150944E0
4.200337190E0,8.399095535E0,5.650014281E-1,5.058727741E0
4.202776252E0,8.444583893E0,5.769719481E-1,5.082668781E0
4.205215315E0,8.478100777E0,5.937306285E-1,5.130550861E0
4.207655106E0,8.497253418E0,5.937306285E-1,5.171250343E0
4.210094950E0,8.530770302E0,5.961247683E-1,5.221526146E0
4.212534013E0,8.588230133E0,6.128834486E-1,5.240679264E0
4.214973075E0,8.621747017E0,5.817601085E-1,5.283772469E0
4.217412919E0,8.660052299E0,5.434545875E-1,5.324472904E0
4.219852763E0,8.724692345E0,4.836021066E-1,5.353201866E0
4.222291773E0,8.741452217E0,4.452965260E-1,5.393901348E0
4.224730836E0,8.789333344E0,4.069909453E-1,5.413053989E0
4.227170679E0,8.844397545E0,3.998086452E-1,5.453753471E0
4.229610523E0,8.887492180E0,3.926263452E-1,5.453753471E0
4.232049586E0,8.954526901E0,3.255915940E-1,5.480088711E0
4.234488648E0,9.004802704E0,2.968623936E-1,5.518394470E0
4.236928440E0,9.014378548E0,2.106748521E-1,5.523182869E0
4.239368283E0,9.007196426E0,1.220932007E-1,5.518394470E0
4.241807346E0,9.007196426E0,1.196465641E-2,5.494453907E0
4.244246408E0,8.959314346E0,-7.422290742E-2,5.492059231E0
4.246686252E0,8.966496468E0,-1.604104638E-1,5.453753471E0
4.249126096E0,8.985650063E0,-2.322334200E-1,5.439389229E0
4.251565106E0,8.992832184E0,-2.992681861E-1,5.384325027E0
4.254004169E0,8.968891144E0,-3.519383371E-1,5.362778187E0
4.256444013E0,8.954526901E0,-3.663029373E-1,5.334048748E0
4.258883856E0,8.923403740E0,-3.878498375E-1,5.295742989E0
4.261322867E0,8.832427979E0,-3.423619568E-1,5.271801949E0
4.263761929E0,8.760604858E0,-2.513862252E-1,5.269408226E0
4.266201773E0,8.707934380E0,-1.460458636E-1,5.250255108E0
4.268641617E0,8.621747017E0,-2.394682914E-2,5.278984547E0
4.271080679E0,8.602593422E0,1.316695958E-1,5.219131947E0
4.273519742E0,8.557106972E0,2.801037133E-1,5.216738224E0
4.275959586E0,8.561894417E0,4.692375064E-1,5.250255108E0
4.278399429E0,8.456553459E0,6.224598289E-1,5.307713509E0
4.280838440E0,8.375154495E0,8.091995716E-1,5.314896107E0
4.283277502E0,8.351213455E0,9.672100544E-1,5.329260826E0
4.285717346E0,8.293755531E0,1.101279616E0,5.369960308E0
4.288157190E0,8.267419815E0,1.213802218E0,5.425024509E0
4.290596200E0,8.193202972E0,1.302383900E0,5.492059231E0
4.293035263E0,8.195597649E0,1.364630461E0,5.568670750E0
4.295475106E0,8.166868210E0,1.441241622E0,5.664434910E0
4.297914950E0,8.159686089E0,1.496305823E0,5.717104912E0
4.300354013E0,8.133350372E0,1.515458584E0,5.798504353E0
4.302793075E0,8.083074570E0,1.601646304E0,5.824839115E0
4.305232919E0,8.114197731E0,1.666286826E0,5.891873837E0
4.307672763E0,8.126168251E0,1.711774707E0,5.961302757E0
4.310111773E0,8.130956650E0,1.747686267E0,6.021155357E0
4.312550836E0,8.118986130E0,1.781203628E0,6.119313240E0
4.314990679E0,8.042375565E0,1.797962427E0,6.174377918E0
4.317430523E0,8.018434525E0,1.819509268E0,6.241412163E0
4.319869533E0,7.987310886E0,1.821903229E0,6.318023682E0
4.322308596E0,7.977734566E0,1.826691508E0,6.387452126E0
4.324748440E0,7.937035084E0,1.819509268E0,6.466457844E0
4.327188283E0,7.944217205E0,1.781203628E0,6.586162567E0
4.329627346E0,7.965764046E0,1.733321667E0,6.696290970E0
4.332066408E0,8.016039848E0,1.687833786E0,6.806419849E0
4.334506200E0,8.013646126E0,1.709380627E0,6.933306694E0
4.336946044E0,7.958582401E0,1.675863266E0,7.057800293E0
4.339385106E0,7.984917164E0,1.651922226E0,7.158352375E0
4.341824169E0,7.977734566E0,1.659104586E0,7.222992897E0
4.344264013E0,8.018434525E0,1.695016146E0,7.301998138E0
4.346703856E0,7.999281406E0,1.685439587E0,7.392973900E0
4.349142867E0,8.018434525E0,1.683045626E0,7.450432301E0
4.351581929E0,8.025616646E0,1.663892746E0,7.455220222E0
4.354021773E0,8.011251450E0,1.639951706E0,7.464796543E0
4.356461617E0,8.016039848E0,1.594463825E0,7.462402821E0
4.358900679E0,8.039980888E0,1.551370144E0,7.455220222E0
4.361339742E0,8.068710327E0,1.539399624E0,7.404943943E0
4.363779586E0,8.078287125E0,1.496305823E0,7.352274418E0
4.366219429E0,8.099833488E0,1.443635702E0,7.278057098E0
4.368658440E0,8.140533447E0,1.381389141E0,7.191869736E0
4.371097502E0,8.197991371E0,1.335901260E0,7.153563499E0
4.373537346E0,8.346426010E0,1.302383900E0,7.108076096E0
4.375977190E0,8.482889175E0,1.223378658E0,7.081741333E0
4.378416200E0,8.705540657E0,1.130008698E0,7.029070854E0
4.380855263E0,8.995226860E0,9.648159742E-1,6.971611977E0
4.383295106E0,9.359129906E0,7.589234114E-1,6.892607212E0
4.385734950E0,9.713456154E0,4.931784868E-1,6.736990452E0
4.388174013E0,1.009172344E1,2.130689323E-1,6.509551048E0
4.390613075E0,1.053463173E1,-7.901109755E-2,6.188742161E0
4.393052867E0,1.093444633E1,-3.854557574E-1,5.776957035E0
4.395492711E0,1.133665466E1,-7.110531926E-1,5.271801949E0
4.397931773E0,1.172449875E1,-1.007921457E0,4.747494698E0
4.400370836E0,1.216022491E1,-1.266484141E0,4.144181728E0
4.402810679E0,1.257201004E1,-1.537017226E0,3.497774839E0
4.405250523E0,1.298618889E1,-1.783609390E0,2.868126869E0
4.407689533E0,1.335248566E1,-1.970349073E0,2.257631779E0
4.410128596E0,1.371160030E1,-2.123571396E0,1.623195648E0
4.412568440E0,1.403480339E1,-2.315099239E0,1.041429520E0
4.415008283E0,1.423590851E1,-2.458745241E0,5.099396706E-1
4.417447346E0,1.434364319E1,-2.537750483E0,5.984915048E-2
4.419886408E0,1.440110207E1,-2.626332283E0,-3.447535336E-1
4.422326200E0,1.447052956E1,-2.621543884E0,-6.823214293E-1
4.424766044E0,1.445377159E1,-2.607179403E0,-9.145490527E-1
4.427205106E0,1.431491375E1,-2.616755724E0,-1.096500397E0
4.429644169E0,1.411859798E1,-2.556903362E0,-1.192264557E0
4.432084013E0,1.392706966E1,-2.446774721E0,-1.290422440E0
4.434523856E0,1.365893078E1,-2.255246639E0,-1.283240318E0
4.436962867E0,1.338839817E1,-1.927255392E0,-1.223387718E0
4.439401929E0,1.314419937E1,-1.479558825E0,-1.168323517E0
4.441841773E0,1.295506573E1,-9.863744974E-1,-1.098894596E0
4.444281617E0,1.271326160E1,-5.889541507E-1,-9.839779139E-1
4.446720679E0,1.251455212E1,-2.370216101E-1,-8.307555318E-1
4.449159742E0,1.231584167E1,2.388253808E-3,-6.057103276E-1
4.451599533E0,1.208600807E1,1.915220618E-1,-2.394132018E-1
4.454039377E0,1.194236183E1,3.615030646E-1,1.268839091E-1
4.456478440E0,1.178195763E1,4.452965260E-1,6.152800918E-1
4.458917502E0,1.158085251E1,5.003607869E-1,1.197046041E0
4.461357346E0,1.137496090E1,5.578191876E-1,1.826694012E0
4.463797190E0,1.123610306E1,6.368244290E-1,2.489859343E0
4.466236200E0,1.108288097E1,6.679477096E-1,3.129083633E0
4.468675263E0,1.092247581E1,7.206178904E-1,3.684514761E0
4.471115106E0,1.074770641E1,7.804703712E-1,4.163334846E0
4.473554950E0,1.059687901E1,8.044112921E-1,4.503296852E0
4.475993961E0,1.045323277E1,8.522933125E-1,4.737918377E0
4.478433023E0,1.033113384E1,9.241162539E-1,4.836076260E0
4.480872867E0,1.023776340E1,9.696041346E-1,4.852835178E0
4.483312711E0,1.024255180E1,1.077338576E0,4.728341579E0
4.485751773E0,1.039338017E1,1.170708537E0,4.539208412E0
4.488190836E0,1.050111485E1,1.242531419E0,4.268674850E0
4.490630679E0,1.060645485E1,1.271260619E0,4.002930164E0
4.493070523E0,1.074052429E1,1.302383900E0,3.722820282E0
4.495509533E0,1.083628845E1,1.321536660E0,3.452286959E0
4.497948596E0,1.093684101E1,1.283231139E0,3.162600994E0
4.500388440E0,1.090571690E1,1.192255378E0,2.906432390E0
4.502828283E0,1.086980534E1,1.132402897E0,2.662234545E0
4.505267346E0,1.089135265E1,1.007909775E0,2.475494623E0
4.507706408E0,1.091768742E1,8.882048130E-1,2.331848621E0
4.510146200E0,1.091768742E1,7.445588708E-1,2.250449419E0
4.512586044E0,1.085304642E1,6.104893088E-1,2.219326258E0
4.515025106E0,1.085783482E1,4.836021066E-1,2.288754940E0
4.517464169E0,1.083628845E1,3.758676648E-1,2.420430422E0
4.519904013E0,1.075010109E1,2.202512622E-1,2.583229303E0
4.522343856E0,1.063039589E1,1.077286005E-1,2.815456629E0
4.524782867E0,1.057533169E1,-1.915863156E-2,3.078807592E0
4.527221929E0,1.051547909E1,-1.723809540E-1,3.291882515E0
4.529661773E0,1.046759701E1,-3.591206670E-1,3.603115082E0
4.532101617E0,1.042450333E1,-5.027666092E-1,3.842525244E0
4.534540627E0,1.037422657E1,-6.344420314E-1,4.038841248E0
4.536979690E0,1.033592129E1,-7.517528534E-1,4.232763767E0
4.539419533E0,1.031198120E1,-8.690636754E-1,4.424291134E0
4.541859377E0,1.027846336E1,-9.480689168E-1,4.570331097E0
4.544298440E0,1.022579288E1,-1.086926699E0,4.694824696E0
4.546737502E0,1.017551708E1,-1.223390222E0,4.785799980E0
4.549177346E0,1.011805916E1,-1.350277543E0,4.850440502E0
4.551617190E0,1.007975292E1,-1.448435664E0,4.881564140E0
4.554056200E0,1.005581188E1,-1.558564186E0,4.879170418E0
4.556495263E0,1.000074768E1,-1.711786509E0,4.764253139E0
4.558935106E0,9.907378197E0,-1.795579910E0,4.740312099E0
4.561374950E0,9.770915031E0,-1.850644112E0,4.840864658E0
4.563814013E0,9.715849876E0,-1.898526073E0,4.917475700E0
4.566253075E0,9.672757149E0,-1.979925513E0,4.996480942E0
4.568692867E0,9.598538399E0,-2.006260633E0,5.049150944E0
4.571132711E0,9.593750954E0,-2.001472473E0,5.149703026E0
4.573571773E0,9.586568832E0,-1.920073032E0,5.223920345E0
4.576010836E0,9.598538399E0,-1.838673592E0,5.276590824E0
4.578450679E0,9.605721474E0,-1.742909789E0,5.286166668E0
4.580890523E0,9.572203636E0,-1.683057308E0,5.188008785E0
4.583329533E0,9.435740471E0,-1.627992988E0,5.056333065E0
4.585768596E0,9.275335312E0,-1.594475627E0,4.927052021E0
4.588208440E0,9.169995308E0,-1.529834986E0,4.773829460E0
4.590648283E0,9.040713310E0,-1.448435664E0,4.608637333E0
4.593087346E0,8.870732307E0,-1.400553584E0,4.429079533E0
4.595526408E0,8.796515465E0,-1.319154263E0,4.304586411E0
4.597966200E0,8.638505936E0,-1.244937301E0,4.163334846E0
4.600406044E0,8.482889175E0,-1.156355500E0,4.024477005E0
4.602845106E0,8.320090294E0,-1.072561979E0,3.873648405E0
4.605284169E0,8.118986130E0,-8.666695356E-1,3.643815041E0
4.607724013E0,7.798177242E0,-5.721954107E-1,3.449892998E0
4.610163856E0,7.510885715E0,-3.208150864E-1,3.323005676E0
4.612602867E0,7.281052113E0,-6.464651227E-2,3.162600994E0
4.615041929E0,7.082341671E0,2.034925520E-1,3.121901512E0
4.617481773E0,7.003336906E0,4.931784868E-1,3.085989952E0
4.619921617E0,6.957848549E0,7.469530106E-1,3.045290232E0
4.622360679E0,6.909966946E0,9.839687347E-1,3.014166832E0
4.624799742E0,6.804626465E0,1.165920258E0,3.078807592E0
4.627239586E0,6.708862782E0,1.304777980E0,3.133872032E0
4.629679429E0,6.574793339E0,1.390965462E0,3.172177553E0
4.632118440E0,6.459876060E0,1.472364902E0,3.167389154E0
4.634557502E0,6.378476620E0,1.589675784E0,3.167389154E0
4.636997346E0,6.354535580E0,1.687833786E0,3.097960472E0
4.639437190E0,6.301865578E0,1.850632548E0,3.026137352E0
4.641876200E0,6.258771896E0,1.946396589E0,2.932767630E0
4.644315263E0,6.105549812E0,1.994278431E0,2.815456629E0
4.646755106E0,5.940356731E0,2.056524992E0,2.772362947E0
4.649194950E0,5.753617287E0,2.082859993E0,2.722086906E0
4.651634013E0,5.571665764E0,2.142712593E0,2.714904785E0
4.654073075E0,5.588424206E0,2.142712593E0,2.686175346E0
4.656512867E0,5.665035248E0,2.094830513E0,2.683781147E0
4.658952711E0,5.705735207E0,2.066101551E0,2.741239786E0
4.661391773E0,5.763193607E0,2.003854752E0,2.834609509E0
4.663830836E0,5.844592571E0,1.922455549E0,2.961496592E0
4.666270679E0,5.854169369E0,1.826691508E0,3.030925751E0
4.668710523E0,5.746434689E0,1.776415348E0,3.155418634E0
4.671149533E0,5.688976288E0,1.642345905E0,3.260759115E0
4.673588596E0,5.765587807E0,1.491517663E0,3.334976196E0
4.676028440E0,5.964297771E0,1.347871780E0,3.344552755E0
4.678468283E0,6.122308254E0,1.249713778E0,3.416375399E0
4.680907346E0,6.361718178E0,1.144373417E0,3.548050880E0
4.683346408E0,6.598733902E0,1.000727415E0,3.674938202E0
4.685786252E0,6.747168064E0,9.073575735E-1,3.876042366E0
4.688226096E0,6.953060627E0,7.541352510E-1,4.065176487E0
4.690665106E0,7.206835270E0,6.727359295E-1,4.354862690E0
4.693104169E0,7.518067837E0,6.559771895E-1,4.587090015E0
4.695544013E0,7.764660358E0,6.272480488E-1,4.742706776E0
4.697983856E0,7.848453522E0,6.320362687E-1,4.864805698E0
4.700422867E0,7.908306122E0,6.990709901E-1,4.979722023E0
4.702861929E0,7.975340843E0,7.349824905E-1,4.984510899E0
4.705301773E0,8.073498726E0,7.589234114E-1,5.058727741E0
4.707741617E0,8.150109291E0,8.115936518E-1,5.123368263E0
4.710180679E0,8.274602890E0,8.594756126E-1,5.144915104E0
4.712619742E0,8.427824974E0,8.714461327E-1,5.223920345E0
4.715059586E0,8.600199699E0,8.642638326E-1,5.314896107E0
4.717499429E0,8.707934380E0,8.762342930E-1,5.391507149E0
4.719938440E0,8.789333344E0,8.642638326E-1,5.468118191E0
4.722377502E0,8.818062782E0,9.336926937E-1,5.492059231E0
4.724817346E0,8.844397545E0,9.719982147E-1,5.513606071E0
4.727257190E0,8.863551140E0,9.815746546E-1,5.487271309E0
4.729696252E0,8.801304817E0,1.003121495E0,5.456147671E0
4.732135315E0,8.664840698E0,1.113250136E0,5.420236111E0
4.734575106E0,8.576258659E0,1.213802218E0,5.377142906E0
4.737014950E0,8.523589134E0,1.295201659E0,5.281378746E0
4.739454013E0,8.418249130E0,1.426877022E0,5.214344025E0
4.741893075E0,8.250661850E0,1.553764224E0,5.118580341E0
4.744332919E0,8.114197731E0,1.683045626E0,5.027604103E0
4.746772763E0,7.994493961E0,1.793174148E0,4.929446220E0
4.749211773E0,8.054346085E0,1.845844269E0,4.905505180E0
4.751650836E0,8.209961891E0,1.888938069E0,4.871987820E0
4.754090679E0,8.281785011E0,1.924849510E0,4.833682060E0
4.756530523E0,8.236297607E0,2.015825272E0,4.809741020E0
4.758969586E0,8.138138771E0,2.020613432E0,4.790588856E0
4.761408648E0,8.047163010E0,1.991884470E0,4.754677296E0
4.763848492E0,7.989705563E0,1.999066591E0,4.692430019E0
4.766288336E0,7.946611881E0,2.027795792E0,4.670883656E0
4.768727346E0,7.867606163E0,1.989490271E0,4.682854176E0
4.771166408E0,7.759871960E0,1.989490271E0,4.706795216E0
4.773606252E0,7.733536720E0,1.977519751E0,4.713977337E0
4.776046096E0,7.719172001E0,1.927243710E0,4.711583138E0
4.778485106E0,7.637772560E0,1.900908589E0,4.702006817E0
4.780924169E0,7.630590916E0,1.841056108E0,4.668488979E0
4.783364013E0,7.654531956E0,1.824297428E0,4.678065777E0
4.785803856E0,7.683260918E0,1.793174148E0,4.668488979E0
4.788242919E0,7.707201958E0,1.795568228E0,4.675671577E0
4.790681981E0,7.757477760E0,1.785991907E0,4.687642097E0
4.793121773E0,7.802965641E0,1.769233108E0,4.709189415E0
4.795561617E0,7.767054081E0,1.730927467E0,4.728341579E0
4.798000679E0,7.740719318E0,1.699804306E0,4.752282619E0
4.800439742E0,7.767054081E0,1.589675784E0,4.809741020E0
4.802879586E0,7.802965641E0,1.515458584E0,4.821711540E0
4.805319429E0,7.822118282E0,1.407724261E0,4.848046780E0
4.807758440E0,7.858029842E0,1.271260619E0,4.838469982E0
4.810197502E0,7.817330360E0,1.110856056E0,4.876776218E0
4.812637346E0,7.743113041E0,9.767864943E-1,4.891140461E0
4.815077190E0,7.635378838E0,8.570814729E-1,4.953387260E0
4.817516252E0,7.518067837E0,7.397707105E-1,4.979722023E0
4.819955315E0,7.391180515E0,6.392185092E-1,4.979722023E0
4.822395158E0,7.285840034E0,5.482427478E-1,5.008451462E0
4.824835002E0,7.211623192E0,5.051490068E-1,5.018027782E0
4.827274013E0,7.190076351E0,4.740256667E-1,5.061121464E0
4.829713075E0,7.146982670E0,4.285378456E-1,5.075486183E0
4.832152919E0,7.089524269E0,3.686853647E-1,5.101820946E0
4.834592763E0,7.010518551E0,3.303797841E-1,5.152097225E0
4.837031773E0,6.907572746E0,3.303797841E-1,5.197585106E0
4.839470836E0,6.842932224E0,2.848919034E-1,5.247861385E0
4.841910679E0,6.807020664E0,2.465863526E-1,5.302925587E0
4.844350523E0,6.799838066E0,2.202512622E-1,5.374748707E0
4.846789586E0,6.799838066E0,1.508223712E-1,5.417842388E0
4.849228648E0,6.797444344E0,8.857581019E-2,5.425024509E0
4.851668492E0,6.797444344E0,3.111743927E-2,5.439389229E0
4.854108336E0,6.807020664E0,-1.915863156E-2,5.501635551E0
4.856547346E0,6.869267464E0,-5.985831097E-2,5.539941311E0
4.858986408E0,6.965031147E0,-1.149225831E-1,5.606976032E0
4.861426252E0,7.032065868E0,-1.651986539E-1,5.709922314E0
4.863866096E0,7.130223751E0,-1.867455393E-1,5.774563313E0
4.866305158E0,7.175711632E0,-2.011101246E-1,5.875115395E0
4.868744221E0,7.245140553E0,-2.082924396E-1,5.961302757E0
4.871184065E0,7.245140553E0,-2.226570398E-1,6.071431160E0
4.873623908E0,7.336116314E0,-2.322334200E-1,6.140860081E0
4.876062919E0,7.415121555E0,-2.609626055E-1,6.258171082E0
4.878501981E0,7.496520996E0,-2.106865346E-1,6.382664204E0
4.880941825E0,7.549190998E0,-1.939278394E-1,6.471245766E0
4.883381669E0,7.635378838E0,-1.675927490E-1,6.559827328E0
4.885820679E0,7.752689838E0,-1.484399736E-1,6.617285728E0
4.888259742E0,7.867606163E0,-9.576979280E-2,6.667561531E0
4.890699586E0,7.977734566E0,-7.422290742E-2,6.732202530E0
4.893139429E0,8.123774529E0,-5.028191581E-2,6.823178291E0
4.895578492E0,8.286573410E0,-8.140520006E-2,6.914154053E0
4.898017554E0,8.444583893E0,-8.858749270E-2,6.962036133E0
4.900457398E0,8.569076538E0,-8.140520006E-2,7.014706135E0
4.902897242E0,8.703146935E0,-8.858749270E-2,7.067376137E0
4.905336252E0,8.832427979E0,-6.704060733E-2,7.117652893E0
4.907775315E0,8.976074219E0,-6.704060733E-2,7.165534019E0
4.910215158E0,9.280123711E0,-9.337569773E-2,7.280451298E0
4.912655002E0,9.598538399E0,-1.316812634E-1,7.282845020E0
4.915094065E0,9.821190834E0,-1.484399736E-1,7.218204498E0
4.917533127E0,9.952865601E0,-1.460458636E-1,7.179899216E0
4.919972919E0,1.003426456E1,-1.795632541E-1,7.139199257E0
4.922412763E0,1.002229500E1,-2.035042346E-1,7.110470295E0
4.924851825E0,1.005102348E1,-2.418098152E-1,7.036252975E0
4.927290888E0,1.007017708E1,-2.633566856E-1,6.940489292E0
4.929730731E0,1.016354656E1,-2.178688347E-1,6.844725132E0
4.932170575E0,1.028804016E1,-1.173166782E-1,6.784872532E0
4.934609586E0,1.037183285E1,-7.661700249E-2,6.684320450E0
4.937048648E0,1.046520233E1,-7.422290742E-2,6.686714649E0
4.939488492E0,1.049872112E1,-7.182880491E-2,6.689108849E0
4.941928336E0,1.049632645E1,-6.704060733E-2,6.689108849E0
4.944367346E0,1.063278961E1,-6.704060733E-2,6.650803089E0
4.946806408E0,1.081474209E1,-2.873502672E-2,6.610103607E0
4.949246304E0,1.097035789E1,3.590563685E-2,6.574192047E0
4.951686148E0,1.120737362E1,7.899941504E-2,6.550251007E0
4.954125158E0,1.138453674E1,1.532164812E-1,6.564615726E0
4.956564221E0,1.158803558E1,1.867338717E-1,6.586162567E0
4.959004065E0,1.172449875E1,1.963102520E-1,6.598133087E0
4.961443908E0,1.185138607E1,2.417981327E-1,6.641226768E0
4.963882919E0,1.205009651E1,3.064388037E-1,6.660379887E0
4.966321981E0,1.224641323E1,4.476906061E-1,6.684320450E0
4.968761825E0,1.246188164E1,5.338782072E-1,6.705867767E0
4.971201669E0,1.267735004E1,6.894946098E-1,6.732202530E0
4.973640731E0,1.285211945E1,8.929929733E-1,6.732202530E0
4.976079794E0,1.299815941E1,1.096491337E0,6.705867767E0
4.978519638E0,1.315616989E1,1.321536660E0,6.662773609E0
4.980959481E0,1.329502773E1,1.525035024E0,6.648409367E0
4.983398492E0,1.344346142E1,1.728533506E0,6.586162567E0
4.985837554E0,1.354401398E1,1.886543989E0,6.504763126E0
4.988277398E0,1.361823082E1,2.070889473E0,6.432940006E0
4.990717242E0,1.372357178E1,2.276782036E0,6.394634724E0
4.993156252E0,1.379060555E1,2.413245678E0,6.411393166E0
4.995595315E0,1.383370018E1,2.588015079E0,6.368299484E0
4.998035158E0,1.382172966E1,2.705325842E0,6.361117363E0
5.000475002E0,1.380257702E1,2.808271885E0,6.346752644E0
5.002914065E0,1.378102970E1,2.896853685E0,6.373087883E0
5.005353127E0,1.373554134E1,2.944735527E0,6.394634724E0
5.007792971E0,1.359907818E1,2.983041286E0,6.401816845E0
5.010232815E0,1.346500874E1,2.995011806E0,6.392240524E0
5.012671825E0,1.328545189E1,2.978252888E0,6.363511086E0
5.015110888E0,1.308195305E1,2.947129726E0,6.258171082E0
5.017550731E0,1.285690784E1,2.911218166E0,6.124101639E0
5.019990575E0,1.264143848E1,2.872912645E0,5.956514835E0
5.022429638E0,1.245709229E1,2.848971844E0,5.738651752E0
5.024868700E0,1.228950596E1,2.815454245E0,5.487271309E0
5.027308544E0,1.213867760E1,2.779542685E0,5.183220863E0
5.029748388E0,1.206446075E1,2.765178204E0,4.881564140E0
5.032187398E0,1.195672703E1,2.700537443E0,4.510478497E0
5.034626461E0,1.184181023E1,2.633502722E0,4.189669609E0
5.037066304E0,1.174365139E1,2.532950640E0,3.909559965E0
5.039506148E0,1.159761143E1,2.422821999E0,3.610297441E0
5.041945158E0,1.146833038E1,2.267205715E0,3.339764357E0
5.044384221E0,1.130792618E1,2.157077312E0,3.074019432E0
5.046824065E0,1.114512634E1,2.023007393E0,2.829821348E0
5.049263908E0,1.095120430E1,1.888938069E0,2.633505106E0
5.051702971E0,1.072616005E1,1.762050867E0,2.480283022E0
5.054142033E0,1.057054329E1,1.611222625E0,2.319878101E0
5.056581877E0,1.040295696E1,1.501094103E0,2.121168137E0
5.059021721E0,1.015157604E1,1.381389141E0,1.987098455E0
5.061460731E0,9.888224602E0,1.223378658E0,1.848240852E0
5.063899794E0,9.660785675E0,1.118038297E0,1.726141930E0
5.066339638E0,9.462076187E0,9.863628149E-1,1.558554888E0
5.068779481E0,9.318429947E0,8.475051522E-1,1.419697285E0
5.071218544E0,9.181965828E0,7.086473703E-1,1.283233643E0
5.073657606E0,9.069443703E0,5.458486676E-1,1.182681561E0
5.076097398E0,8.952133179E0,3.806558847E-1,1.106070280E0
5.078537242E0,8.806093216E0,2.561627030E-1,9.743948579E-1
5.080976304E0,8.669629097E0,1.484282762E-1,8.882073164E-1
5.083415367E0,8.537953377E0,5.984662473E-2,8.283548951E-1
5.085855211E0,8.332060814E0,-8.379930258E-2,7.349849939E-1
5.088295054E0,8.286573410E0,-2.226570398E-1,6.296446323E-1
5.090734065E0,8.197991371E0,-4.117908180E-1,5.817626715E-1
5.093173127E0,8.095045090E0,-5.458603501E-1,5.386688709E-1
5.095612971E0,7.996887684E0,-6.775358319E-1,5.171220303E-1
5.098052815E0,7.915488243E0,-7.780879140E-1,4.859987497E-1
