"Time (s)","Gyroscope x (rad/s)","Gyroscope y (rad/s)","Gyroscope z (rad/s)"
1.203721380E-1,9.653364867E-2,6.183717772E-2,6.545315683E-2
1.228116170E-1,9.409019351E-2,5.328506976E-2,6.423142552E-2
1.252502630E-1,9.042500705E-2,5.206334218E-2,6.545315683E-2
1.276896900E-1,8.920327574E-2,4.351123795E-2,6.178796291E-2
1.301298980E-1,8.553808182E-2,4.228950664E-2,6.178796291E-2
1.325693250E-1,8.675981313E-2,3.984604776E-2,6.178796291E-2
1.350079710E-1,8.309462667E-2,3.129393980E-2,6.056623906E-2
1.374473980E-1,7.820770890E-2,3.373740241E-2,6.056623906E-2
1.398876580E-1,7.576425374E-2,2.762875333E-2,5.812277645E-2
1.423270860E-1,7.576425374E-2,2.885048278E-2,5.934450775E-2
1.447657310E-1,7.209905982E-2,2.885048278E-2,5.812277645E-2
1.472051580E-1,7.087732852E-2,2.885048278E-2,5.690104514E-2
1.496453670E-1,6.476868689E-2,3.129393980E-2,5.323585868E-2
1.520848460E-1,6.476868689E-2,3.740258887E-2,5.323585868E-2
1.545234920E-1,6.232522428E-2,4.106777534E-2,5.201412737E-2
1.569629190E-1,6.232522428E-2,4.473296553E-2,5.323585868E-2
1.594031270E-1,5.499485135E-2,3.984604776E-2,5.079240352E-2
1.618425540E-1,5.499485135E-2,4.473296553E-2,4.957067221E-2
1.642812000E-1,5.255138874E-2,4.228950664E-2,4.712720960E-2
1.667206790E-1,4.888620228E-2,4.351123795E-2,4.712720960E-2
1.691608880E-1,4.277755320E-2,3.984604776E-2,4.346202314E-2
1.716003150E-1,4.399928451E-2,3.862432018E-2,4.590548575E-2
1.740389610E-1,4.277755320E-2,3.984604776E-2,4.346202314E-2
1.764783880E-1,3.911236674E-2,3.862432018E-2,3.857510537E-2
1.789185960E-1,3.911236674E-2,3.618085757E-2,3.368818387E-2
1.813580750E-1,3.911236674E-2,3.862432018E-2,3.490991518E-2
1.837967210E-1,3.911236674E-2,4.228950664E-2,3.246645629E-2
1.862361480E-1,3.666890785E-2,4.228950664E-2,2.880126610E-2
1.886763560E-1,3.789063543E-2,4.351123795E-2,2.757953852E-2
1.911157830E-1,3.544718027E-2,4.595469311E-2,2.635780908E-2
1.935544290E-1,3.300371766E-2,4.351123795E-2,2.391435020E-2
1.959938560E-1,3.056026064E-2,4.228950664E-2,2.269262075E-2
1.984341170E-1,2.445161343E-2,3.984604776E-2,2.147089131E-2
2.008735440E-1,1.834296621E-2,3.129393980E-2,2.024916187E-2
2.033121900E-1,1.101258863E-2,2.396356501E-2,1.902743243E-2
2.057516170E-1,1.223431807E-2,3.495912999E-2,1.780570298E-2
2.081918770E-1,1.345604751E-2,4.351123795E-2,1.414051466E-2
2.106313040E-1,1.712123677E-2,5.450680107E-2,1.169705577E-2
2.130699500E-1,1.956469566E-2,6.428064406E-2,9.253596887E-3
2.155093770E-1,2.078642510E-2,7.283274829E-2,9.253596887E-3
2.179495860E-1,1.834296621E-2,7.527621090E-2,1.169705577E-2
2.203890130E-1,1.223431807E-2,6.550237536E-2,1.169705577E-2
2.228276580E-1,1.101258863E-2,6.428064406E-2,1.169705577E-2
2.252671380E-1,7.347400766E-3,6.183717772E-2,6.810138468E-3
2.277073460E-1,4.903941881E-3,5.450680107E-2,5.588409025E-3
2.301467730E-1,1.238753553E-3,5.572853237E-2,4.366679583E-3
2.325854190E-1,-1.204705331E-3,5.084161460E-2,7.014912553E-4
2.350248460E-1,-6.091623101E-3,4.106777534E-2,-2.963697072E-3
2.374651060E-1,-8.535082452E-3,4.717642441E-2,-5.407155957E-3
2.399045330E-1,-9.756811894E-3,3.740258887E-2,-7.850615308E-3
2.423431790E-1,-1.220027078E-2,3.251567110E-2,-1.273753308E-2
2.447826060E-1,-1.097854134E-2,3.373740241E-2,-1.151580364E-2
2.472228150E-1,-1.097854134E-2,2.518529445E-2,-1.273753308E-2
2.496622940E-1,-1.220027078E-2,2.762875333E-2,-1.395926252E-2
2.521008880E-1,-1.220027078E-2,2.396356501E-2,-1.273753308E-2
2.545403670E-1,-1.220027078E-2,2.274183556E-2,-1.273753308E-2
2.569805750E-1,-1.708718762E-2,2.274183556E-2,-1.151580364E-2
2.594200020E-1,-2.197410539E-2,1.541145984E-2,-1.273753308E-2
2.618586480E-1,-2.930448204E-2,1.541145984E-2,-1.395926252E-2
2.642980750E-1,-2.808275074E-2,2.029837668E-2,-1.273753308E-2
2.667383360E-1,-2.808275074E-2,2.274183556E-2,-9.072344750E-3
2.691777630E-1,-3.052621335E-2,2.029837668E-2,-5.407155957E-3
2.716164080E-1,-3.174794093E-2,1.785491779E-2,-5.202381872E-4
2.740558360E-1,-3.052621335E-2,1.418973040E-2,-5.202381872E-4
2.764960440E-1,-2.197410539E-2,3.129393980E-2,4.366679583E-3
2.789355230E-1,-1.586546004E-2,4.351123795E-2,9.253596887E-3
2.813741690E-1,-1.097854134E-2,4.595469311E-2,1.047532633E-2
2.838135960E-1,-1.220027078E-2,4.717642441E-2,9.253596887E-3
2.862538040E-1,-1.708718762E-2,3.495912999E-2,-1.741967630E-3
2.886932310E-1,-1.830891520E-2,3.373740241E-2,-6.628885400E-3
2.911318770E-1,-2.197410539E-2,2.640702389E-2,-1.395926252E-2
2.935713040E-1,-1.953064650E-2,2.885048278E-2,-1.518099196E-2
2.960115650E-1,-1.586546004E-2,3.007221222E-2,-1.395926252E-2
2.984509920E-1,-1.464372966E-2,3.618085757E-2,-1.151580364E-2
3.008896380E-1,-1.586546004E-2,3.373740241E-2,-4.185426515E-3
3.033290650E-1,-1.464372966E-2,3.740258887E-2,-5.202381872E-4
3.057693250E-1,-1.464372966E-2,3.129393980E-2,-5.202381872E-4
3.082087520E-1,-1.708718762E-2,3.495912999E-2,3.144950140E-3
3.106473980E-1,-2.075237781E-2,3.129393980E-2,3.144950140E-3
3.130868250E-1,-2.075237781E-2,3.618085757E-2,4.366679583E-3
3.155270330E-1,-2.319583297E-2,3.862432018E-2,6.810138468E-3
3.179665130E-1,-2.319583297E-2,3.862432018E-2,6.810138468E-3
3.204051580E-1,-2.563929558E-2,4.228950664E-2,6.810138468E-3
3.228445860E-1,-2.686102316E-2,3.740258887E-2,1.923220698E-3
3.252847940E-1,-2.686102316E-2,3.862432018E-2,-2.963697072E-3
3.277242210E-1,-2.319583297E-2,3.740258887E-2,-9.072344750E-3
3.301628670E-1,-2.197410539E-2,3.740258887E-2,-1.762445085E-2
3.326022940E-1,-2.197410539E-2,3.862432018E-2,-2.373309806E-2
3.350425540E-1,-2.075237781E-2,3.740258887E-2,-2.862001397E-2
3.374819810E-1,-2.075237781E-2,4.351123795E-2,-3.350692987E-2
3.399206270E-1,-2.197410539E-2,4.839815199E-2,-3.717211634E-2
3.423600540E-1,-2.441756427E-2,5.695025995E-2,-3.472866118E-2
3.448003150E-1,-2.930448204E-2,5.572853237E-2,-3.106347658E-2
3.472397420E-1,-2.808275074E-2,5.450680107E-2,-2.739828639E-2
3.496783880E-1,-2.319583297E-2,6.061545014E-2,-2.495482750E-2
3.521178150E-1,-2.319583297E-2,5.328506976E-2,-2.251136862E-2
3.545580230E-1,-1.586546004E-2,2.762875333E-2,-7.850615308E-3
3.569975020E-1,-7.313352544E-3,-2.914482262E-3,3.144950140E-3
3.594360960E-1,3.682212438E-3,-1.879696548E-2,7.014912553E-4
3.618755750E-1,2.078642510E-2,-5.178365856E-2,1.047532633E-2
3.643157830E-1,5.621657893E-2,-1.030962914E-1,3.735337406E-2
3.667552110E-1,1.209682375E-1,-1.971694529E-1,5.079240352E-2
3.691938560E-1,1.771678030E-1,-2.570342422E-1,3.246645629E-2
3.716332830E-1,1.918285489E-1,-2.020563781E-1,-9.072344750E-3
3.740735440E-1,1.686156988E-1,-6.522268057E-2,-5.794151872E-2
3.765129710E-1,1.209682375E-1,1.241453886E-1,-9.581512958E-2
3.789516170E-1,6.721214205E-2,3.049613237E-1,-1.153628007E-1
3.813910440E-1,1.834296621E-2,4.466819167E-1,-1.153628007E-1
3.838313040E-1,-1.830891520E-2,5.407551527E-1,-1.019237787E-1
3.862707310E-1,-3.052621335E-2,5.761852860E-1,-8.115437627E-2
3.887093770E-1,-3.174794093E-2,5.578593612E-1,-6.527189910E-2
3.911488040E-1,-1.220027078E-2,5.199857354E-1,-5.427633226E-2
3.935890130E-1,1.223431807E-2,4.552340508E-1,-5.183286965E-2
3.960284920E-1,3.911236674E-2,4.039213955E-1,-4.938941449E-2
3.984671380E-1,5.988176912E-2,3.367262781E-1,-5.549806356E-2
4.009065650E-1,7.576425374E-2,2.793049812E-1,-6.282843649E-2
4.033467730E-1,8.431635797E-2,2.316575795E-1,-7.015880942E-2
4.057862000E-1,9.042500705E-2,1.901187748E-1,-7.871092111E-2
4.082248460E-1,8.431635797E-2,1.498017013E-1,-9.214994311E-2
4.106642730E-1,7.698597759E-2,1.155932844E-1,-9.948031604E-2
4.131045330E-1,7.332079113E-2,8.627177775E-2,-1.080324277E-1
4.155439610E-1,6.476868689E-2,6.428064406E-2,-1.165845320E-1
4.179826060E-1,5.499485135E-2,5.450680107E-2,-1.214714572E-1
4.204220330E-1,4.399928451E-2,3.740258887E-2,-1.288018376E-1
4.228622940E-1,3.911236674E-2,3.618085757E-2,-1.300235689E-1
4.253017210E-1,3.666890785E-2,2.518529445E-2,-1.275801063E-1
4.277403670E-1,3.789063543E-2,1.174627151E-2,-1.239149198E-1
4.301797940E-1,4.399928451E-2,-1.391004678E-2,-1.178062633E-1
4.326200020E-1,4.277755320E-2,-4.323155433E-2,-1.080324277E-1
4.350594810E-1,3.422544897E-2,-7.010959089E-2,-9.581512958E-2
4.374981270E-1,2.078642510E-2,-8.843554556E-2,-7.504573464E-2
4.399375540E-1,8.569129743E-3,-1.055397540E-1,-4.938941449E-2
4.423777630E-1,-2.426434774E-3,-1.275308728E-1,-2.739828639E-2
4.448172420E-1,-1.220027078E-2,-1.519654691E-1,-1.151580364E-2
4.472558880E-1,-1.464372966E-2,-1.739566028E-1,-9.072344750E-3
4.496953150E-1,-1.586546004E-2,-1.947259903E-1,-1.151580364E-2
4.521355230E-1,-1.342199836E-2,-2.106084824E-1,-1.395926252E-2
4.545749500E-1,-1.342199836E-2,-2.130519450E-1,-1.273753308E-2
4.570135960E-1,-7.313352544E-3,-2.081650198E-1,-9.072344750E-3
4.594530230E-1,-6.091623101E-3,-1.886173487E-1,-5.202381872E-4
4.618932830E-1,-2.426434774E-3,-1.739566028E-1,3.144950140E-3
4.643327110E-1,-1.204705331E-3,-1.556306481E-1,1.923220698E-3
4.667713560E-1,1.238753553E-3,-1.483002752E-1,-2.963697072E-3
4.692107830E-1,1.702408190E-5,-1.202004999E-1,-4.185426515E-3
4.716510440E-1,4.903941881E-3,-1.055397540E-1,-5.407155957E-3
4.740904710E-1,3.682212438E-3,-8.599208295E-2,-1.741967630E-3
4.765291170E-1,3.682212438E-3,-6.033576280E-2,6.810138468E-3
4.789685440E-1,4.903941881E-3,-4.323155433E-2,1.414051466E-2
4.814087520E-1,4.903941881E-3,-1.692752820E-3,2.757953852E-2
4.838482310E-1,9.790859185E-3,3.129393980E-2,3.735337406E-2
4.862868770E-1,9.790859185E-3,5.084161460E-2,3.857510537E-2
4.887263040E-1,1.223431807E-2,7.649793476E-2,4.712720960E-2
4.911665130E-1,1.101258863E-2,8.016312122E-2,4.590548575E-2
4.936059400E-1,7.347400766E-3,7.283274829E-2,4.468375444E-2
4.960445860E-1,1.702408190E-5,4.351123795E-2,4.224029183E-2
4.984840650E-1,-9.756811894E-3,4.415894393E-3,4.346202314E-2
5.009242730E-1,-2.075237781E-2,-4.811847210E-2,4.101856798E-2
5.033637000E-1,-2.686102316E-2,-9.454418719E-2,3.735337406E-2
5.058023460E-1,-2.930448204E-2,-1.336395293E-1,3.857510537E-2
5.082418250E-1,-2.686102316E-2,-1.580741107E-1,3.979683667E-2
5.106820330E-1,-2.197410539E-2,-1.739566028E-1,3.857510537E-2
5.131214610E-1,-2.319583297E-2,-1.861738861E-1,3.735337406E-2
5.155601060E-1,-2.441756427E-2,-1.788435131E-1,3.735337406E-2
5.179995330E-1,-2.808275074E-2,-1.739566028E-1,3.368818387E-2
5.204397940E-1,-3.174794093E-2,-1.580741107E-1,3.246645629E-2
5.228792210E-1,-4.396523535E-2,-1.421916336E-1,3.002299741E-2
5.253178670E-1,-5.251733959E-2,-1.250874251E-1,3.002299741E-2
5.277572940E-1,-5.984771997E-2,-1.055397540E-1,2.880126610E-2
5.301975540E-1,-6.351290643E-2,-8.599208295E-2,3.124472871E-2
5.326369810E-1,-6.962155551E-2,-6.644441187E-2,3.613164648E-2
5.350756270E-1,-7.206501067E-2,-3.834463656E-2,4.224029183E-2
5.375150540E-1,-7.328674197E-2,-2.612734213E-2,4.590548575E-2
5.399552630E-1,-7.084328681E-2,-6.579670589E-3,4.590548575E-2
5.423947420E-1,-6.595636159E-2,1.174627151E-2,4.834894091E-2
5.448333880E-1,-5.618252605E-2,2.885048278E-2,5.201412737E-2
5.472728150E-1,-5.007388443E-2,3.373740241E-2,5.201412737E-2
5.497130230E-1,-4.518696666E-2,3.862432018E-2,5.690104514E-2
5.521524500E-1,-3.907831758E-2,4.717642441E-2,6.423142552E-2
5.545911480E-1,-3.541313112E-2,4.228950664E-2,6.789661199E-2
5.570305750E-1,-3.296966851E-2,3.251567110E-2,7.156179845E-2
5.594707830E-1,-3.052621335E-2,2.640702389E-2,7.400526106E-2
5.619102110E-1,-2.319583297E-2,1.907664724E-2,7.644872367E-2
5.643488560E-1,-1.586546004E-2,9.302812628E-3,7.767044753E-2
5.667883360E-1,-1.220027078E-2,7.507060654E-4,7.644872367E-2
5.692285440E-1,-3.648164216E-3,-1.268831734E-2,7.400526106E-2
5.716679710E-1,1.702408190E-5,-2.246215194E-2,7.400526106E-2
5.741066170E-1,7.347400766E-3,-2.734906971E-2,7.522699237E-2
5.765460440E-1,1.223431807E-2,-3.223598748E-2,7.400526106E-2
5.789863040E-1,1.589950733E-2,-3.712290525E-2,6.545315683E-2
5.814257310E-1,1.467777696E-2,-5.056192726E-2,5.201412737E-2
5.838643770E-1,1.345604751E-2,-5.789230764E-2,4.834894091E-2
5.863038040E-1,1.345604751E-2,-6.766614318E-2,5.445758998E-2
5.887440650E-1,1.467777696E-2,-7.377478480E-2,6.423142552E-2
5.911834920E-1,1.467777696E-2,-7.988342643E-2,7.889217883E-2
5.936221380E-1,1.467777696E-2,-9.332245588E-2,8.744428307E-2
5.960615650E-1,1.589950733E-2,-1.018745601E-1,9.355293214E-2
5.985017730E-1,1.956469566E-2,-1.128701270E-1,9.355293214E-2
6.009412520E-1,2.567334287E-2,-1.189787686E-1,9.599639475E-2
6.033798980E-1,3.178199008E-2,-1.275308728E-1,9.843984991E-2
6.058193250E-1,3.666890785E-2,-1.275308728E-1,1.008833051E-1
6.082595330E-1,4.644274339E-2,-1.311960667E-1,1.021050364E-1
6.106989610E-1,5.132966116E-2,-1.360829771E-1,9.966158122E-2
6.131376060E-1,6.110349670E-2,-1.311960667E-1,9.843984991E-2
6.155770860E-1,6.476868689E-2,-1.373047084E-1,9.721811861E-2
6.180172940E-1,6.354695559E-2,-1.275308728E-1,9.843984991E-2
6.204567210E-1,6.843387336E-2,-1.214222312E-1,9.966158122E-2
6.228953670E-1,7.087732852E-2,-1.116483957E-1,1.008833051E-1
6.253348460E-1,6.965560466E-2,-1.030962914E-1,9.721811861E-2
6.277750540E-1,7.209905982E-2,-9.332245588E-2,9.721811861E-2
6.302144810E-1,7.332079113E-2,-8.721381426E-2,9.721811861E-2
6.326531270E-1,7.698597759E-2,-8.110515773E-2,9.599639475E-2
6.350925540E-1,7.942944020E-2,-7.499651611E-2,9.477466345E-2
6.375328150E-1,8.431635797E-2,-7.377478480E-2,9.355293214E-2
6.399722420E-1,8.798154444E-2,-7.133132219E-2,9.599639475E-2
6.424108880E-1,9.042500705E-2,-6.888787448E-2,9.966158122E-2
6.448503150E-1,9.653364867E-2,-6.766614318E-2,9.966158122E-2
6.472905750E-1,9.897711128E-2,-6.766614318E-2,9.843984991E-2
6.497300020E-1,1.075292155E-1,-7.377478480E-2,9.966158122E-2
6.521686480E-1,1.136378646E-1,-8.232688904E-2,9.843984991E-2
6.546080750E-1,1.197465137E-1,-8.477035165E-2,1.008833051E-1
6.570483360E-1,1.221899688E-1,-8.599208295E-2,1.033267677E-1
6.594877630E-1,1.258551478E-1,-9.087899327E-2,1.033267677E-1
6.619264080E-1,1.246334240E-1,-9.698764980E-2,1.021050364E-1
6.643658360E-1,1.270768940E-1,-1.006528288E-1,1.008833051E-1
6.668060440E-1,1.270768940E-1,-1.055397540E-1,9.843984991E-2
6.692455230E-1,1.270768940E-1,-1.043180227E-1,9.599639475E-2
6.716841690E-1,1.295203567E-1,-1.092049330E-1,9.233120084E-2
6.741235960E-1,1.270768940E-1,-1.079832166E-1,8.866601437E-2
6.765638040E-1,1.246334240E-1,-1.165353060E-1,8.255736530E-2
6.790032310E-1,1.258551478E-1,-1.177570373E-1,7.889217883E-2
6.814419290E-1,1.282986104E-1,-1.165353060E-1,7.400526106E-2
6.838813560E-1,1.282986104E-1,-1.238656938E-1,7.156179845E-2
6.863215650E-1,1.295203567E-1,-1.189787686E-1,7.034007460E-2
6.887609920E-1,1.295203567E-1,-1.299743354E-1,6.423142552E-2
6.911996380E-1,1.282986104E-1,-1.360829771E-1,6.178796291E-2
6.936391170E-1,1.221899688E-1,-1.519654691E-1,5.567932129E-2
6.960793250E-1,1.209682375E-1,-1.592958421E-1,5.445758998E-2
6.985187520E-1,1.136378646E-1,-1.776217818E-1,4.834894091E-2
7.009573980E-1,1.111944020E-1,-1.873956174E-1,4.468375444E-2
7.033968250E-1,1.087509468E-1,-1.922825426E-1,3.979683667E-2
7.058370860E-1,1.087509468E-1,-1.947259903E-1,3.124472871E-2
7.082765130E-1,1.136378646E-1,-1.922825426E-1,2.391435020E-2
7.107151580E-1,1.136378646E-1,-1.886173487E-1,1.780570298E-2
7.131545860E-1,1.124161333E-1,-1.800652444E-1,1.291878521E-2
7.155948460E-1,1.099726781E-1,-1.751783192E-1,8.031867445E-3
7.180342730E-1,1.038640290E-1,-1.641827673E-1,1.923220698E-3
7.204729190E-1,1.014205664E-1,-1.556306481E-1,-4.185426515E-3
7.229123460E-1,9.164673090E-2,-1.421916336E-1,-7.850615308E-3
7.253526060E-1,8.553808182E-2,-1.299743354E-1,-1.273753308E-2
7.277920330E-1,7.820770890E-2,-1.153135896E-1,-1.640272141E-2
7.302306790E-1,7.209905982E-2,-1.018745601E-1,-1.884618029E-2
7.326701060E-1,6.476868689E-2,-9.210072458E-2,-2.617655881E-2
7.351103670E-1,5.743830651E-2,-7.743997872E-2,-2.984174527E-2
7.375497940E-1,5.010793358E-2,-6.766614318E-2,-3.472866118E-2
7.399884400E-1,4.277755320E-2,-5.911403894E-2,-3.961557895E-2
7.424278670E-1,3.544718027E-2,-4.934020340E-2,-4.572422802E-2
7.448681270E-1,2.445161343E-2,-4.811847210E-2,-5.183286965E-2
7.473075540E-1,1.712123677E-2,-4.445328563E-2,-5.671978742E-2
7.497462000E-1,7.347400766E-3,-4.078809544E-2,-6.038498133E-2
7.521856270E-1,1.702408190E-5,-3.467945009E-2,-6.282843649E-2
7.546258360E-1,-9.756811894E-3,-4.567501321E-2,-7.015880942E-2
7.570653150E-1,-1.708718762E-2,-4.567501321E-2,-7.871092111E-2
7.595039610E-1,-2.197410539E-2,-4.445328563E-2,-8.359783888E-2
7.619433880E-1,-2.441756427E-2,-4.934020340E-2,-8.848475665E-2
7.643835960E-1,-3.052621335E-2,-4.811847210E-2,-8.970648050E-2
7.668230230E-1,-3.052621335E-2,-5.422712117E-2,-9.337167442E-2
7.692617210E-1,-3.541313112E-2,-5.178365856E-2,-9.703686088E-2
7.717011480E-1,-4.152177647E-2,-5.178365856E-2,-1.007020473E-1
7.741413560E-1,-4.396523535E-2,-6.033576280E-2,-1.031455100E-1
7.765807830E-1,-4.396523535E-2,-6.400094926E-2,-1.043672413E-1
7.790194290E-1,-4.763042182E-2,-6.888787448E-2,-1.055889651E-1
7.814589080E-1,-5.373907089E-2,-7.255305350E-2,-1.080324277E-1
7.838991170E-1,-6.229117513E-2,-8.232688904E-2,-1.141410768E-1
7.863385440E-1,-6.839982420E-2,-8.599208295E-2,-1.190279871E-1
7.887771900E-1,-7.450847328E-2,-8.354862034E-2,-1.226931885E-1
7.912166170E-1,-7.817365974E-2,-8.354862034E-2,-1.275801063E-1
7.936568770E-1,-8.183884621E-2,-8.110515773E-2,-1.336887628E-1
7.960963040E-1,-8.428230882E-2,-7.743997872E-2,-1.397974044E-1
7.985349500E-1,-8.306057751E-2,-7.377478480E-2,-1.446843296E-1
8.009743770E-1,-8.306057751E-2,-7.010959089E-2,-1.483495086E-1
8.034146380E-1,-8.550403267E-2,-7.010959089E-2,-1.483495086E-1
8.058540650E-1,-8.061712235E-2,-7.377478480E-2,-1.422408670E-1
8.082927110E-1,-7.817365974E-2,-7.743997872E-2,-1.422408670E-1
8.107321380E-1,-7.450847328E-2,-8.721381426E-2,-1.434625983E-1
8.131723980E-1,-6.595636159E-2,-9.576591849E-2,-1.446843296E-1
8.156118250E-1,-5.984771997E-2,-1.055397540E-1,-1.422408670E-1
8.180504710E-1,-5.496080220E-2,-1.299743354E-1,-1.361322105E-1
8.204898980E-1,-4.396523535E-2,-1.336395293E-1,-1.288018376E-1
8.229301580E-1,-3.907831758E-2,-1.385264397E-1,-1.214714572E-1
8.253695860E-1,-3.663485870E-2,-1.409699023E-1,-1.129193455E-1
8.278082310E-1,-3.663485870E-2,-1.409699023E-1,-1.007020473E-1
8.302476580E-1,-4.274350405E-2,-1.397481710E-1,-9.581512958E-2
8.326879190E-1,-5.007388443E-2,-1.373047084E-1,-9.092821181E-2
8.351273460E-1,-5.740425736E-2,-1.385264397E-1,-9.092821181E-2
8.375659920E-1,-6.595636159E-2,-1.348612607E-1,-9.214994311E-2
8.400054190E-1,-7.084328681E-2,-1.263091564E-1,-9.581512958E-2
8.424456270E-1,-7.450847328E-2,-1.214222312E-1,-9.948031604E-2
8.448851060E-1,-7.695192844E-2,-1.128701270E-1,-9.825859219E-2
8.473237520E-1,-8.306057751E-2,-1.116483957E-1,-9.581512958E-2
8.497631790E-1,-8.550403267E-2,-1.116483957E-1,-8.970648050E-2
8.522033880E-1,-9.161268175E-2,-1.092049330E-1,-8.115437627E-2
8.546428670E-1,-9.405614436E-2,-1.092049330E-1,-7.504573464E-2
8.570815130E-1,-9.649959952E-2,-1.006528288E-1,-6.527189910E-2
8.595209400E-1,-1.013865173E-1,-9.332245588E-2,-5.916325003E-2
8.619611480E-1,-1.074951664E-1,-7.621824741E-2,-5.305460095E-2
8.644006270E-1,-1.148255393E-1,-5.789230764E-2,-5.305460095E-2
8.668392730E-1,-1.233776435E-1,-4.567501321E-2,-6.160670519E-2
8.692787000E-1,-1.270428300E-1,-2.368388325E-2,-7.015880942E-2
8.717189080E-1,-1.270428300E-1,-1.692752820E-3,-7.504573464E-2
8.741583360E-1,-1.270428300E-1,8.081083186E-3,-8.115437627E-2
8.765969810E-1,-1.245993748E-1,2.029837668E-2,-8.359783888E-2
8.790364610E-1,-1.233776435E-1,2.885048278E-2,-8.115437627E-2
8.814766690E-1,-1.245993748E-1,3.007221222E-2,-7.993264496E-2
8.839160960E-1,-1.258211136E-1,2.640702389E-2,-8.359783888E-2
8.863547420E-1,-1.233776435E-1,1.785491779E-2,-8.359783888E-2
8.887941690E-1,-1.258211136E-1,1.296800096E-2,-8.604129404E-2
8.912344290E-1,-1.307080388E-1,1.972435508E-3,-8.604129404E-2
8.936738560E-1,-1.307080388E-1,-1.692752820E-3,-8.726302534E-2
8.961125020E-1,-1.331514716E-1,-1.268831734E-2,-8.726302534E-2
8.985519810E-1,-1.355949342E-1,-2.979253232E-2,-8.848475665E-2
9.009921900E-1,-1.368166804E-1,-4.200982302E-2,-8.970648050E-2
9.034316170E-1,-1.331514716E-1,-4.811847210E-2,-8.604129404E-2
9.058702630E-1,-1.294862926E-1,-6.155749410E-2,-8.481957018E-2
9.083096900E-1,-1.245993748E-1,-6.522268057E-2,-8.237610757E-2
9.107499500E-1,-1.184907332E-1,-7.621824741E-2,-7.993264496E-2
9.131893770E-1,-1.123820767E-1,-8.232688904E-2,-7.626745850E-2
9.156280230E-1,-1.026082486E-1,-8.599208295E-2,-6.893708557E-2
9.180674500E-1,-9.649959952E-2,-9.454418719E-2,-6.527189910E-2
9.205077110E-1,-8.794749528E-2,-9.820938110E-2,-5.916325003E-2
9.229471380E-1,-8.183884621E-2,-1.079832166E-1,-5.427633226E-2
9.253857830E-1,-7.450847328E-2,-1.140918583E-1,-5.061114579E-2
9.278252110E-1,-6.962155551E-2,-1.165353060E-1,-4.572422802E-2
9.302654710E-1,-6.351290643E-2,-1.165353060E-1,-4.205903411E-2
9.327048980E-1,-5.496080220E-2,-1.202004999E-1,-3.961557895E-2
9.351435440E-1,-4.885215312E-2,-1.165353060E-1,-3.595039248E-2
9.375829710E-1,-4.152177647E-2,-1.140918583E-1,-3.106347658E-2
9.400232310E-1,-3.663485870E-2,-1.128701270E-1,-2.617655881E-2
9.424626580E-1,-2.686102316E-2,-1.116483957E-1,-2.251136862E-2
9.449013040E-1,-2.197410539E-2,-1.116483957E-1,-1.884618029E-2
9.473407310E-1,-1.464372966E-2,-1.104266644E-1,-1.395926252E-2
9.497809400E-1,-9.756811894E-3,-1.128701270E-1,-1.273753308E-2
9.522204190E-1,2.460482996E-3,-1.030962914E-1,-6.628885400E-3
9.546590650E-1,1.345604751E-2,-1.043180227E-1,-1.741967630E-3
9.570984920E-1,1.956469566E-2,-1.055397540E-1,7.014912553E-4
9.595387520E-1,2.689507231E-2,-1.067614853E-1,5.588409025E-3
9.619781790E-1,3.544718027E-2,-1.079832166E-1,8.031867445E-3
9.644168250E-1,3.911236674E-2,-1.116483957E-1,1.169705577E-2
9.668562520E-1,4.766447097E-2,-1.165353060E-1,1.658397354E-2
9.692964610E-1,5.499485135E-2,-1.140918583E-1,2.147089131E-2
9.717359400E-1,5.743830651E-2,-1.238656938E-1,2.024916187E-2
9.741745860E-1,6.354695559E-2,-1.250874251E-1,2.269262075E-2
9.766140130E-1,6.965560466E-2,-1.238656938E-1,2.513607964E-2
9.790542210E-1,7.576425374E-2,-1.299743354E-1,2.635780908E-2
9.814937000E-1,8.065116405E-2,-1.299743354E-1,2.635780908E-2
9.839323460E-1,8.309462667E-2,-1.311960667E-1,2.880126610E-2
9.863717730E-1,8.798154444E-2,-1.360829771E-1,2.880126610E-2
9.888119810E-1,9.409019351E-2,-1.360829771E-1,3.368818387E-2
9.912514610E-1,1.014205664E-1,-1.385264397E-1,3.613164648E-2
9.936901060E-1,1.050857529E-1,-1.397481710E-1,3.857510537E-2
9.961295330E-1,1.111944020E-1,-1.409699023E-1,4.101856798E-2
9.985697420E-1,1.185247824E-1,-1.385264397E-1,4.346202314E-2
1.001009221E0,1.185247824E-1,-1.360829771E-1,4.101856798E-2
1.003447867E0,1.209682375E-1,-1.348612607E-1,3.979683667E-2
1.005887294E0,1.209682375E-1,-1.250874251E-1,3.979683667E-2
1.008327502E0,1.197465137E-1,-1.250874251E-1,3.735337406E-2
1.010766929E0,1.173030511E-1,-1.177570373E-1,3.979683667E-2
1.013205627E0,1.148595884E-1,-1.116483957E-1,3.735337406E-2
1.015645054E0,1.124161333E-1,-1.067614853E-1,3.490991518E-2
1.018085263E0,1.063074842E-1,-1.006528288E-1,3.368818387E-2
1.020524690E0,9.897711128E-2,-1.006528288E-1,2.880126610E-2
1.022963388E0,9.409019351E-2,-9.576591849E-2,2.635780908E-2
1.025402815E0,8.553808182E-2,-9.332245588E-2,2.513607964E-2
1.027843023E0,7.942944020E-2,-8.599208295E-2,2.024916187E-2
1.030282450E0,7.087732852E-2,-8.110515773E-2,1.658397354E-2
1.032721096E0,6.476868689E-2,-7.866171002E-2,1.658397354E-2
1.035160575E0,5.988176912E-2,-7.499651611E-2,1.414051466E-2
1.037600783E0,4.766447097E-2,-8.232688904E-2,8.031867445E-3
1.040040211E0,4.155582562E-2,-7.621824741E-2,5.588409025E-3
1.042478856E0,3.544718027E-2,-7.743997872E-2,1.923220698E-3
1.044918336E0,2.567334287E-2,-8.110515773E-2,-1.741967630E-3
1.047358544E0,1.834296621E-2,-7.866171002E-2,-2.963697072E-3
1.049797971E0,1.223431807E-2,-8.477035165E-2,-6.628885400E-3
1.052236617E0,2.460482996E-3,-8.843554556E-2,-1.029407419E-2
1.054676096E0,-6.091623101E-3,-8.599208295E-2,-1.395926252E-2
1.057116304E0,-1.342199836E-2,-9.210072458E-2,-1.884618029E-2
1.059555731E0,-2.075237781E-2,-9.698764980E-2,-2.006790973E-2
1.061994377E0,-3.052621335E-2,-9.943109751E-2,-2.617655881E-2
1.064433856E0,-4.030004889E-2,-1.055397540E-1,-3.350692987E-2
1.066874065E0,-4.640869051E-2,-1.043180227E-1,-3.717211634E-2
1.069313492E0,-5.618252605E-2,-1.067614853E-1,-4.205903411E-2
1.071752138E0,-6.595636159E-2,-1.153135896E-1,-4.938941449E-2
1.074191617E0,-7.573019713E-2,-1.189787686E-1,-5.794151872E-2
1.076631825E0,-8.183884621E-2,-1.275308728E-1,-6.527189910E-2
1.079071252E0,-8.550403267E-2,-1.287526041E-1,-7.015880942E-2
1.081509898E0,-9.405614436E-2,-1.360829771E-1,-7.748918980E-2
1.083949325E0,-9.894306213E-2,-1.421916336E-1,-8.237610757E-2
1.086389586E0,-1.062734351E-1,-1.507437378E-1,-8.604129404E-2
1.088829013E0,-1.087168977E-1,-1.605175734E-1,-8.848475665E-2
1.091267658E0,-1.148255393E-1,-1.678479463E-1,-9.337167442E-2
1.093707086E0,-1.136038080E-1,-1.751783192E-1,-9.214994311E-2
1.096147346E0,-1.123820767E-1,-1.751783192E-1,-9.214994311E-2
1.098586773E0,-1.148255393E-1,-1.825087070E-1,-9.459340572E-2
1.101025419E0,-1.148255393E-1,-1.800652444E-1,-9.581512958E-2
1.103464846E0,-1.123820767E-1,-1.812869757E-1,-9.703686088E-2
1.105905106E0,-1.087168977E-1,-1.812869757E-1,-9.459340572E-2
1.108344533E0,-1.074951664E-1,-1.788435131E-1,-9.337167442E-2
1.110783179E0,-1.038299799E-1,-1.764000505E-1,-9.092821181E-2
1.113222606E0,-1.026082486E-1,-1.776217818E-1,-9.092821181E-2
1.115662867E0,-1.001647934E-1,-1.739566028E-1,-8.848475665E-2
1.118102294E0,-1.001647934E-1,-1.690696776E-1,-8.726302534E-2
1.120540940E0,-9.649959952E-2,-1.654044986E-1,-8.359783888E-2
1.122980367E0,-9.405614436E-2,-1.556306481E-1,-8.115437627E-2
1.125420627E0,-9.161268175E-2,-1.495220065E-1,-7.871092111E-2
1.127860054E0,-8.550403267E-2,-1.434133649E-1,-7.626745850E-2
1.130298700E0,-8.306057751E-2,-1.360829771E-1,-7.260227203E-2
1.132738127E0,-7.695192844E-2,-1.250874251E-1,-6.649362296E-2
1.135178388E0,-7.450847328E-2,-1.189787686E-1,-6.527189910E-2
1.137617815E0,-6.839982420E-2,-1.153135896E-1,-6.160670519E-2
1.140056461E0,-6.106945127E-2,-1.055397540E-1,-5.794151872E-2
1.142495888E0,-5.740425736E-2,-1.030962914E-1,-5.549806356E-2
1.144936148E0,-5.129561573E-2,-9.820938110E-2,-4.816768318E-2
1.147375575E0,-4.763042182E-2,-1.018745601E-1,-4.572422802E-2
1.149814221E0,-4.274350405E-2,-9.698764980E-2,-4.083731025E-2
1.152253648E0,-4.030004889E-2,-1.043180227E-1,-4.205903411E-2
1.154693908E0,-3.663485870E-2,-1.030962914E-1,-3.839384764E-2
1.157133336E0,-3.785658628E-2,-1.055397540E-1,-3.717211634E-2
1.159571981E0,-3.663485870E-2,-1.104266644E-1,-3.472866118E-2
1.162011408E0,-3.785658628E-2,-1.140918583E-1,-3.350692987E-2
1.164451669E0,-4.030004889E-2,-1.153135896E-1,-3.350692987E-2
1.166891096E0,-4.152177647E-2,-1.140918583E-1,-3.106347658E-2
1.169329742E0,-4.518696666E-2,-1.189787686E-1,-3.106347658E-2
1.171769169E0,-5.007388443E-2,-1.165353060E-1,-3.106347658E-2
1.174209429E0,-5.129561573E-2,-1.177570373E-1,-3.228520229E-2
1.176648856E0,-5.740425736E-2,-1.165353060E-1,-3.228520229E-2
1.179087502E0,-5.862598866E-2,-1.153135896E-1,-3.350692987E-2
1.181526929E0,-6.106945127E-2,-1.165353060E-1,-3.228520229E-2
1.183967190E0,-6.229117513E-2,-1.104266644E-1,-3.106347658E-2
1.186406617E0,-6.595636159E-2,-1.140918583E-1,-3.228520229E-2
1.188845263E0,-6.717809290E-2,-1.104266644E-1,-3.228520229E-2
1.191284690E0,-7.084328681E-2,-1.079832166E-1,-3.350692987E-2
1.193724950E0,-7.328674197E-2,-1.079832166E-1,-3.350692987E-2
1.196164377E0,-7.695192844E-2,-1.043180227E-1,-3.472866118E-2
1.198603023E0,-7.817365974E-2,-1.006528288E-1,-3.350692987E-2
1.201042450E0,-8.428230882E-2,-1.018745601E-1,-3.595039248E-2
1.203482711E0,-8.672576398E-2,-9.454418719E-2,-3.350692987E-2
1.205922138E0,-8.916922659E-2,-9.210072458E-2,-3.350692987E-2
1.208360783E0,-9.405614436E-2,-7.621824741E-2,-3.106347658E-2
1.210800211E0,-9.894306213E-2,-7.866171002E-2,-3.106347658E-2
1.213240471E0,-9.894306213E-2,-7.133132219E-2,-2.984174527E-2
1.215679898E0,-1.026082486E-1,-6.522268057E-2,-2.739828639E-2
1.218118544E0,-1.062734351E-1,-5.544885248E-2,-2.495482750E-2
1.220557971E0,-1.099386290E-1,-5.178365856E-2,-2.251136862E-2
1.222998231E0,-1.111603603E-1,-5.544885248E-2,-2.128963917E-2
1.225437658E0,-1.123820767E-1,-4.934020340E-2,-1.762445085E-2
1.227876304E0,-1.099386290E-1,-4.689674079E-2,-1.395926252E-2
1.230315731E0,-1.111603603E-1,-4.567501321E-2,-1.151580364E-2
1.232755992E0,-1.099386290E-1,-3.956636786E-2,-7.850615308E-3
1.235195419E0,-1.111603603E-1,-4.445328563E-2,-4.185426515E-3
1.237634065E0,-1.050517038E-1,-3.956636786E-2,-5.202381872E-4
1.240073492E0,-1.038299799E-1,-3.956636786E-2,3.144950140E-3
1.242513752E0,-1.013865173E-1,-3.467945009E-2,6.810138468E-3
1.244953179E0,-9.894306213E-2,-3.101425990E-2,9.253596887E-3
1.247391825E0,-9.649959952E-2,-3.101425990E-2,9.253596887E-3
1.249831252E0,-9.283441305E-2,-2.979253232E-2,1.047532633E-2
1.252271513E0,-9.039095789E-2,-2.979253232E-2,9.253596887E-3
1.254710940E0,-8.794749528E-2,-2.490561455E-2,1.047532633E-2
1.257149586E0,-8.306057751E-2,-2.368388325E-2,1.291878521E-2
1.259589013E0,-7.695192844E-2,-1.513177622E-2,1.414051466E-2
1.262029273E0,-6.717809290E-2,-1.635350659E-2,1.291878521E-2
1.264468700E0,-6.229117513E-2,-1.757523417E-2,1.291878521E-2
1.266907346E0,-5.618252605E-2,-2.246215194E-2,1.047532633E-2
1.269346773E0,-5.251733959E-2,-2.734906971E-2,8.031867445E-3
1.271786981E0,-4.396523535E-2,-2.124042436E-2,8.031867445E-3
1.274226461E0,-3.296966851E-2,-2.124042436E-2,9.253596887E-3
1.276665106E0,-2.808275074E-2,-2.490561455E-2,9.253596887E-3
1.279104533E0,-2.197410539E-2,-2.979253232E-2,9.253596887E-3
1.281544742E0,-1.220027078E-2,-2.979253232E-2,9.253596887E-3
1.283984221E0,-7.313352544E-3,-3.590117767E-2,8.031867445E-3
1.286422867E0,-2.426434774E-3,-3.467945009E-2,6.810138468E-3
1.288862294E0,1.238753553E-3,-3.467945009E-2,5.588409025E-3
1.291302554E0,7.347400766E-3,-3.834463656E-2,3.144950140E-3
1.293741981E0,7.347400766E-3,-3.467945009E-2,3.144950140E-3
1.296180627E0,1.223431807E-2,-3.345771879E-2,1.923220698E-3
1.298620054E0,1.223431807E-2,-3.223598748E-2,7.014912553E-4
1.301060263E0,1.712123677E-2,-2.979253232E-2,1.923220698E-3
1.303499742E0,1.956469566E-2,-2.490561455E-2,1.923220698E-3
1.305938388E0,1.956469566E-2,-2.246215194E-2,7.014912553E-4
1.308377815E0,2.200815454E-2,-1.757523417E-2,7.014912553E-4
1.310818075E0,2.200815454E-2,-1.268831734E-2,-5.202381872E-4
1.313257502E0,2.078642510E-2,-9.023129009E-3,-5.202381872E-4
1.315696148E0,2.078642510E-2,-2.914482262E-3,7.014912553E-4
1.318135575E0,1.956469566E-2,7.507060654E-4,-5.202381872E-4
1.320575783E0,1.712123677E-2,-2.914482262E-3,-5.202381872E-4
1.323015263E0,1.589950733E-2,6.859353278E-3,1.923220698E-3
1.325453908E0,1.223431807E-2,9.302812628E-3,4.366679583E-3
1.327893336E0,1.345604751E-2,9.302812628E-3,6.810138468E-3
1.330333544E0,1.223431807E-2,8.081083186E-3,4.366679583E-3
1.332773023E0,1.101258863E-2,5.637623835E-3,8.031867445E-3
1.335211669E0,1.101258863E-2,5.637623835E-3,8.031867445E-3
1.337651096E0,1.223431807E-2,-1.692752820E-3,1.169705577E-2
1.340091304E0,1.223431807E-2,-4.136211704E-3,1.658397354E-2
1.342530783E0,1.223431807E-2,-9.023129009E-3,1.658397354E-2
1.344969429E0,1.223431807E-2,-1.513177622E-2,1.902743243E-2
1.347408856E0,1.101258863E-2,-2.368388325E-2,2.391435020E-2
1.349849065E0,1.223431807E-2,-2.490561455E-2,2.757953852E-2
1.352288544E0,1.345604751E-2,-3.590117767E-2,3.002299741E-2
1.354727190E0,1.345604751E-2,-3.712290525E-2,3.613164648E-2
1.357166617E0,1.467777696E-2,-4.689674079E-2,4.101856798E-2
1.359606825E0,1.712123677E-2,-5.056192726E-2,4.712720960E-2
1.362046304E0,1.834296621E-2,-5.056192726E-2,5.323585868E-2
1.364484950E0,1.834296621E-2,-6.155749410E-2,5.445758998E-2
1.366924377E0,2.078642510E-2,-5.544885248E-2,6.178796291E-2
1.369364638E0,2.200815454E-2,-7.010959089E-2,6.178796291E-2
1.371804065E0,2.322988398E-2,-6.277922541E-2,6.423142552E-2
1.374242711E0,2.322988398E-2,-6.277922541E-2,6.545315683E-2
1.376682138E0,2.689507231E-2,-5.544885248E-2,6.789661199E-2
1.379122398E0,3.056026064E-2,-5.544885248E-2,6.789661199E-2
1.381561825E0,4.033409804E-2,-4.934020340E-2,7.034007460E-2
1.384000471E0,4.644274339E-2,-4.567501321E-2,7.156179845E-2
1.386439898E0,5.621657893E-2,-4.445328563E-2,7.034007460E-2
1.388880158E0,5.988176912E-2,-4.445328563E-2,6.911834329E-2
1.391319586E0,6.843387336E-2,-3.956636786E-2,6.545315683E-2
1.393758231E0,7.332079113E-2,-4.078809544E-2,6.545315683E-2
1.396197658E0,7.820770890E-2,-3.956636786E-2,6.545315683E-2
1.398637919E0,8.065116405E-2,-4.078809544E-2,6.545315683E-2
1.401077346E0,8.187289536E-2,-3.956636786E-2,6.545315683E-2
1.403515992E0,8.187289536E-2,-4.200982302E-2,6.423142552E-2
1.405955419E0,7.942944020E-2,-4.567501321E-2,6.423142552E-2
1.408395679E0,8.309462667E-2,-4.445328563E-2,6.423142552E-2
1.410835106E0,8.431635797E-2,-4.811847210E-2,6.178796291E-2
1.413273752E0,8.553808182E-2,-4.934020340E-2,6.178796291E-2
1.415713179E0,8.798154444E-2,-5.056192726E-2,6.423142552E-2
1.418153440E0,8.553808182E-2,-5.544885248E-2,6.423142552E-2
1.420592867E0,8.920327574E-2,-5.300538987E-2,6.545315683E-2
1.423031513E0,9.042500705E-2,-6.400094926E-2,6.423142552E-2
1.425470940E0,8.920327574E-2,-6.400094926E-2,6.667488813E-2
1.427911148E0,8.920327574E-2,-6.644441187E-2,6.789661199E-2
1.430350627E0,8.675981313E-2,-7.499651611E-2,6.545315683E-2
1.432789273E0,8.675981313E-2,-8.110515773E-2,6.423142552E-2
1.435228700E0,8.431635797E-2,-8.599208295E-2,5.934450775E-2
1.437668961E0,8.065116405E-2,-8.843554556E-2,5.567932129E-2
1.440108388E0,8.309462667E-2,-8.599208295E-2,5.323585868E-2
1.442547033E0,7.942944020E-2,-8.843554556E-2,5.201412737E-2
1.444986461E0,7.698597759E-2,-8.354862034E-2,5.445758998E-2
1.447426721E0,7.087732852E-2,-8.599208295E-2,5.690104514E-2
1.449866148E0,6.476868689E-2,-8.110515773E-2,5.934450775E-2
1.452304794E0,5.988176912E-2,-7.988342643E-2,6.056623906E-2
1.454744221E0,5.499485135E-2,-7.377478480E-2,5.812277645E-2
1.457184481E0,5.255138874E-2,-6.888787448E-2,5.445758998E-2
1.459623908E0,4.888620228E-2,-6.644441187E-2,5.323585868E-2
1.462062554E0,4.522101581E-2,-6.522268057E-2,5.201412737E-2
1.464501981E0,4.277755320E-2,-6.277922541E-2,5.323585868E-2
1.466942242E0,4.033409804E-2,-5.789230764E-2,5.445758998E-2
1.469381669E0,3.422544897E-2,-4.811847210E-2,5.445758998E-2
1.471820315E0,2.811680175E-2,-3.467945009E-2,5.445758998E-2
1.474259742E0,2.322988398E-2,-2.246215194E-2,5.690104514E-2
1.476700002E0,1.589950733E-2,-1.391004678E-2,5.812277645E-2
1.479139429E0,7.347400766E-3,-1.024485845E-2,5.690104514E-2
1.481578075E0,2.460482996E-3,-9.023129009E-3,5.812277645E-2
1.484017502E0,2.460482996E-3,-4.710233479E-4,5.934450775E-2
1.486457763E0,1.702408190E-5,3.194164950E-3,5.812277645E-2
1.488897190E0,1.702408190E-5,8.081083186E-3,5.445758998E-2
1.491335836E0,-1.204705331E-3,1.907664724E-2,5.201412737E-2
1.493775263E0,1.702408190E-5,2.885048278E-2,4.590548575E-2
1.496215523E0,-2.426434774E-3,4.228950664E-2,4.101856798E-2
1.498654950E0,-6.091623101E-3,5.328506976E-2,3.613164648E-2
1.501093596E0,-1.097854134E-2,6.428064406E-2,3.002299741E-2
1.503533023E0,-1.464372966E-2,7.405447960E-2,2.635780908E-2
1.505973283E0,-2.075237781E-2,8.016312122E-2,2.635780908E-2
1.508412711E0,-2.686102316E-2,8.871522546E-2,2.269262075E-2
1.510851356E0,-2.808275074E-2,9.604561329E-2,2.024916187E-2
1.513290783E0,-3.419139981E-2,9.726732969E-2,1.658397354E-2
1.515731044E0,-3.541313112E-2,1.058194488E-1,1.414051466E-2
1.518170471E0,-3.419139981E-2,1.155932844E-1,1.047532633E-2
1.520609117E0,-3.785658628E-2,1.217019260E-1,8.031867445E-3
1.523048544E0,-3.907831758E-2,1.326974928E-1,4.366679583E-3
1.525488804E0,-3.663485870E-2,1.339192241E-1,7.014912553E-4
1.527928231E0,-3.907831758E-2,1.412495971E-1,-4.185426515E-3
1.530366877E0,-4.152177647E-2,1.473582387E-1,-6.628885400E-3
1.532806304E0,-4.274350405E-2,1.473582387E-1,-1.029407419E-2
1.535246565E0,-4.640869051E-2,1.534668952E-1,-1.273753308E-2
1.537685992E0,-4.763042182E-2,1.546886265E-1,-1.151580364E-2
1.540124638E0,-5.129561573E-2,1.510234326E-1,-1.395926252E-2
1.542564065E0,-5.251733959E-2,1.546886265E-1,-1.518099196E-2
1.545004325E0,-5.373907089E-2,1.522451639E-1,-1.640272141E-2
1.547443752E0,-5.373907089E-2,1.559103578E-1,-1.762445085E-2
1.549882398E0,-5.251733959E-2,1.534668952E-1,-2.128963917E-2
1.552321825E0,-4.885215312E-2,1.498017013E-1,-2.251136862E-2
1.554762086E0,-4.396523535E-2,1.449147910E-1,-2.617655881E-2
1.557201513E0,-3.907831758E-2,1.363626719E-1,-2.862001397E-2
1.559640158E0,-3.663485870E-2,1.253671199E-1,-3.350692987E-2
1.562079586E0,-2.930448204E-2,1.094846278E-1,-3.839384764E-2
1.564519846E0,-1.830891520E-2,1.033759862E-1,-3.717211634E-2
1.566959273E0,-1.464372966E-2,7.771965861E-2,-4.205903411E-2
1.569397919E0,-7.313352544E-3,6.305891275E-2,-4.328076541E-2
1.571837346E0,-2.426434774E-3,4.106777534E-2,-4.938941449E-2
1.574277606E0,6.125671323E-3,2.518529445E-2,-4.938941449E-2
1.576717033E0,9.790859185E-3,5.637623835E-3,-4.938941449E-2
1.579155679E0,1.712123677E-2,-9.023129009E-3,-4.938941449E-2
1.581595106E0,1.956469566E-2,-3.223598748E-2,-5.183286965E-2
1.584035367E0,2.567334287E-2,-4.934020340E-2,-4.938941449E-2
1.586474794E0,2.933853120E-2,-6.155749410E-2,-4.572422802E-2
1.588913440E0,3.789063543E-2,-7.988342643E-2,-4.450249672E-2
1.591352867E0,4.399928451E-2,-9.087899327E-2,-3.961557895E-2
1.593793127E0,5.132966116E-2,-1.030962914E-1,-3.717211634E-2
1.596232554E0,6.110349670E-2,-1.067614853E-1,-3.228520229E-2
1.598671200E0,6.965560466E-2,-1.128701270E-1,-2.862001397E-2
1.601110679E0,7.332079113E-2,-1.238656938E-1,-2.739828639E-2
1.603550888E0,7.942944020E-2,-1.189787686E-1,-2.006790973E-2
1.605990315E0,8.553808182E-2,-1.165353060E-1,-1.395926252E-2
1.608428961E0,8.920327574E-2,-1.116483957E-1,-1.273753308E-2
1.610868440E0,9.286846220E-2,-1.043180227E-1,-6.628885400E-3
1.613308648E0,9.775537997E-2,-1.006528288E-1,-2.963697072E-3
1.615748075E0,1.026422977E-1,-9.576591849E-2,-5.202381872E-4
1.618186721E0,1.026422977E-1,-8.599208295E-2,1.923220698E-3
1.620626200E0,1.111944020E-1,-7.499651611E-2,5.588409025E-3
1.623066408E0,1.111944020E-1,-6.888787448E-2,8.031867445E-3
1.625505836E0,1.160813197E-1,-5.911403894E-2,1.047532633E-2
1.627944481E0,1.209682375E-1,-5.056192726E-2,1.047532633E-2
1.630383961E0,1.234117001E-1,-4.200982302E-2,1.169705577E-2
1.632824169E0,1.246334240E-1,-3.834463656E-2,1.291878521E-2
1.635263596E0,1.270768940E-1,-3.101425990E-2,1.414051466E-2
1.637702242E0,1.295203567E-1,-2.490561455E-2,1.414051466E-2
1.640141721E0,1.282986104E-1,-2.612734213E-2,1.536224410E-2
1.642581929E0,1.331855357E-1,-1.757523417E-2,1.536224410E-2
1.645021356E0,1.319638044E-1,-2.246215194E-2,1.414051466E-2
1.647460002E0,1.331855357E-1,-1.268831734E-2,1.536224410E-2
1.649899481E0,1.356289983E-1,-6.579670589E-3,1.536224410E-2
1.652339690E0,1.344072521E-1,-4.710233479E-4,1.291878521E-2
1.654779117E0,1.368507147E-1,5.637623835E-3,1.291878521E-2
1.657217763E0,1.356289983E-1,8.081083186E-3,1.047532633E-2
1.659657242E0,1.331855357E-1,1.174627151E-2,8.031867445E-3
1.662097450E0,1.307420731E-1,1.663318835E-2,8.031867445E-3
1.664536929E0,1.295203567E-1,2.396356501E-2,6.810138468E-3
1.666975523E0,1.234117001E-1,3.007221222E-2,3.144950140E-3
1.669415002E0,1.173030511E-1,3.740258887E-2,-5.202381872E-4
1.671855211E0,1.136378646E-1,4.351123795E-2,-6.628885400E-3
1.674294638E0,1.063074842E-1,5.695025995E-2,-1.151580364E-2
1.676733283E0,9.897711128E-2,6.672409922E-2,-1.518099196E-2
1.679172763E0,9.042500705E-2,7.894138992E-2,-2.128963917E-2
1.681612971E0,8.309462667E-2,8.382831514E-2,-2.617655881E-2
1.684052450E0,7.576425374E-2,8.871522546E-2,-3.106347658E-2
1.686491096E0,6.843387336E-2,9.971079230E-2,-3.595039248E-2
1.688930523E0,6.354695559E-2,1.082628965E-1,-3.961557895E-2
1.691370731E0,5.866003782E-2,1.143715531E-1,-4.694595188E-2
1.693810211E0,5.010793358E-2,1.143715531E-1,-5.427633226E-2
1.696248856E0,4.522101581E-2,1.168150008E-1,-6.038498133E-2
1.698688283E0,3.789063543E-2,1.180367321E-1,-6.527189910E-2
1.701128492E0,2.933853120E-2,1.180367321E-1,-7.260227203E-2
1.703567971E0,2.445161343E-2,1.131498218E-1,-7.993264496E-2
1.706006617E0,1.467777696E-2,1.082628965E-1,-8.726302534E-2
1.708446044E0,6.125671323E-3,1.070411652E-1,-9.214994311E-2
1.710886252E0,1.238753553E-3,9.971079230E-2,-1.007020473E-1
1.713325731E0,-6.091623101E-3,9.848906100E-2,-1.068106964E-1
1.715764377E0,-1.586546004E-2,8.993695676E-2,-1.129193455E-1
1.718203804E0,-2.441756427E-2,8.993695676E-2,-1.153628007E-1
1.720644013E0,-3.663485870E-2,8.871522546E-2,-1.165845320E-1
1.723083492E0,-4.885215312E-2,8.016312122E-2,-1.178062633E-1
1.725522138E0,-5.984771997E-2,7.527621090E-2,-1.202497259E-1
1.727961565E0,-7.450847328E-2,6.428064406E-2,-1.275801063E-1
1.730401825E0,-9.405614436E-2,5.939371884E-2,-1.385756731E-1
1.732841252E0,-1.062734351E-1,6.916755438E-2,-1.434625983E-1
1.735279898E0,-1.233776435E-1,7.405447960E-2,-1.495712399E-1
1.737719325E0,-1.392601430E-1,8.138485253E-2,-1.507929713E-1
1.740159533E0,-1.563643515E-1,7.527621090E-2,-1.483495086E-1
1.742599013E0,-1.759120226E-1,6.550237536E-2,-1.471277773E-1
1.745037658E0,-1.930162311E-1,5.695025995E-2,-1.446843296E-1
1.747477086E0,-2.137856185E-1,5.084161460E-2,-1.422408670E-1
1.749917346E0,-2.321115732E-1,3.251567110E-2,-1.446843296E-1
1.752356773E0,-2.479940653E-1,2.029837668E-2,-1.483495086E-1
1.754795419E0,-2.638765574E-1,5.637623835E-3,-1.532364339E-1
1.757234846E0,-2.760938406E-1,-4.136211704E-3,-1.556798816E-1
1.759675106E0,-2.895328701E-1,-1.635350659E-2,-1.617885381E-1
1.762114533E0,-2.993066907E-1,-2.246215194E-2,-1.691189110E-1
1.764553179E0,-3.127457201E-1,-2.612734213E-2,-1.740058362E-1
1.766992606E0,-3.225195408E-1,-3.712290525E-2,-1.801144779E-1
1.769432867E0,-3.359585702E-1,-4.445328563E-2,-1.862231195E-1
1.771872294E0,-3.469541371E-1,-5.544885248E-2,-1.935535073E-1
1.774310940E0,-3.542845249E-1,-5.911403894E-2,-1.972186863E-1
1.776750367E0,-3.628366292E-1,-6.033576280E-2,-2.045490742E-1
1.779190627E0,-3.713887334E-1,-6.400094926E-2,-2.094359845E-1
1.781630054E0,-3.799408376E-1,-6.277922541E-2,-2.155446261E-1
1.784068700E0,-3.872712255E-1,-5.300538987E-2,-2.204315513E-1
1.786508127E0,-3.933798671E-1,-4.689674079E-2,-2.240967453E-1
1.788948388E0,-3.994885087E-1,-2.857080102E-2,-2.253184617E-1
1.791387815E0,-4.043754339E-1,-1.635350659E-2,-2.253184617E-1
1.793826461E0,-4.104840755E-1,1.972435508E-3,-2.289836556E-1
1.796265888E0,-4.178144634E-1,1.785491779E-2,-2.289836556E-1
1.798706148E0,-4.227013588E-1,3.740258887E-2,-2.289836556E-1
1.801145575E0,-4.300317466E-1,5.084161460E-2,-2.289836556E-1
1.803584221E0,-4.324752092E-1,6.305891275E-2,-2.314271182E-1
1.806023700E0,-4.410273135E-1,7.649793476E-2,-2.314271182E-1
1.808463908E0,-4.434707761E-1,9.238041937E-2,-2.314271182E-1
1.810903336E0,-4.471359551E-1,9.848906100E-2,-2.350922972E-1
1.813341981E0,-4.471359551E-1,1.107063591E-1,-2.363140285E-1
1.815781461E0,-4.495794177E-1,1.143715531E-1,-2.399792224E-1
1.818221669E0,-4.459142387E-1,1.229236573E-1,-2.448661327E-1
1.820661096E0,-4.446924925E-1,1.363626719E-1,-2.485313118E-1
1.823099742E0,-4.410273135E-1,1.400278658E-1,-2.521965206E-1
1.825539221E0,-4.373621345E-1,1.510234326E-1,-2.570834458E-1
1.827979429E0,-4.336969256E-1,1.583538055E-1,-2.619703412E-1
1.830418856E0,-4.263665676E-1,1.656841934E-1,-2.656355500E-1
1.832857502E0,-4.214796424E-1,1.827884018E-1,-2.644138038E-1
1.835296981E0,-4.202579260E-1,1.925622374E-1,-2.607486248E-1
1.837737190E0,-4.178144634E-1,2.047795355E-1,-2.521965206E-1
1.840176617E0,-4.202579260E-1,2.182185501E-1,-2.412009537E-1
1.842615263E0,-4.239231050E-1,2.316575795E-1,-2.314271182E-1
1.845054742E0,-4.239231050E-1,2.499835044E-1,-2.216532826E-1
1.847494950E0,-4.288100302E-1,2.609790564E-1,-2.118794471E-1
1.849934377E0,-4.324752092E-1,2.622008026E-1,-2.094359845E-1
1.852373075E0,-4.336969256E-1,2.634225190E-1,-2.033273429E-1
1.854812502E0,-4.336969256E-1,2.609790564E-1,-2.008838803E-1
1.857252711E0,-4.324752092E-1,2.573138773E-1,-1.984404176E-1
1.859692190E0,-4.263665676E-1,2.450965941E-1,-1.959969550E-1
1.862130836E0,-4.153710008E-1,2.328793108E-1,-1.898883134E-1
1.864570263E0,-4.080406129E-1,2.035578042E-1,-1.886665821E-1
1.867010471E0,-3.970450461E-1,1.644624621E-1,-1.825579405E-1
1.869449950E0,-3.811625838E-1,1.217019260E-1,-1.788927466E-1
1.871888596E0,-3.640583456E-1,7.894138992E-2,-1.776710153E-1
1.874328023E0,-3.457324207E-1,3.129393980E-2,-1.752275527E-1
1.876768231E0,-3.249630034E-1,-2.246215194E-2,-1.740058362E-1
1.879207711E0,-3.041936159E-1,-7.010959089E-2,-1.715623736E-1
1.881646356E0,-2.809807658E-1,-1.104266644E-1,-1.703406423E-1
1.884085783E0,-2.553244233E-1,-1.385264397E-1,-1.654537320E-1
1.886526044E0,-2.308898568E-1,-1.531872004E-1,-1.654537320E-1
1.888965471E0,-2.027900517E-1,-1.568523794E-1,-1.666754484E-1
1.891404117E0,-1.759120226E-1,-1.531872004E-1,-1.654537320E-1
1.893843544E0,-1.514774263E-1,-1.446350962E-1,-1.678971797E-1
1.896283804E0,-1.245993748E-1,-1.373047084E-1,-1.678971797E-1
1.898723231E0,-1.038299799E-1,-1.250874251E-1,-1.678971797E-1
1.901161877E0,-8.550403267E-2,-1.104266644E-1,-1.617885381E-1
1.903601304E0,-6.351290643E-2,-9.820938110E-2,-1.495712399E-1
1.906041565E0,-5.007388443E-2,-9.820938110E-2,-1.361322105E-1
1.908480992E0,-4.030004889E-2,-9.454418719E-2,-1.178062633E-1
1.910919638E0,-3.296966851E-2,-9.943109751E-2,-1.007020473E-1
1.913359065E0,-2.319583297E-2,-1.030962914E-1,-8.481957018E-2
1.915799325E0,-1.464372966E-2,-1.153135896E-1,-7.138054073E-2
1.918238752E0,-7.313352544E-3,-1.189787686E-1,-6.038498133E-2
1.920677398E0,1.702408190E-5,-1.202004999E-1,-5.549806356E-2
1.923116825E0,8.569129743E-3,-1.153135896E-1,-5.183286965E-2
1.925557086E0,1.834296621E-2,-8.843554556E-2,-5.061114579E-2
1.927996513E0,2.567334287E-2,-7.499651611E-2,-4.938941449E-2
1.930435158E0,3.422544897E-2,-4.934020340E-2,-4.938941449E-2
1.932874586E0,4.277755320E-2,-2.490561455E-2,-4.450249672E-2
1.935314846E0,4.766447097E-2,-2.001869678E-2,-4.328076541E-2
1.937754273E0,5.621657893E-2,-7.801400032E-3,-4.328076541E-2
1.940192919E0,6.599041820E-2,-5.357941147E-3,-4.083731025E-2
1.942632346E0,7.454252243E-2,3.194164950E-3,-3.961557895E-2
1.945072606E0,8.920327574E-2,8.081083186E-3,-4.083731025E-2
1.947512033E0,1.026422977E-1,1.052454207E-2,-4.328076541E-2
1.949950679E0,1.160813197E-1,1.541145984E-2,-4.572422802E-2
1.952390106E0,1.270768940E-1,2.029837668E-2,-4.816768318E-2
1.954830367E0,1.405159086E-1,2.762875333E-2,-5.305460095E-2
1.957269794E0,1.527332067E-1,3.618085757E-2,-5.671978742E-2
1.959708440E0,1.588418484E-1,4.473296553E-2,-6.160670519E-2
1.962147919E0,1.612853110E-1,6.061545014E-2,-6.282843649E-2
1.964588127E0,1.661722362E-1,7.283274829E-2,-6.893708557E-2
1.967027554E0,1.649504900E-1,8.871522546E-2,-7.138054073E-2
1.969466200E0,1.625070274E-1,1.107063591E-1,-7.748918980E-2
1.971905679E0,1.563983858E-1,1.253671199E-1,-8.359783888E-2
1.974345888E0,1.551766694E-1,1.412495971E-1,-8.848475665E-2
1.976785315E0,1.466245651E-1,1.498017013E-1,-9.092821181E-2
1.979224013E0,1.417376399E-1,1.607972682E-1,-9.459340572E-2
1.981663440E0,1.356289983E-1,1.607972682E-1,-9.825859219E-2
1.984103648E0,1.270768940E-1,1.571320891E-1,-1.007020473E-1
1.986543127E0,1.173030511E-1,1.522451639E-1,-1.007020473E-1
1.988981773E0,1.099726781E-1,1.546886265E-1,-1.007020473E-1
1.991421200E0,1.014205664E-1,1.424713284E-1,-1.019237787E-1
1.993861408E0,9.286846220E-2,1.351409554E-1,-1.068106964E-1
1.996300888E0,8.431635797E-2,1.180367321E-1,-1.080324277E-1
1.998739533E0,7.576425374E-2,9.971079230E-2,-1.153628007E-1
2.001178961E0,6.721214205E-2,8.138485253E-2,-1.239149198E-1
2.003619169E0,6.232522428E-2,5.817198753E-2,-1.288018376E-1
2.006058648E0,5.743830651E-2,4.351123795E-2,-1.336887628E-1
2.008497294E0,5.377312005E-2,3.129393980E-2,-1.349104941E-1
2.010936721E0,5.132966116E-2,2.762875333E-2,-1.336887628E-1
2.013376981E0,4.766447097E-2,3.007221222E-2,-1.300235689E-1
2.015816408E0,4.399928451E-2,2.396356501E-2,-1.300235689E-1
2.018255054E0,3.300371766E-2,1.663318835E-2,-1.336887628E-1
2.020694481E0,2.567334287E-2,1.907664724E-2,-1.361322105E-1
2.023134742E0,1.712123677E-2,8.081083186E-3,-1.410191357E-1
2.025574169E0,8.569129743E-3,6.859353278E-3,-1.434625983E-1
2.028012815E0,3.682212438E-3,7.507060654E-4,-1.471277773E-1
2.030452242E0,-2.426434774E-3,1.972435508E-3,-1.471277773E-1
2.032892502E0,-9.756811894E-3,7.507060654E-4,-1.471277773E-1
2.035331929E0,-1.586546004E-2,-7.801400032E-3,-1.446843296E-1
2.037770575E0,-1.830891520E-2,-1.024485845E-2,-1.434625983E-1
2.040210002E0,-2.075237781E-2,-1.391004678E-2,-1.397974044E-1
2.042650263E0,-2.930448204E-2,-1.757523417E-2,-1.361322105E-1
2.045089690E0,-3.541313112E-2,-2.368388325E-2,-1.349104941E-1
2.047528336E0,-3.907831758E-2,-3.345771879E-2,-1.312453002E-1
2.049967763E0,-4.396523535E-2,-3.712290525E-2,-1.288018376E-1
2.052408023E0,-4.885215312E-2,-4.200982302E-2,-1.275801063E-1
2.054847450E0,-5.007388443E-2,-4.445328563E-2,-1.226931885E-1
2.057286096E0,-5.740425736E-2,-4.934020340E-2,-1.214714572E-1
2.059725523E0,-5.740425736E-2,-5.300538987E-2,-1.202497259E-1
2.062165783E0,-5.618252605E-2,-5.911403894E-2,-1.165845320E-1
2.064605211E0,-5.618252605E-2,-5.544885248E-2,-1.129193455E-1
2.067043856E0,-5.740425736E-2,-5.911403894E-2,-1.104758829E-1
2.069483283E0,-5.862598866E-2,-5.667057633E-2,-1.031455100E-1
2.071923544E0,-5.862598866E-2,-5.667057633E-2,-1.007020473E-1
2.074362971E0,-5.984771997E-2,-6.155749410E-2,-9.703686088E-2
2.076801617E0,-5.740425736E-2,-5.422712117E-2,-9.337167442E-2
2.079241096E0,-5.618252605E-2,-5.789230764E-2,-9.337167442E-2
2.081681304E0,-5.740425736E-2,-5.422712117E-2,-9.214994311E-2
2.084120731E0,-5.618252605E-2,-5.667057633E-2,-9.092821181E-2
2.086559377E0,-5.373907089E-2,-5.422712117E-2,-8.970648050E-2
2.088998856E0,-5.251733959E-2,-4.811847210E-2,-8.604129404E-2
2.091439065E0,-5.496080220E-2,-5.667057633E-2,-8.604129404E-2
2.093878492E0,-5.373907089E-2,-5.178365856E-2,-8.481957018E-2
2.096317190E0,-5.373907089E-2,-4.934020340E-2,-8.237610757E-2
2.098756617E0,-5.618252605E-2,-4.567501321E-2,-8.115437627E-2
2.101196825E0,-5.373907089E-2,-4.200982302E-2,-7.748918980E-2
2.103636252E0,-5.373907089E-2,-4.078809544E-2,-7.748918980E-2
2.106074950E0,-5.496080220E-2,-4.200982302E-2,-7.993264496E-2
2.108514377E0,-5.373907089E-2,-4.200982302E-2,-7.748918980E-2
2.110954586E0,-5.496080220E-2,-4.445328563E-2,-7.748918980E-2
2.113394065E0,-5.618252605E-2,-4.811847210E-2,-7.748918980E-2
2.115832711E0,-5.740425736E-2,-4.934020340E-2,-7.748918980E-2
2.118272138E0,-5.984771997E-2,-5.300538987E-2,-8.115437627E-2
2.120712346E0,-6.229117513E-2,-5.422712117E-2,-8.115437627E-2
2.123151825E0,-6.229117513E-2,-4.811847210E-2,-7.748918980E-2
2.125590471E0,-6.351290643E-2,-5.911403894E-2,-7.871092111E-2
2.128029898E0,-6.839982420E-2,-6.033576280E-2,-7.993264496E-2
2.130470158E0,-6.717809290E-2,-5.667057633E-2,-7.993264496E-2
2.132909586E0,-6.595636159E-2,-5.544885248E-2,-7.871092111E-2
2.135348231E0,-6.717809290E-2,-4.811847210E-2,-7.626745850E-2
2.137787658E0,-6.106945127E-2,-4.811847210E-2,-7.748918980E-2
2.140227919E0,-5.740425736E-2,-4.200982302E-2,-7.626745850E-2
2.142667346E0,-5.251733959E-2,-4.567501321E-2,-7.626745850E-2
2.145105992E0,-4.885215312E-2,-4.323155433E-2,-7.748918980E-2
2.147545419E0,-4.152177647E-2,-4.078809544E-2,-7.260227203E-2
2.149985679E0,-3.785658628E-2,-4.323155433E-2,-7.260227203E-2
2.152425106E0,-3.419139981E-2,-4.078809544E-2,-7.138054073E-2
2.154863752E0,-2.930448204E-2,-4.689674079E-2,-6.893708557E-2
2.157303179E0,-2.686102316E-2,-4.567501321E-2,-6.649362296E-2
2.159743440E0,-2.319583297E-2,-4.567501321E-2,-6.527189910E-2
2.162182867E0,-1.708718762E-2,-4.689674079E-2,-6.160670519E-2
2.164621513E0,-1.464372966E-2,-5.300538987E-2,-6.038498133E-2
2.167060940E0,-1.220027078E-2,-5.911403894E-2,-5.671978742E-2
2.169501200E0,-8.535082452E-3,-6.400094926E-2,-5.183286965E-2
2.171940627E0,-9.756811894E-3,-7.866171002E-2,-5.061114579E-2
2.174379273E0,-7.313352544E-3,-8.354862034E-2,-4.572422802E-2
2.176818700E0,-8.535082452E-3,-9.454418719E-2,-4.572422802E-2
2.179258961E0,-9.756811894E-3,-1.018745601E-1,-4.450249672E-2
2.181698388E0,-8.535082452E-3,-1.030962914E-1,-4.205903411E-2
2.184137033E0,-8.535082452E-3,-9.820938110E-2,-3.961557895E-2
2.186576513E0,-9.756811894E-3,-1.043180227E-1,-4.205903411E-2
2.189016721E0,-3.648164216E-3,-9.698764980E-2,-4.083731025E-2
2.191456148E0,1.702408190E-5,-8.965726197E-2,-3.595039248E-2
2.193894794E0,1.702408190E-5,-8.599208295E-2,-3.595039248E-2
2.196334273E0,4.903941881E-3,-8.232688904E-2,-3.472866118E-2
2.198774481E0,8.569129743E-3,-7.621824741E-2,-3.350692987E-2
2.201213908E0,1.345604751E-2,-7.255305350E-2,-2.862001397E-2
2.203652606E0,1.712123677E-2,-6.644441187E-2,-2.251136862E-2
2.206092033E0,2.445161343E-2,-5.667057633E-2,-1.640272141E-2
2.208532242E0,2.445161343E-2,-5.667057633E-2,-1.518099196E-2
2.210971721E0,2.689507231E-2,-5.300538987E-2,-1.151580364E-2
2.213410367E0,3.422544897E-2,-4.934020340E-2,-9.072344750E-3
2.215849794E0,4.155582562E-2,-4.934020340E-2,-1.029407419E-2
2.218290002E0,4.766447097E-2,-4.811847210E-2,-1.151580364E-2
2.220729481E0,5.866003782E-2,-5.178365856E-2,-1.395926252E-2
2.223168127E0,6.965560466E-2,-4.445328563E-2,-1.395926252E-2
2.225607554E0,7.820770890E-2,-4.200982302E-2,-1.518099196E-2
2.228047815E0,8.675981313E-2,-3.467945009E-2,-1.640272141E-2
2.230487242E0,9.531191736E-2,-3.101425990E-2,-1.884618029E-2
2.232925888E0,1.026422977E-1,-2.612734213E-2,-1.884618029E-2
2.235365315E0,1.050857529E-1,-1.635350659E-2,-1.884618029E-2
2.237805575E0,1.075292155E-1,-6.579670589E-3,-1.640272141E-2
2.240245002E0,1.124161333E-1,5.637623835E-3,-1.518099196E-2
2.242683648E0,1.148595884E-1,1.663318835E-2,-1.273753308E-2
2.245123075E0,1.173030511E-1,2.762875333E-2,-1.029407419E-2
2.247563336E0,1.197465137E-1,3.862432018E-2,-9.072344750E-3
2.250002763E0,1.221899688E-1,5.206334218E-2,-5.407155957E-3
2.252441408E0,1.246334240E-1,6.428064406E-2,-4.185426515E-3
2.254880836E0,1.307420731E-1,7.161101699E-2,-4.185426515E-3
2.257321096E0,1.331855357E-1,8.016312122E-2,-2.963697072E-3
2.259760523E0,1.356289983E-1,9.360215068E-2,-5.202381872E-4
2.262199169E0,1.344072521E-1,1.021542549E-1,7.014912553E-4
2.264638596E0,1.356289983E-1,1.107063591E-1,4.366679583E-3
2.267078856E0,1.331855357E-1,1.168150008E-1,3.144950140E-3
2.269518283E0,1.344072521E-1,1.351409554E-1,6.810138468E-3
2.271956929E0,1.295203567E-1,1.412495971E-1,8.031867445E-3
2.274396408E0,1.307420731E-1,1.546886265E-1,1.169705577E-2
2.276836617E0,1.282986104E-1,1.546886265E-1,1.047532633E-2
2.279276044E0,1.234117001E-1,1.607972682E-1,9.253596887E-3
2.281714690E0,1.221899688E-1,1.644624621E-1,1.169705577E-2
2.284154169E0,1.185247824E-1,1.583538055E-1,1.169705577E-2
2.286594377E0,1.160813197E-1,1.498017013E-1,1.414051466E-2
2.289033804E0,1.148595884E-1,1.412495971E-1,1.414051466E-2
2.291472502E0,1.124161333E-1,1.339192241E-1,1.047532633E-2
2.293911929E0,1.111944020E-1,1.265888363E-1,9.253596887E-3
2.296352138E0,1.099726781E-1,1.155932844E-1,1.047532633E-2
2.298791565E0,1.087509468E-1,1.058194488E-1,1.169705577E-2
2.301230263E0,1.038640290E-1,9.482388198E-2,9.253596887E-3
2.303669690E0,1.026422977E-1,8.505004644E-2,9.253596887E-3
2.306109898E0,1.026422977E-1,7.771965861E-2,1.047532633E-2
2.308549377E0,1.001988426E-1,6.672409922E-2,1.291878521E-2
2.310988023E0,9.653364867E-2,5.450680107E-2,1.536224410E-2
2.313427450E0,9.409019351E-2,4.351123795E-2,1.780570298E-2
2.315867658E0,9.286846220E-2,3.129393980E-2,2.024916187E-2
2.318307138E0,9.286846220E-2,1.785491779E-2,2.147089131E-2
2.320745783E0,9.042500705E-2,4.415894393E-3,2.513607964E-2
2.323185211E0,8.798154444E-2,-1.024485845E-2,2.880126610E-2
2.325625471E0,8.798154444E-2,-2.490561455E-2,3.124472871E-2
2.328064898E0,9.409019351E-2,-3.834463656E-2,3.368818387E-2
2.330503544E0,9.775537997E-2,-5.422712117E-2,3.613164648E-2
2.332942971E0,1.014205664E-1,-6.400094926E-2,3.857510537E-2
2.335383231E0,1.014205664E-1,-7.499651611E-2,4.101856798E-2
2.337822658E0,1.087509468E-1,-8.354862034E-2,4.346202314E-2
2.340261304E0,1.136378646E-1,-9.454418719E-2,4.346202314E-2
2.342700731E0,1.136378646E-1,-9.943109751E-2,4.468375444E-2
2.345140992E0,1.160813197E-1,-1.030962914E-1,4.712720960E-2
2.347580419E0,1.185247824E-1,-1.067614853E-1,4.957067221E-2
2.350019065E0,1.221899688E-1,-1.055397540E-1,5.201412737E-2
2.352458492E0,1.234117001E-1,-1.104266644E-1,5.079240352E-2
2.354898752E0,1.258551478E-1,-1.092049330E-1,5.323585868E-2
2.357338179E0,1.258551478E-1,-1.079832166E-1,5.201412737E-2
2.359776825E0,1.307420731E-1,-1.043180227E-1,5.445758998E-2
2.362216304E0,1.282986104E-1,-1.067614853E-1,5.323585868E-2
2.364656513E0,1.295203567E-1,-1.006528288E-1,5.323585868E-2
2.367095940E0,1.295203567E-1,-9.576591849E-2,5.445758998E-2
2.369534586E0,1.234117001E-1,-1.018745601E-1,5.445758998E-2
2.371974065E0,1.185247824E-1,-1.067614853E-1,5.567932129E-2
2.374414273E0,1.185247824E-1,-1.092049330E-1,5.690104514E-2
2.376853752E0,1.173030511E-1,-1.189787686E-1,5.934450775E-2
2.379292398E0,1.148595884E-1,-1.214222312E-1,6.300969422E-2
2.381731825E0,1.111944020E-1,-1.311960667E-1,6.056623906E-2
2.384172033E0,1.124161333E-1,-1.360829771E-1,5.934450775E-2
2.386611513E0,1.124161333E-1,-1.434133649E-1,5.690104514E-2
2.389050158E0,1.160813197E-1,-1.409699023E-1,5.690104514E-2
2.391489586E0,1.197465137E-1,-1.434133649E-1,5.323585868E-2
2.393929794E0,1.234117001E-1,-1.458568275E-1,4.957067221E-2
2.396369273E0,1.270768940E-1,-1.434133649E-1,4.834894091E-2
2.398807919E0,1.331855357E-1,-1.434133649E-1,4.590548575E-2
2.401247346E0,1.405159086E-1,-1.385264397E-1,4.712720960E-2
2.403687606E0,1.478462815E-1,-1.348612607E-1,4.834894091E-2
2.406127033E0,1.502897441E-1,-1.250874251E-1,5.323585868E-2
2.408565679E0,1.563983858E-1,-1.140918583E-1,5.445758998E-2
2.411005106E0,1.576201320E-1,-1.043180227E-1,5.323585868E-2
2.413445367E0,1.600635946E-1,-8.843554556E-2,5.445758998E-2
2.415884794E0,1.588418484E-1,-7.499651611E-2,5.201412737E-2
2.418323440E0,1.588418484E-1,-6.155749410E-2,4.834894091E-2
2.420762867E0,1.600635946E-1,-4.689674079E-2,4.590548575E-2
2.423203127E0,1.576201320E-1,-3.345771879E-2,4.101856798E-2
2.425642554E0,1.539549232E-1,-1.879696548E-2,3.490991518E-2
2.428081200E0,1.527332067E-1,-1.692752820E-3,2.757953852E-2
2.430520627E0,1.466245651E-1,1.418973040E-2,1.902743243E-2
2.432960888E0,1.417376399E-1,3.251567110E-2,1.169705577E-2
2.435400315E0,1.392941773E-1,4.595469311E-2,7.014912553E-4
2.437838961E0,1.356289983E-1,6.794582307E-2,-6.628885400E-3
2.440278388E0,1.270768940E-1,7.771965861E-2,-1.884618029E-2
2.442718648E0,1.197465137E-1,9.360215068E-2,-2.984174527E-2
2.445158075E0,1.099726781E-1,9.604561329E-2,-4.205903411E-2
2.447596721E0,1.014205664E-1,1.045977175E-1,-5.183286965E-2
2.450036200E0,9.164673090E-2,1.107063591E-1,-6.160670519E-2
2.452476408E0,8.065116405E-2,1.155932844E-1,-7.504573464E-2
2.454915836E0,7.209905982E-2,1.217019260E-1,-8.481957018E-2
2.457354533E0,6.354695559E-2,1.229236573E-1,-9.703686088E-2
2.459793961E0,5.377312005E-2,1.155932844E-1,-1.141410768E-1
2.462234169E0,4.766447097E-2,1.180367321E-1,-1.263583750E-1
2.464673648E0,3.911236674E-2,1.192584634E-1,-1.373539418E-1
2.467112294E0,2.933853120E-2,1.168150008E-1,-1.507929713E-1
2.469551721E0,2.322988398E-2,1.192584634E-1,-1.630102694E-1
2.471991929E0,1.712123677E-2,1.204801947E-1,-1.740058362E-1
2.474431408E0,1.345604751E-2,1.278105676E-1,-1.813362092E-1
2.476870054E0,3.682212438E-3,1.400278658E-1,-1.898883134E-1
2.479309481E0,1.238753553E-3,1.571320891E-1,-1.947752237E-1
2.481749742E0,1.702408190E-5,1.730145663E-1,-1.996621490E-1
2.484189169E0,-1.204705331E-3,1.998926103E-1,-1.996621490E-1
2.486627815E0,1.702408190E-5,2.316575795E-1,-1.959969550E-1
2.489067242E0,1.238753553E-3,2.609790564E-1,-1.874448508E-1
2.491507502E0,4.903941881E-3,2.951874733E-1,-1.788927466E-1
2.493946929E0,1.101258863E-2,3.318393528E-1,-1.654537320E-1
2.496385575E0,1.467777696E-2,3.697129786E-1,-1.495712399E-1
2.498825002E0,2.200815454E-2,3.990344703E-1,-1.349104941E-1
2.501265263E0,3.422544897E-2,4.295777082E-1,-1.190279871E-1
2.503704690E0,4.888620228E-2,4.588992298E-1,-1.031455100E-1
2.506143336E0,6.354695559E-2,4.821120799E-1,-8.604129404E-2
2.508582763E0,8.675981313E-2,4.992162883E-1,-6.771535426E-2
2.511023023E0,1.087509468E-1,5.126553774E-1,-4.694595188E-2
2.513462450E0,1.380724609E-1,5.224292278E-1,-2.495482750E-2
2.515901096E0,1.710591316E-1,5.322030783E-1,-4.185426515E-3
2.518340575E0,2.028241158E-1,5.383117199E-1,1.536224410E-2
2.520780783E0,2.333673537E-1,5.419768691E-1,3.735337406E-2
2.523220211E0,2.578019500E-1,5.444203615E-1,5.567932129E-2
2.525658856E0,2.797930539E-1,5.407551527E-1,7.767044753E-2
2.528098336E0,2.932320833E-1,5.346465111E-1,9.721811861E-2
2.530538544E0,3.017841876E-1,5.175423026E-1,1.143223345E-1
2.532977971E0,3.091145754E-1,5.065467358E-1,1.314265281E-1
2.535416669E0,3.078928292E-1,4.931076467E-1,1.473090053E-1
2.537856096E0,3.066711128E-1,4.808903635E-1,1.619697660E-1
2.540296304E0,3.091145754E-1,4.698947966E-1,1.766305268E-1
2.542735783E0,3.103362918E-1,4.625644088E-1,1.925130039E-1
2.545174429E0,3.152232170E-1,4.576774836E-1,2.071737498E-1
2.547613856E0,3.262187839E-1,4.552340508E-1,2.230562419E-1
2.550054065E0,3.433229923E-1,4.552340508E-1,2.401604503E-1
2.552493544E0,3.628706634E-1,4.552340508E-1,2.548212111E-1
2.554932190E0,3.873052597E-1,4.503471255E-1,2.670384943E-1
2.557371617E0,4.092963934E-1,4.442384839E-1,2.780340612E-1
2.559811877E0,4.337309599E-1,4.320211709E-1,2.853644490E-1
2.562251304E0,4.593873024E-1,4.283559918E-1,2.926948071E-1
2.564689950E0,4.801566899E-1,4.124734998E-1,2.914730906E-1
2.567129377E0,5.009260774E-1,4.002562165E-1,2.890296280E-1
2.569569638E0,5.204737782E-1,3.855954707E-1,2.890296280E-1
2.572009065E0,5.387997031E-1,3.709346950E-1,2.914730906E-1
2.574447711E0,5.497952700E-1,3.428349197E-1,2.926948071E-1
2.576887138E0,5.620125532E-1,3.025178611E-1,2.914730906E-1
2.579327398E0,5.693429112E-1,2.585355937E-1,2.914730906E-1
2.581766825E0,5.705646873E-1,2.169968188E-1,2.829209864E-1
2.584205471E0,5.681211948E-1,1.742362976E-1,2.682602406E-1
2.586644898E0,5.656777620E-1,1.388061345E-1,2.474908233E-1
2.589085158E0,5.485735536E-1,1.045977175E-1,2.157258689E-1
2.591524586E0,5.339127779E-1,8.260658383E-2,1.827391684E-1
2.593963231E0,5.241389275E-1,7.038928568E-2,1.509741992E-1
2.596402711E0,5.155868530E-1,6.672409922E-2,1.350917220E-1
2.598842919E0,5.070347786E-1,5.695025995E-2,1.277613491E-1
2.601282346E0,5.033695698E-1,3.618085757E-2,1.277613491E-1
2.603720992E0,5.045912862E-1,1.785491779E-2,1.350917220E-1
2.606160471E0,5.070347786E-1,-1.692752820E-3,1.448655576E-1
2.608600679E0,5.131434202E-1,-1.146658789E-2,1.595263034E-1
2.611040158E0,5.241389275E-1,-1.513177622E-2,1.802957058E-1
2.613478804E0,5.351344943E-1,-1.757523417E-2,2.047303021E-1
2.615918231E0,5.387997031E-1,-3.590117767E-2,2.316083461E-1
2.618358440E0,5.436866283E-1,-4.689674079E-2,2.572646737E-1
2.620797919E0,5.473517776E-1,-6.277922541E-2,2.804775238E-1
2.623236565E0,5.473517776E-1,-7.255305350E-2,2.988034487E-1
2.625675992E0,5.387997031E-1,-7.988342643E-2,3.134642243E-1
2.628116200E0,5.314693451E-1,-6.400094926E-2,3.281249702E-1
2.630555679E0,5.143651366E-1,-4.323155433E-2,3.391205370E-1
2.632994325E0,4.935957193E-1,-1.757523417E-2,3.501161039E-1
2.635433752E0,4.728263021E-1,2.029837668E-2,3.623333871E-1
2.637874013E0,4.459482729E-1,5.695025995E-2,3.733289540E-1
2.640313440E0,4.215136766E-1,9.604561329E-2,3.855462670E-1
2.642752086E0,3.970790803E-1,1.388061345E-1,3.977635503E-1
2.645191513E0,3.750879467E-1,1.754580289E-1,4.087591171E-1
2.647631773E0,3.555402756E-1,2.035578042E-1,4.160894752E-1
2.650071200E0,3.384360671E-1,2.267706543E-1,4.258633256E-1
2.652509846E0,3.286622465E-1,2.438748777E-1,4.356371760E-1
2.654949273E0,3.225535750E-1,2.524269521E-1,4.478544593E-1
2.657389533E0,3.188883960E-1,2.622008026E-1,4.637369514E-1
2.659828961E0,3.176666796E-1,2.683094442E-1,4.796194136E-1
2.662267606E0,3.213318586E-1,2.805267274E-1,4.967236519E-1
2.664707086E0,3.262187839E-1,2.878571153E-1,5.040540099E-1
2.667147294E0,3.262187839E-1,2.976309359E-1,5.101627111E-1
2.669586721E0,3.298839629E-1,3.025178611E-1,5.138279200E-1
2.672025367E0,3.274405003E-1,2.976309359E-1,5.138279200E-1
2.674464846E0,3.249970376E-1,2.890788317E-1,5.126062036E-1
2.676905054E0,3.213318586E-1,2.768615484E-1,5.150496364E-1
2.679344481E0,3.127797544E-1,2.597573400E-1,5.199365616E-1
2.681783179E0,3.066711128E-1,2.414314151E-1,5.272669196E-1
2.684222606E0,3.017841876E-1,2.194402814E-1,5.394842029E-1
2.686662815E0,2.932320833E-1,1.864535809E-1,5.517015457E-1
2.689102294E0,2.822365165E-1,1.461365223E-1,5.651405454E-1
2.691540940E0,2.736844122E-1,9.604561329E-2,5.761361122E-1
2.693980367E0,2.651323080E-1,5.084161460E-2,5.883533955E-1
2.696420575E0,2.565802038E-1,3.194164950E-3,5.895751119E-1
2.698860054E0,2.480280995E-1,-2.857080102E-2,5.907968879E-1
2.701298700E0,2.455846369E-1,-4.689674079E-2,5.895751119E-1
2.703738127E0,2.382542789E-1,-7.010959089E-2,5.859099627E-1
2.706178388E0,2.321456075E-1,-7.866171002E-2,5.822447538E-1
2.708617815E0,2.272587121E-1,-9.087899327E-2,5.785795450E-1
2.711056461E0,2.187066078E-1,-1.018745601E-1,5.749143958E-1
2.713495888E0,2.113762200E-1,-1.067614853E-1,5.736926198E-1
2.715936148E0,2.028241158E-1,-1.128701270E-1,5.712491870E-1
2.718375575E0,1.967154741E-1,-1.153135896E-1,5.651405454E-1
2.720814221E0,1.942720115E-1,-1.140918583E-1,5.614753366E-1
2.723253700E0,1.918285489E-1,-1.116483957E-1,5.529232621E-1
2.725693908E0,1.893850863E-1,-1.055397540E-1,5.443711281E-1
2.728133336E0,1.893850863E-1,-1.006528288E-1,5.333755612E-1
2.730571981E0,1.942720115E-1,-9.454418719E-2,5.223799944E-1
2.733011408E0,1.930502653E-1,-9.943109751E-2,5.077192783E-1
2.735451669E0,1.942720115E-1,-1.067614853E-1,4.930584431E-1
2.737891096E0,1.991589367E-1,-1.140918583E-1,4.796194136E-1
2.740329742E0,2.003806531E-1,-1.153135896E-1,4.710673094E-1
2.742769221E0,2.040458322E-1,-1.116483957E-1,4.637369514E-1
2.745209429E0,2.016023695E-1,-1.250874251E-1,4.527413845E-1
2.747648856E0,1.967154741E-1,-1.385264397E-1,4.466327131E-1
2.750087554E0,1.930502653E-1,-1.446350962E-1,4.405240715E-1
2.752526981E0,1.881633699E-1,-1.544089317E-1,4.344154298E-1
2.754967190E0,1.808329821E-1,-1.629610360E-1,4.270850420E-1
2.757406669E0,1.783895195E-1,-1.654044986E-1,4.221981466E-1
2.759845315E0,1.710591316E-1,-1.788435131E-1,4.136460423E-1
2.762284742E0,1.698374152E-1,-1.837304384E-1,4.087591171E-1
2.764725002E0,1.673939526E-1,-1.788435131E-1,4.014287293E-1
2.767164429E0,1.673939526E-1,-1.739566028E-1,3.928766251E-1
2.769603075E0,1.649504900E-1,-1.800652444E-1,3.794375956E-1
2.772042502E0,1.637287736E-1,-1.825087070E-1,3.672203124E-1
2.774482763E0,1.637287736E-1,-1.849521697E-1,3.513378203E-1
2.776922190E0,1.637287736E-1,-1.886173487E-1,3.403422534E-1
2.779360836E0,1.637287736E-1,-1.935042739E-1,3.293466866E-1
2.781800263E0,1.600635946E-1,-1.996129155E-1,3.159076869E-1
2.784240523E0,1.588418484E-1,-2.057215571E-1,3.036903739E-1
2.786679950E0,1.551766694E-1,-2.142736614E-1,2.939165533E-1
2.789118596E0,1.502897441E-1,-2.167171240E-1,2.853644490E-1
2.791558023E0,1.490680277E-1,-2.216040492E-1,2.816992402E-1
2.793998283E0,1.478462815E-1,-2.252692282E-1,2.743688822E-1
2.796437711E0,1.466245651E-1,-2.313778847E-1,2.658167779E-1
2.798876356E0,1.405159086E-1,-2.594776750E-1,2.621515691E-1
2.801315836E0,1.331855357E-1,-2.912426591E-1,2.609298527E-1
2.803756044E0,1.221899688E-1,-3.217858970E-1,2.572646737E-1
2.806195471E0,1.148595884E-1,-3.364466429E-1,2.511560023E-1
2.808634117E0,1.087509468E-1,-3.425552845E-1,2.401604503E-1
2.811073596E0,1.001988426E-1,-3.401118219E-1,2.328300774E-1
2.813513804E0,9.531191736E-2,-3.388901055E-1,2.267214209E-1
2.815953283E0,8.920327574E-2,-3.352249265E-1,2.206127793E-1
2.818391929E0,8.309462667E-2,-3.242293596E-1,2.157258689E-1
2.820831356E0,7.698597759E-2,-3.156772554E-1,2.120606750E-1
2.823271565E0,7.332079113E-2,-3.071251512E-1,2.108389437E-1
2.825711044E0,6.965560466E-2,-2.936861217E-1,2.071737498E-1
2.828149690E0,6.599041820E-2,-2.900209129E-1,2.022868395E-1
2.830589117E0,5.988176912E-2,-2.839122713E-1,1.973999143E-1
2.833029377E0,5.743830651E-2,-2.778036296E-1,1.900695413E-1
2.835468804E0,5.743830651E-2,-2.692515254E-1,1.876260787E-1
2.837907450E0,5.743830651E-2,-2.631428838E-1,1.839608997E-1
2.840346877E0,5.621657893E-2,-2.472603619E-1,1.766305268E-1
2.842787138E0,5.743830651E-2,-2.362647951E-1,1.729653329E-1
2.845226565E0,5.621657893E-2,-2.277126908E-1,1.705218703E-1
2.847665211E0,5.377312005E-2,-2.203823179E-1,1.680784076E-1
2.850104638E0,5.010793358E-2,-2.130519450E-1,1.668566763E-1
2.852544898E0,4.644274339E-2,-2.081650198E-1,1.644132286E-1
2.854984325E0,4.522101581E-2,-2.057215571E-1,1.583045721E-1
2.857422971E0,4.644274339E-2,-1.959477216E-1,1.558611244E-1
2.859862450E0,4.033409804E-2,-1.935042739E-1,1.546393931E-1
2.862302658E0,3.911236674E-2,-1.947259903E-1,1.485307366E-1
2.864742086E0,3.789063543E-2,-1.922825426E-1,1.424220949E-1
2.867180731E0,3.544718027E-2,-1.898390800E-1,1.412003636E-1
2.869620211E0,3.422544897E-2,-1.910608113E-1,1.363134533E-1
2.872060419E0,3.178199008E-2,-1.910608113E-1,1.302048117E-1
2.874499846E0,3.056026064E-2,-1.947259903E-1,1.265396327E-1
2.876938544E0,2.933853120E-2,-2.032781094E-1,1.216527075E-1
2.879377971E0,2.567334287E-2,-2.130519450E-1,1.143223345E-1
2.881818179E0,2.322988398E-2,-2.167171240E-1,1.082136855E-1
2.884257658E0,1.956469566E-2,-2.191605866E-1,9.966158122E-2
2.886696304E0,1.712123677E-2,-2.191605866E-1,8.988774568E-2
2.889135731E0,1.589950733E-2,-2.167171240E-1,8.011391014E-2
2.891575940E0,1.589950733E-2,-2.118302137E-1,7.278352976E-2
2.894015419E0,1.345604751E-2,-2.130519450E-1,6.056623906E-2
2.896454065E0,1.467777696E-2,-2.106084824E-1,5.079240352E-2
2.898893492E0,9.790859185E-3,-2.154953927E-1,3.735337406E-2
2.901333752E0,8.569129743E-3,-2.203823179E-1,2.513607964E-2
2.903773179E0,1.101258863E-2,-2.203823179E-1,1.291878521E-2
2.906211825E0,8.569129743E-3,-2.423734367E-1,-5.202381872E-4
2.908651252E0,8.569129743E-3,-2.435951829E-1,-1.273753308E-2
2.911091513E0,9.790859185E-3,-2.533690333E-1,-2.495482750E-2
2.913530940E0,1.223431807E-2,-2.570342422E-1,-3.228520229E-2
2.915969586E0,1.589950733E-2,-2.582559586E-1,-3.961557895E-2
2.918409065E0,1.956469566E-2,-2.692515254E-1,-4.694595188E-2
2.920849273E0,2.078642510E-2,-2.680298090E-1,-5.427633226E-2
2.923288700E0,1.956469566E-2,-2.753601670E-1,-6.038498133E-2
2.925727346E0,1.956469566E-2,-2.765819132E-1,-6.649362296E-2
2.928166825E0,1.712123677E-2,-2.753601670E-1,-7.138054073E-2
2.930607033E0,1.589950733E-2,-2.814688087E-1,-7.504573464E-2
2.933046461E0,9.790859185E-3,-2.802470922E-1,-7.748918980E-2
2.935485106E0,4.903941881E-3,-2.753601670E-1,-8.115437627E-2
2.937924586E0,3.682212438E-3,-2.729167044E-1,-8.604129404E-2
2.940364794E0,-2.426434774E-3,-2.606994212E-1,-8.726302534E-2
2.942804273E0,-4.869893659E-3,-2.460386455E-1,-8.848475665E-2
2.945242919E0,-7.313352544E-3,-2.338213325E-1,-9.337167442E-2
2.947682346E0,-1.097854134E-2,-2.179388553E-1,-1.007020473E-1
2.950122606E0,-1.220027078E-2,-1.947259903E-1,-1.055889651E-1
2.952562033E0,-8.535082452E-3,-1.702914089E-1,-1.104758829E-1
2.955000679E0,-3.648164216E-3,-1.458568275E-1,-1.153628007E-1
2.957440106E0,-3.648164216E-3,-1.140918583E-1,-1.214714572E-1
2.959880367E0,1.238753553E-3,-7.866171002E-2,-1.312453002E-1
2.962319794E0,7.347400766E-3,-4.323155433E-2,-1.397974044E-1
2.964758440E0,9.790859185E-3,-1.391004678E-2,-1.471277773E-1
2.967197867E0,1.223431807E-2,1.663318835E-2,-1.556798816E-1
2.969638127E0,1.101258863E-2,5.206334218E-2,-1.605668068E-1
2.972077554E0,1.345604751E-2,7.771965861E-2,-1.642320007E-1
2.974516200E0,8.569129743E-3,1.009325236E-1,-1.703406423E-1
2.976955679E0,8.569129743E-3,1.278105676E-1,-1.703406423E-1
2.979395888E0,2.460482996E-3,1.498017013E-1,-1.715623736E-1
2.981835315E0,-3.648164216E-3,1.693493724E-1,-1.727841049E-1
2.984273961E0,-4.869893659E-3,1.937839687E-1,-1.764492840E-1
2.986713440E0,-4.869893659E-3,2.243272066E-1,-1.764492840E-1
2.989153648E0,-4.869893659E-3,2.475400567E-1,-1.752275527E-1
2.991593127E0,-1.204705331E-3,2.768615484E-1,-1.776710153E-1
2.994031773E0,3.682212438E-3,2.964092195E-1,-1.801144779E-1
2.996471200E0,4.903941881E-3,3.208437860E-1,-1.801144779E-1
2.998911408E0,8.569129743E-3,3.355045617E-1,-1.788927466E-1
3.001350888E0,6.125671323E-3,3.477218449E-1,-1.788927466E-1
3.003789533E0,3.682212438E-3,3.636043370E-1,-1.727841049E-1
3.006228961E0,-6.091623101E-3,3.623825908E-1,-1.691189110E-1
3.008669169E0,-2.197410539E-2,3.611608744E-1,-1.654537320E-1
3.011108648E0,-3.174794093E-2,3.611608744E-1,-1.520147026E-1
3.013547294E0,-4.518696666E-2,3.574956656E-1,-1.385756731E-1
3.015986721E0,-5.496080220E-2,3.513870239E-1,-1.214714572E-1
3.018426981E0,-6.229117513E-2,3.391697407E-1,-1.104758829E-1
3.020866408E0,-6.106945127E-2,3.355045617E-1,-9.214994311E-2
3.023305054E0,-6.351290643E-2,3.220655322E-1,-7.871092111E-2
3.025744481E0,-6.106945127E-2,3.074047863E-1,-6.160670519E-2
3.028184742E0,-5.740425736E-2,2.878571153E-1,-4.205903411E-2
3.030624169E0,-5.496080220E-2,2.707528770E-1,-2.495482750E-2
3.033062815E0,-5.496080220E-2,2.560921311E-1,-4.185426515E-3
3.035502294E0,-6.106945127E-2,2.389879525E-1,1.047532633E-2
3.037942502E0,-6.473463774E-2,2.279923856E-1,2.635780908E-2
3.040381929E0,-7.450847328E-2,2.157751024E-1,3.735337406E-2
3.042820575E0,-8.306057751E-2,2.035578042E-1,4.712720960E-2
3.045260054E0,-9.283441305E-2,2.084447145E-1,5.567932129E-2
3.047700263E0,-1.001647934E-1,2.060012519E-1,6.300969422E-2
3.050139690E0,-1.074951664E-1,2.157751024E-1,6.911834329E-2
3.052578388E0,-1.136038080E-1,2.194402814E-1,6.911834329E-2
3.055017815E0,-1.123820767E-1,2.304358482E-1,7.400526106E-2
3.057458023E0,-1.136038080E-1,2.402096838E-1,7.400526106E-2
3.059897502E0,-1.136038080E-1,2.475400567E-1,7.400526106E-2
3.062336148E0,-1.123820767E-1,2.524269521E-1,7.400526106E-2
3.064775575E0,-1.148255393E-1,2.548704147E-1,7.400526106E-2
3.067215836E0,-1.148255393E-1,2.487617880E-1,6.911834329E-2
3.069655263E0,-1.160472706E-1,2.524269521E-1,6.545315683E-2
3.072093908E0,-1.172690019E-1,2.512052357E-1,6.178796291E-2
3.074533336E0,-1.184907332E-1,2.475400567E-1,5.323585868E-2
3.076973596E0,-1.209341958E-1,2.450965941E-1,4.468375444E-2
3.079413023E0,-1.197124645E-1,2.463183254E-1,3.613164648E-2
3.081851669E0,-1.245993748E-1,2.438748777E-1,2.269262075E-2
3.084291096E0,-1.270428300E-1,2.438748777E-1,9.253596887E-3
3.086731356E0,-1.331514716E-1,2.402096838E-1,-5.407155957E-3
3.089170783E0,-1.441470385E-1,2.365444899E-1,-2.373309806E-2
3.091609429E0,-1.551426053E-1,2.255489230E-1,-4.083731025E-2
3.094048908E0,-1.685816348E-1,2.218837440E-1,-5.916325003E-2
3.096489117E0,-1.844641268E-1,2.182185501E-1,-7.748918980E-2
3.098928544E0,-2.003466189E-1,2.121099085E-1,-9.459340572E-2
3.101367242E0,-2.211160064E-1,2.157751024E-1,-1.129193455E-1
3.103806669E0,-2.467723191E-1,2.182185501E-1,-1.324670315E-1
3.106246877E0,-2.638765574E-1,2.243272066E-1,-1.459060609E-1
3.108686356E0,-2.870894074E-1,2.292141169E-1,-1.581233442E-1
3.111125002E0,-3.090805411E-1,2.365444899E-1,-1.691189110E-1
3.113564429E0,-3.274064660E-1,2.499835044E-1,-1.752275527E-1
3.116004690E0,-3.481758833E-1,2.573138773E-1,-1.727841049E-1
3.118444117E0,-3.652800918E-1,2.719746232E-1,-1.654537320E-1
3.120882763E0,-3.811625838E-1,2.841919065E-1,-1.544581652E-1
3.123322190E0,-4.019319713E-1,3.061830401E-1,-1.422408670E-1
3.125762450E0,-4.178144634E-1,3.245089948E-1,-1.288018376E-1
3.128201877E0,-4.373621345E-1,3.526087701E-1,-1.092541516E-1
3.130640523E0,-4.520228803E-1,3.880389035E-1,-9.092821181E-2
3.133079950E0,-4.642401636E-1,4.246908128E-1,-6.893708557E-2
3.135520211E0,-4.789009094E-1,4.698947966E-1,-4.572422802E-2
3.137959638E0,-4.935616851E-1,5.163205862E-1,-2.251136862E-2
3.140398283E0,-5.131093264E-1,5.590810776E-1,-6.628885400E-3
3.142837763E0,-5.326570272E-1,6.079502702E-1,5.588409025E-3
3.145277971E0,-5.558698773E-1,6.580411792E-1,1.291878521E-2
3.147717398E0,-5.803044438E-1,7.154624462E-1,1.780570298E-2
3.150156044E0,-6.010738611E-1,7.741054893E-1,2.269262075E-2
3.152595523E0,-6.230649948E-1,8.327484727E-1,3.002299741E-2
3.155035731E0,-6.450561285E-1,8.730655909E-1,3.979683667E-2
3.157475211E0,-6.646037698E-1,9.060522318E-1,5.201412737E-2
3.159913856E0,-6.865949035E-1,9.243782163E-1,6.667488813E-2
3.162353283E0,-7.061426044E-1,9.463693500E-1,8.377909660E-2
3.164793492E0,-7.256902456E-1,9.671387076E-1,1.021050364E-1
3.167232971E0,-7.452379465E-1,9.817994833E-1,1.253179014E-1
3.169671617E0,-7.684507966E-1,9.927950501E-1,1.412003636E-1
3.172111044E0,-7.916636467E-1,1.001347065E0,1.570828557E-1
3.174551304E0,-8.197634220E-1,1.006233931E0,1.693001390E-1
3.176990731E0,-8.503066897E-1,1.000125289E0,1.802957058E-1
3.179429377E0,-8.869585395E-1,9.952384830E-1,1.900695413E-1
3.181868804E0,-9.248321652E-1,9.805777669E-1,1.961781979E-1
3.184309065E0,-9.651492238E-1,9.634735584E-1,2.010651082E-1
3.186748492E0,-1.004244685E0,9.402607083E-1,2.010651082E-1
3.189187138E0,-1.042118311E0,9.109391570E-1,1.973999143E-1
3.191626565E0,-1.075104952E0,8.791742325E-1,1.937347353E-1
3.194066825E0,-1.101982951E0,8.413006067E-1,1.888478100E-1
3.196506252E0,-1.121530652E0,8.009835482E-1,1.827391684E-1
3.198944898E0,-1.130082726E0,7.508926392E-1,1.693001390E-1
3.201384377E0,-1.128861070E0,6.910278797E-1,1.570828557E-1
3.203824586E0,-1.115422010E0,6.226110458E-1,1.436438262E-1
3.206264013E0,-1.090987444E0,5.444203615E-1,1.277613491E-1
3.208702711E0,-1.055557251E0,4.625644088E-1,1.082136855E-1
3.211142138E0,-1.010353327E0,3.782650828E-1,8.866601437E-2
3.213582346E0,-9.627057910E-1,3.012961149E-1,6.423142552E-2
3.216021825E0,-9.089496732E-1,2.218837440E-1,3.613164648E-2
3.218460471E0,-8.527501225E-1,1.522451639E-1,5.588409025E-3
3.220899898E0,-7.941071391E-1,8.749349415E-2,-2.373309806E-2
3.223340106E0,-7.354640961E-1,3.984604776E-2,-5.305460095E-2
3.225779586E0,-6.755993366E-1,-2.914482262E-3,-8.115437627E-2
3.228218231E0,-6.169563532E-1,-3.712290525E-2,-1.068106964E-1
3.230657658E0,-5.558698773E-1,-6.522268057E-2,-1.336887628E-1
3.233097919E0,-4.935616851E-1,-8.965726197E-2,-1.617885381E-1
3.235537346E0,-4.336969256E-1,-1.043180227E-1,-1.947752237E-1
3.237975992E0,-3.713887334E-1,-1.214222312E-1,-2.277619243E-1
3.240415419E0,-3.090805411E-1,-1.311960667E-1,-2.607486248E-1
3.242855679E0,-2.467723191E-1,-1.360829771E-1,-2.912918627E-1
3.245295106E0,-1.881293058E-1,-1.299743354E-1,-3.132829964E-1
3.247733752E0,-1.294862926E-1,-1.299743354E-1,-3.340523839E-1
3.250173231E0,-7.573019713E-2,-1.214222312E-1,-3.474914134E-1
3.252613440E0,-2.808275074E-2,-1.116483957E-1,-3.572652340E-1
3.255052919E0,1.589950733E-2,-1.067614853E-1,-3.658173680E-1
3.257491565E0,5.621657893E-2,-9.698764980E-2,-3.755911887E-1
3.259930992E0,9.164673090E-2,-9.087899327E-2,-3.804781139E-1
3.262371200E0,1.221899688E-1,-7.621824741E-2,-3.829215765E-1
3.264810679E0,1.490680277E-1,-7.133132219E-2,-3.878084719E-1
3.267249325E0,1.771678030E-1,-4.934020340E-2,-3.865867555E-1
3.269688752E0,1.979371905E-1,-2.734906971E-2,-3.841432929E-1
3.272129013E0,2.150413990E-1,-4.710233479E-4,-3.768129051E-1
3.274568440E0,2.297021449E-1,3.007221222E-2,-3.633739054E-1
3.277007086E0,2.419194579E-1,6.183717772E-2,-3.511565924E-1
3.279446513E0,2.541367412E-1,9.360215068E-2,-3.364958465E-1
3.281886773E0,2.639105916E-1,1.155932844E-1,-3.206133544E-1
3.284326200E0,2.712409496E-1,1.351409554E-1,-3.047308922E-1
3.286764846E0,2.822365165E-1,1.473582387E-1,-2.876266837E-1
3.289204325E0,2.883451581E-1,1.583538055E-1,-2.729659081E-1
3.291644533E0,2.968972623E-1,1.607972682E-1,-2.607486248E-1
3.294083961E0,3.042276502E-1,1.620189995E-1,-2.497530580E-1
3.296522606E0,3.115580380E-1,1.669059098E-1,-2.387574911E-1
3.298962086E0,3.152232170E-1,1.705711037E-1,-2.314271182E-1
3.301402294E0,3.213318586E-1,1.754580289E-1,-2.265401930E-1
3.303841721E0,3.249970376E-1,1.717928350E-1,-2.204315513E-1
3.306280419E0,3.225535750E-1,1.766797602E-1,-2.118794471E-1
3.308719846E0,3.213318586E-1,1.779014766E-1,-2.106577158E-1
3.311160054E0,3.225535750E-1,1.827884018E-1,-2.118794471E-1
3.313599533E0,3.225535750E-1,1.876753122E-1,-2.094359845E-1
3.316038179E0,3.298839629E-1,1.901187748E-1,-2.045490742E-1
3.318477606E0,3.372143507E-1,1.937839687E-1,-1.972186863E-1
3.320917867E0,3.384360671E-1,1.888970435E-1,-1.898883134E-1
3.323357294E0,3.347708881E-1,1.925622374E-1,-1.776710153E-1
3.325795940E0,3.359926045E-1,1.815666705E-1,-1.617885381E-1
3.328235367E0,3.347708881E-1,1.766797602E-1,-1.422408670E-1
3.330675627E0,3.298839629E-1,1.620189995E-1,-1.202497259E-1
3.333115054E0,3.274405003E-1,1.583538055E-1,-1.031455100E-1
3.335553700E0,3.237753212E-1,1.669059098E-1,-8.848475665E-2
3.337993127E0,3.164449334E-1,1.754580289E-1,-7.871092111E-2
3.340433388E0,3.115580380E-1,1.925622374E-1,-7.504573464E-2
3.342872815E0,3.066711128E-1,2.035578042E-1,-8.237610757E-2
3.345311461E0,3.042276502E-1,2.169968188E-1,-8.970648050E-2
3.347750940E0,3.005624712E-1,2.194402814E-1,-9.948031604E-2
3.350191148E0,2.932320833E-1,2.133316398E-1,-1.080324277E-1
3.352630575E0,2.895669043E-1,2.047795355E-1,-1.129193455E-1
3.355069221E0,2.883451581E-1,1.937839687E-1,-1.129193455E-1
3.357508700E0,2.834582329E-1,1.779014766E-1,-1.092541516E-1
3.359948908E0,2.797930539E-1,1.559103578E-1,-1.068106964E-1
3.362388388E0,2.700192332E-1,1.351409554E-1,-1.019237787E-1
3.364827033E0,2.639105916E-1,1.131498218E-1,-9.337167442E-2
3.367266461E0,2.565802038E-1,8.993695676E-2,-7.993264496E-2
3.369706721E0,2.443629205E-1,6.183717772E-2,-6.893708557E-2
3.372146148E0,2.333673537E-1,3.129393980E-2,-6.160670519E-2
3.374584794E0,2.174848616E-1,7.507060654E-4,-5.549806356E-2
3.377024221E0,2.040458322E-1,-2.124042436E-2,-4.938941449E-2
3.379464481E0,1.893850863E-1,-4.811847210E-2,-4.450249672E-2
3.381903908E0,1.771678030E-1,-7.133132219E-2,-4.205903411E-2
3.384342554E0,1.673939526E-1,-9.820938110E-2,-4.083731025E-2
3.386782033E0,1.625070274E-1,-1.287526041E-1,-4.328076541E-2
3.389222242E0,1.600635946E-1,-1.629610360E-1,-4.694595188E-2
3.391661669E0,1.600635946E-1,-1.910608113E-1,-5.305460095E-2
3.394100315E0,1.563983858E-1,-2.167171240E-1,-5.794151872E-2
3.396539794E0,1.563983858E-1,-2.350430787E-1,-5.916325003E-2
3.398980002E0,1.551766694E-1,-2.545907795E-1,-6.405016780E-2
3.401419481E0,1.527332067E-1,-2.668080628E-1,-6.771535426E-2
3.403858127E0,1.502897441E-1,-2.729167044E-1,-7.138054073E-2
3.406297554E0,1.429593712E-1,-2.778036296E-1,-7.626745850E-2
3.408737763E0,1.380724609E-1,-2.668080628E-1,-7.748918980E-2
3.411177242E0,1.258551478E-1,-2.814688087E-1,-9.092821181E-2
3.413615888E0,1.136378646E-1,-2.900209129E-1,-1.031455100E-1
3.416055315E0,1.026422977E-1,-3.022382259E-1,-1.141410768E-1
3.418495575E0,8.798154444E-2,-3.120120466E-1,-1.288018376E-1
3.420935002E0,7.698597759E-2,-3.230076134E-1,-1.422408670E-1
3.423373648E0,6.599041820E-2,-3.303380013E-1,-1.507929713E-1
3.425813075E0,5.255138874E-2,-3.303380013E-1,-1.605668068E-1
3.428253336E0,4.399928451E-2,-3.352249265E-1,-1.654537320E-1
3.430692763E0,3.056026064E-2,-3.352249265E-1,-1.703406423E-1
3.433131408E0,1.834296621E-2,-3.376683593E-1,-1.752275527E-1
3.435570888E0,8.569129743E-3,-3.462204933E-1,-1.813362092E-1
3.438011096E0,-4.869893659E-3,-3.498856723E-1,-1.886665821E-1
3.440450523E0,-1.220027078E-2,-3.511073887E-1,-1.947752237E-1
3.442889221E0,-1.953064650E-2,-3.547725976E-1,-2.021056116E-1
3.445328648E0,-2.930448204E-2,-3.657681346E-1,-2.106577158E-1
3.447768856E0,-4.030004889E-2,-3.645464182E-1,-2.155446261E-1
3.450208336E0,-5.251733959E-2,-3.523291349E-1,-2.106577158E-1
3.452646981E0,-6.717809290E-2,-3.449987471E-1,-2.057707906E-1
3.455086408E0,-7.817365974E-2,-3.303380013E-1,-1.959969550E-1
3.457526669E0,-9.405614436E-2,-3.132337928E-1,-1.874448508E-1
3.459966096E0,-1.062734351E-1,-2.936861217E-1,-1.752275527E-1
3.462404742E0,-1.221559271E-1,-2.802470922E-1,-1.630102694E-1
3.464844169E0,-1.368166804E-1,-2.655863464E-1,-1.483495086E-1
3.467284429E0,-1.490339637E-1,-2.460386455E-1,-1.324670315E-1
3.469723856E0,-1.600295305E-1,-2.387082577E-1,-1.239149198E-1
3.472162502E0,-1.710250974E-1,-2.240475118E-1,-1.141410768E-1
3.474601981E0,-1.795772016E-1,-2.093867511E-1,-1.055889651E-1
3.477042190E0,-1.832423806E-1,-1.996129155E-1,-9.948031604E-2
3.479481617E0,-1.869075894E-1,-1.849521697E-1,-9.825859219E-2
3.481920263E0,-1.881293058E-1,-1.739566028E-1,-9.703686088E-2
3.484359742E0,-1.893510520E-1,-1.690696776E-1,-9.703686088E-2
3.486799950E0,-1.881293058E-1,-1.605175734E-1,-9.337167442E-2
3.489239429E0,-1.856858432E-1,-1.458568275E-1,-9.214994311E-2
3.491678075E0,-1.832423806E-1,-1.397481710E-1,-8.970648050E-2
3.494117502E0,-1.820206642E-1,-1.348612607E-1,-8.970648050E-2
3.496557711E0,-1.771337390E-1,-1.275308728E-1,-8.970648050E-2
3.498997190E0,-1.759120226E-1,-1.238656938E-1,-9.214994311E-2
3.501435836E0,-1.698033810E-1,-1.214222312E-1,-9.337167442E-2
3.503875263E0,-1.649164557E-1,-1.092049330E-1,-9.581512958E-2
3.506315523E0,-1.575860679E-1,-1.043180227E-1,-9.337167442E-2
3.508754950E0,-1.514774263E-1,-9.820938110E-2,-9.092821181E-2
3.511193596E0,-1.441470385E-1,-8.843554556E-2,-8.359783888E-2
3.513633023E0,-1.417036057E-1,-9.210072458E-2,-8.115437627E-2
3.516073283E0,-1.319297552E-1,-7.743997872E-2,-7.382400334E-2
3.518512711E0,-1.245993748E-1,-7.866171002E-2,-6.893708557E-2
3.520951356E0,-1.197124645E-1,-7.377478480E-2,-6.405016780E-2
3.523390836E0,-1.111603603E-1,-6.766614318E-2,-5.671978742E-2
3.525831044E0,-1.074951664E-1,-6.766614318E-2,-5.061114579E-2
3.528270471E0,-1.026082486E-1,-6.400094926E-2,-4.572422802E-2
3.530709117E0,-1.001647934E-1,-5.789230764E-2,-4.572422802E-2
3.533148596E0,-9.894306213E-2,-4.811847210E-2,-4.328076541E-2
3.535588804E0,-1.026082486E-1,-3.956636786E-2,-4.083731025E-2
3.538028283E0,-1.111603603E-1,-3.590117767E-2,-3.717211634E-2
3.540466929E0,-1.172690019E-1,-3.101425990E-2,-3.106347658E-2
3.542906356E0,-1.270428300E-1,-2.857080102E-2,-2.495482750E-2
3.545346617E0,-1.343732178E-1,-2.612734213E-2,-1.762445085E-2
3.547786044E0,-1.417036057E-1,-2.124042436E-2,-1.151580364E-2
3.550224690E0,-1.453687847E-1,-2.001869678E-2,-2.963697072E-3
3.552664117E0,-1.478122473E-1,-1.757523417E-2,3.144950140E-3
3.555104377E0,-1.490339637E-1,-2.001869678E-2,1.169705577E-2
3.557543804E0,-1.502557099E-1,-2.734906971E-2,1.780570298E-2
3.559982450E0,-1.465905011E-1,-2.490561455E-2,2.757953852E-2
3.562421877E0,-1.429253221E-1,-3.467945009E-2,3.246645629E-2
3.564862138E0,-1.355949342E-1,-3.834463656E-2,3.735337406E-2
3.567301565E0,-1.282645762E-1,-5.422712117E-2,4.346202314E-2
3.569740211E0,-1.172690019E-1,-7.010959089E-2,4.957067221E-2
3.572179690E0,-1.038299799E-1,-9.087899327E-2,5.567932129E-2
3.574619898E0,-9.405614436E-2,-1.092049330E-1,6.178796291E-2
3.577059377E0,-8.306057751E-2,-1.299743354E-1,6.789661199E-2
3.579498023E0,-7.206501067E-2,-1.544089317E-1,7.034007460E-2
3.581937450E0,-6.229117513E-2,-1.690696776E-1,7.034007460E-2
3.584377658E0,-5.373907089E-2,-2.008346468E-1,7.034007460E-2
3.586817138E0,-3.785658628E-2,-2.130519450E-1,7.400526106E-2
3.589255783E0,-2.319583297E-2,-2.362647951E-1,7.400526106E-2
3.591695211E0,-1.220027078E-2,-2.619211376E-1,7.278352976E-2
3.594135471E0,4.903941881E-3,-2.765819132E-1,7.278352976E-2
3.596574898E0,1.956469566E-2,-3.071251512E-1,6.911834329E-2
3.599013544E0,3.422544897E-2,-3.254510760E-1,6.789661199E-2
3.601452971E0,4.766447097E-2,-3.388901055E-1,6.911834329E-2
3.603893231E0,5.988176912E-2,-3.474422097E-1,6.667488813E-2
3.606332658E0,7.576425374E-2,-3.498856723E-1,7.156179845E-2
3.608771304E0,7.942944020E-2,-3.511073887E-1,7.156179845E-2
3.611210783E0,8.309462667E-2,-3.425552845E-1,7.156179845E-2
3.613650992E0,8.431635797E-2,-3.340031803E-1,7.034007460E-2
3.616090471E0,7.698597759E-2,-3.291162550E-1,6.667488813E-2
3.618529117E0,7.332079113E-2,-3.230076134E-1,6.423142552E-2
3.620968544E0,7.087732852E-2,-3.156772554E-1,6.300969422E-2
3.623408752E0,6.843387336E-2,-3.059034050E-1,6.300969422E-2
3.625848231E0,7.087732852E-2,-2.973513007E-1,6.423142552E-2
3.628286877E0,7.454252243E-2,-2.814688087E-1,6.789661199E-2
3.630726304E0,7.454252243E-2,-2.716949880E-1,6.667488813E-2
3.633166565E0,7.698597759E-2,-2.533690333E-1,6.911834329E-2
3.635605992E0,7.332079113E-2,-2.374865413E-1,6.789661199E-2
3.638044638E0,6.599041820E-2,-2.093867511E-1,6.667488813E-2
3.640484065E0,5.499485135E-2,-1.935042739E-1,6.056623906E-2
3.642924325E0,3.789063543E-2,-1.825087070E-1,5.201412737E-2
3.645363752E0,1.467777696E-2,-1.702914089E-1,4.834894091E-2
3.647802398E0,-7.313352544E-3,-1.751783192E-1,4.346202314E-2
3.650241877E0,-2.808275074E-2,-1.702914089E-1,3.613164648E-2
3.652682086E0,-4.640869051E-2,-1.641827673E-1,2.391435020E-2
3.655121565E0,-6.229117513E-2,-1.531872004E-1,1.047532633E-2
3.657560211E0,-7.450847328E-2,-1.446350962E-1,-6.628885400E-3
3.659999638E0,-8.916922659E-2,-1.483002752E-1,-2.251136862E-2
3.662439846E0,-9.772133082E-2,-1.421916336E-1,-3.961557895E-2
3.664879325E0,-1.038299799E-1,-1.397481710E-1,-5.183286965E-2
3.667317971E0,-1.099386290E-1,-1.397481710E-1,-6.893708557E-2
3.669757398E0,-1.099386290E-1,-1.373047084E-1,-7.993264496E-2
3.672197658E0,-1.123820767E-1,-1.360829771E-1,-9.581512958E-2
3.674637086E0,-1.111603603E-1,-1.287526041E-1,-1.141410768E-1
3.677075731E0,-1.074951664E-1,-1.128701270E-1,-1.336887628E-1
3.679515158E0,-1.026082486E-1,-8.843554556E-2,-1.520147026E-1
3.681955419E0,-9.527786821E-2,-6.400094926E-2,-1.703406423E-1
3.684394846E0,-8.916922659E-2,-2.124042436E-2,-1.825579405E-1
3.686833492E0,-7.695192844E-2,2.640702389E-2,-1.923317760E-1
3.689272971E0,-6.595636159E-2,7.038928568E-2,-2.033273429E-1
3.691713179E0,-5.496080220E-2,1.241453886E-1,-2.057707906E-1
3.694152606E0,-4.396523535E-2,1.681276411E-1,-2.057707906E-1
3.696591304E0,-3.907831758E-2,2.072229832E-1,-2.069925219E-1
3.699030731E0,-3.541313112E-2,2.450965941E-1,-2.021056116E-1
3.701470940E0,-3.663485870E-2,2.609790564E-1,-1.996621490E-1
3.703910419E0,-3.785658628E-2,2.817484438E-1,-1.935535073E-1
3.706349065E0,-3.785658628E-2,2.878571153E-1,-1.911100447E-1
3.708788492E0,-4.152177647E-2,2.927440107E-1,-1.837796718E-1
3.711228752E0,-4.152177647E-2,2.988526821E-1,-1.752275527E-1
3.713668179E0,-4.518696666E-2,2.915222943E-1,-1.691189110E-1
3.716106825E0,-4.518696666E-2,2.939657569E-1,-1.617885381E-1
3.718546252E0,-5.007388443E-2,2.854136527E-1,-1.581233442E-1
3.720986513E0,-5.373907089E-2,2.780832648E-1,-1.532364339E-1
3.723425940E0,-5.862598866E-2,2.573138773E-1,-1.459060609E-1
3.725864586E0,-6.229117513E-2,2.426531464E-1,-1.349104941E-1
3.728304065E0,-7.450847328E-2,2.194402814E-1,-1.288018376E-1
3.730744273E0,-8.183884621E-2,1.937839687E-1,-1.275801063E-1
3.733183700E0,-8.794749528E-2,1.791232079E-1,-1.202497259E-1
3.735622398E0,-9.649959952E-2,1.595755368E-1,-1.165845320E-1
3.738061825E0,-1.001647934E-1,1.412495971E-1,-1.165845320E-1
3.740502033E0,-1.050517038E-1,1.217019260E-1,-1.239149198E-1
3.742941513E0,-1.050517038E-1,1.045977175E-1,-1.288018376E-1
3.745380158E0,-1.074951664E-1,8.260658383E-2,-1.385756731E-1
3.747819586E0,-1.099386290E-1,5.572853237E-2,-1.520147026E-1
3.750259846E0,-1.062734351E-1,3.618085757E-2,-1.654537320E-1
3.752699273E0,-1.038299799E-1,1.907664724E-2,-1.837796718E-1
3.755137919E0,-1.013865173E-1,4.415894393E-3,-2.021056116E-1
3.757577346E0,-1.001647934E-1,-6.579670589E-3,-2.240967453E-1
3.760017606E0,-9.649959952E-2,-1.268831734E-2,-2.509747744E-1
3.762457033E0,-9.405614436E-2,-4.136211704E-3,-2.802962959E-1
3.764895679E0,-8.672576398E-2,7.507060654E-4,-3.169481754E-1
3.767335158E0,-7.695192844E-2,2.885048278E-2,-3.511565924E-1
3.769775367E0,-6.717809290E-2,6.305891275E-2,-3.804781139E-1
3.772214794E0,-4.885215312E-2,1.107063591E-1,-4.036909640E-1
3.774653440E0,-2.930448204E-2,1.717928350E-1,-4.146865308E-1
3.777092919E0,-7.313352544E-3,2.365444899E-1,-4.220169187E-1
3.779533127E0,1.223431807E-2,3.074047863E-1,-4.134648144E-1
3.781972606E0,3.544718027E-2,3.782650828E-1,-4.012475014E-1
3.784411252E0,5.499485135E-2,4.479036629E-1,-3.890302181E-1
3.786850679E0,7.332079113E-2,5.224292278E-1,-3.755911887E-1
3.789290940E0,9.042500705E-2,5.884026289E-1,-3.633739054E-1
3.791730367E0,9.653364867E-2,6.470456123E-1,-3.572652340E-1
3.794169013E0,1.050857529E-1,7.166842222E-1,-3.487131298E-1
3.796608440E0,1.111944020E-1,7.765489221E-1,-3.426044881E-1
3.799048700E0,1.124161333E-1,8.290833235E-1,-3.377175629E-1
3.801488127E0,1.148595884E-1,8.779524565E-1,-3.316089213E-1
3.803926773E0,1.197465137E-1,9.255999327E-1,-3.218351007E-1
3.806366252E0,1.246334240E-1,9.536997080E-1,-3.096177876E-1
3.808806461E0,1.295203567E-1,9.720256329E-1,-2.961787879E-1
3.811245888E0,1.344072521E-1,9.891298413E-1,-2.888484001E-1
3.813684586E0,1.429593712E-1,1.018451214E0,-2.839614749E-1
3.816124013E0,1.502897441E-1,1.045329332E0,-2.876266837E-1
3.818564221E0,1.600635946E-1,1.067320466E0,-2.925135791E-1
3.821003700E0,1.722808778E-1,1.080759406E0,-3.010656834E-1
3.823442346E0,1.832764447E-1,1.078315973E0,-3.108395338E-1
3.825881773E0,1.930502653E-1,1.064876914E0,-3.181698918E-1
3.828322033E0,2.064892948E-1,1.023338199E0,-3.193916380E-1
3.830761461E0,2.162631452E-1,9.598083496E-1,-3.120612502E-1
3.833200106E0,2.260369658E-1,8.852828741E-1,-2.900701165E-1
3.835639533E0,2.419194579E-1,7.899879813E-1,-2.595268786E-1
3.838079794E0,2.529150248E-1,6.922495961E-1,-2.240967453E-1
3.840519221E0,2.663540542E-1,5.822939873E-1,-1.825579405E-1
3.842957867E0,2.810148001E-1,4.772251546E-1,-1.300235689E-1
3.845397346E0,2.968972623E-1,3.636043370E-1,-8.115437627E-2
3.847837554E0,3.066711128E-1,2.414314151E-1,-3.595039248E-2
3.850276981E0,3.115580380E-1,1.278105676E-1,3.144950140E-3
3.852715679E0,3.201101422E-1,1.907664724E-2,3.124472871E-2
3.855155106E0,3.237753212E-1,-7.499651611E-2,5.812277645E-2
3.857595315E0,3.225535750E-1,-1.666262150E-1,7.278352976E-2
3.860034794E0,3.201101422E-1,-2.448168993E-1,8.377909660E-2
3.862473440E0,3.091145754E-1,-3.156772554E-1,9.110946953E-2
3.864912867E0,2.907886207E-1,-3.730985224E-1,9.233120084E-2
3.867353127E0,2.785713375E-1,-4.170807898E-1,9.843984991E-2
3.869792554E0,2.602453828E-1,-4.622847736E-1,1.008833051E-1
3.872231200E0,2.406977117E-1,-4.867193699E-1,9.966158122E-2
3.874670627E0,2.199283242E-1,-5.087104440E-1,9.721811861E-2
3.877110888E0,1.991589367E-1,-5.221494436E-1,9.233120084E-2
3.879550315E0,1.832764447E-1,-5.197060108E-1,8.744428307E-2
3.881988961E0,1.673939526E-1,-5.135973692E-1,8.133563399E-2
3.884428440E0,1.490680277E-1,-5.001583695E-1,7.156179845E-2
3.886868648E0,1.344072521E-1,-4.879410863E-1,6.545315683E-2
3.889308127E0,1.185247824E-1,-4.842759073E-1,5.812277645E-2
3.891746773E0,1.026422977E-1,-4.793889821E-1,5.567932129E-2
3.894186200E0,8.187289536E-2,-4.757238030E-1,5.812277645E-2
3.896626408E0,6.232522428E-2,-4.586195946E-1,6.178796291E-2
3.899065888E0,4.522101581E-2,-4.305198193E-1,6.545315683E-2
3.901504533E0,2.567334287E-2,-3.902027309E-1,7.400526106E-2
3.903943961E0,4.903941881E-3,-3.474422097E-1,8.377909660E-2
3.906384221E0,-1.586546004E-2,-2.924643755E-1,9.355293214E-2
3.908823648E0,-3.907831758E-2,-2.362647951E-1,1.008833051E-1
3.911262294E0,-6.106945127E-2,-1.715131402E-1,1.057702303E-1
3.913701773E0,-8.183884621E-2,-1.018745601E-1,1.131006032E-1
3.916141981E0,-1.026082486E-1,-3.101425990E-2,1.155440658E-1
3.918581408E0,-1.221559271E-1,2.518529445E-2,1.131006032E-1
3.921020106E0,-1.392601430E-1,7.161101699E-2,1.094354168E-1
3.923459533E0,-1.551426053E-1,1.094846278E-1,1.094354168E-1
3.925899742E0,-1.673599184E-1,1.241453886E-1,1.069919541E-1
3.928339221E0,-1.832423806E-1,1.192584634E-1,1.082136855E-1
3.930777867E0,-2.003466189E-1,1.070411652E-1,1.155440658E-1
3.933217294E0,-2.174508274E-1,7.771965861E-2,1.265396327E-1
3.935657554E0,-2.296681106E-1,6.061545014E-2,1.448655576E-1
3.938096981E0,-2.467723191E-1,4.351123795E-2,1.644132286E-1
3.940535627E0,-2.614330947E-1,2.396356501E-2,1.864043474E-1
3.942975054E0,-2.773155570E-1,1.663318835E-2,2.071737498E-1
3.945415315E0,-2.931980491E-1,8.081083186E-3,2.254996896E-1
3.947854742E0,-3.041936159E-1,4.415894393E-3,2.389387190E-1
3.950293388E0,-3.103022575E-1,4.415894393E-3,2.474908233E-1
3.952732867E0,-3.127457201E-1,1.296800096E-2,2.584863901E-1
3.955173075E0,-3.164108992E-1,1.541145984E-2,2.633733153E-1
3.957612502E0,-3.151891828E-1,2.274183556E-2,2.682602406E-1
3.960051148E0,-3.151891828E-1,2.640702389E-2,2.707036734E-1
3.962490627E0,-3.103022575E-1,3.373740241E-2,2.707036734E-1
3.964930836E0,-3.054153323E-1,4.839815199E-2,2.755905986E-1
3.967370315E0,-2.993066907E-1,6.305891275E-2,2.780340612E-1
3.969808961E0,-2.883111238E-1,7.894138992E-2,2.829209864E-1
3.972248388E0,-2.822024822E-1,7.161101699E-2,2.816992402E-1
3.974688648E0,-2.724286616E-1,7.161101699E-2,2.841427028E-1
3.977128075E0,-2.626548111E-1,5.695025995E-2,2.792558074E-1
3.979566721E0,-2.589896321E-1,4.961988330E-2,2.755905986E-1
3.982006148E0,-2.479940653E-1,3.740258887E-2,2.731471360E-1
3.984446408E0,-2.418854237E-1,2.029837668E-2,2.694819570E-1
3.986885836E0,-2.357767522E-1,7.507060654E-4,2.682602406E-1
3.989324481E0,-2.284463942E-1,-2.001869678E-2,2.633733153E-1
3.991763961E0,-2.235594690E-1,-4.078809544E-2,2.584863901E-1
3.994204169E0,-2.162290812E-1,-6.155749410E-2,2.511560023E-1
3.996643648E0,-2.113421559E-1,-9.576591849E-2,2.474908233E-1
3.999082294E0,-2.113421559E-1,-1.483002752E-1,2.401604503E-1
4.001521721E0,-2.137856185E-1,-2.118302137E-1,2.340518087E-1
4.003961981E0,-2.137856185E-1,-2.790253460E-1,2.279431522E-1
4.006401408E0,-2.150073647E-1,-3.376683593E-1,2.230562419E-1
4.008840054E0,-2.101204395E-1,-3.926461935E-1,2.169475853E-1
4.011279481E0,-2.052335143E-1,-4.427371025E-1,2.096172124E-1
4.013719742E0,-1.991248727E-1,-4.903845787E-1,1.998433769E-1
4.016159169E0,-1.893510520E-1,-5.307015777E-1,1.900695413E-1
4.018597815E0,-1.844641268E-1,-5.600230694E-1,1.815174371E-1
4.021037294E0,-1.722468138E-1,-5.905662775E-1,1.754087955E-1
4.023477502E0,-1.661381721E-1,-6.186661124E-1,1.668566763E-1
4.025916929E0,-1.600295305E-1,-6.528745294E-1,1.558611244E-1
4.028355575E0,-1.539208889E-1,-6.870829463E-1,1.387569010E-1
4.030795054E0,-1.478122473E-1,-7.102957964E-1,1.167657897E-1
4.033235263E0,-1.380383968E-1,-7.322869301E-1,9.110946953E-2
4.035674742E0,-1.355949342E-1,-7.359521389E-1,6.789661199E-2
4.038113388E0,-1.307080388E-1,-7.347303629E-1,4.712720960E-2
4.040552815E0,-1.270428300E-1,-7.164044380E-1,3.246645629E-2
4.042993075E0,-1.245993748E-1,-6.919698715E-1,2.147089131E-2
4.045432502E0,-1.331514716E-1,-6.724221706E-1,2.024916187E-2
4.047871148E0,-1.453687847E-1,-6.504310369E-1,3.002299741E-2
4.050310575E0,-1.624729931E-1,-6.406571865E-1,4.712720960E-2
4.052750836E0,-1.795772016E-1,-6.272181869E-1,5.690104514E-2
4.055190263E0,-1.991248727E-1,-6.015618443E-1,6.056623906E-2
4.057628908E0,-2.137856185E-1,-5.722403526E-1,5.812277645E-2
4.060068388E0,-2.223377228E-1,-5.380319357E-1,5.690104514E-2
4.062508596E0,-2.260029316E-1,-5.099321604E-1,4.957067221E-2
4.064948023E0,-2.272246480E-1,-4.781672657E-1,4.346202314E-2
4.067386721E0,-2.223377228E-1,-4.537326694E-1,3.124472871E-2
4.069826148E0,-2.162290812E-1,-4.268546104E-1,2.391435020E-2
4.072266408E0,-2.125639021E-1,-4.048634768E-1,1.291878521E-2
4.074705836E0,-2.027900517E-1,-3.755419850E-1,9.253596887E-3
4.077144481E0,-1.991248727E-1,-3.572160304E-1,3.144950140E-3
4.079583908E0,-1.979031563E-1,-3.376683593E-1,1.923220698E-3
4.082024169E0,-1.966814101E-1,-3.242293596E-1,-5.202381872E-4
4.084463596E0,-1.954596937E-1,-2.985730171E-1,-5.202381872E-4
4.086902242E0,-1.930162311E-1,-2.729167044E-1,1.923220698E-3
4.089341721E0,-1.930162311E-1,-2.399299741E-1,4.366679583E-3
4.091781929E0,-1.930162311E-1,-2.057215571E-1,9.253596887E-3
4.094221356E0,-1.954596937E-1,-1.751783192E-1,1.414051466E-2
4.096660002E0,-1.979031563E-1,-1.421916336E-1,1.780570298E-2
4.099099481E0,-2.015683353E-1,-1.189787686E-1,2.024916187E-2
4.101539690E0,-1.954596937E-1,-9.087899327E-2,2.269262075E-2
4.103979169E0,-1.930162311E-1,-8.354862034E-2,1.902743243E-2
4.106417815E0,-1.856858432E-1,-6.644441187E-2,1.780570298E-2
4.108857242E0,-1.734685600E-1,-5.667057633E-2,1.536224410E-2
4.111297502E0,-1.624729931E-1,-5.422712117E-2,9.253596887E-3
4.113736929E0,-1.478122473E-1,-4.078809544E-2,1.047532633E-2
4.116175575E0,-1.343732178E-1,-4.200982302E-2,1.169705577E-2
4.118615002E0,-1.197124645E-1,-4.567501321E-2,1.169705577E-2
4.121055263E0,-1.038299799E-1,-4.934020340E-2,1.291878521E-2
4.123494690E0,-9.039095789E-2,-6.277922541E-2,1.658397354E-2
4.125933336E0,-8.183884621E-2,-8.110515773E-2,1.658397354E-2
4.128372815E0,-6.839982420E-2,-9.698764980E-2,1.902743243E-2
4.130813023E0,-5.740425736E-2,-1.165353060E-1,1.902743243E-2
4.133252502E0,-4.396523535E-2,-1.348612607E-1,1.902743243E-2
4.135691148E0,-3.296966851E-2,-1.458568275E-1,2.024916187E-2
4.138130575E0,-2.441756427E-2,-1.519654691E-1,2.147089131E-2
4.140570783E0,-1.342199836E-2,-1.592958421E-1,1.902743243E-2
4.143010263E0,-3.648164216E-3,-1.556306481E-1,1.902743243E-2
4.145448908E0,3.682212438E-3,-1.544089317E-1,1.414051466E-2
4.147888336E0,1.101258863E-2,-1.519654691E-1,8.031867445E-3
4.150328596E0,1.834296621E-2,-1.434133649E-1,7.014912553E-4
4.152768023E0,2.322988398E-2,-1.397481710E-1,-6.628885400E-3
4.155206669E0,2.567334287E-2,-1.360829771E-1,-1.640272141E-2
4.157646096E0,2.933853120E-2,-1.324177980E-1,-2.373309806E-2
4.160086356E0,3.300371766E-2,-1.287526041E-1,-3.228520229E-2
4.162525783E0,3.056026064E-2,-1.385264397E-1,-4.328076541E-2
4.164964481E0,3.789063543E-2,-1.385264397E-1,-4.938941449E-2
4.167403908E0,4.033409804E-2,-1.507437378E-1,-5.794151872E-2
4.169844117E0,4.644274339E-2,-1.507437378E-1,-6.527189910E-2
4.172283596E0,5.132966116E-2,-1.568523794E-1,-7.015880942E-2
4.174722242E0,5.866003782E-2,-1.544089317E-1,-7.382400334E-2
4.177161669E0,6.721214205E-2,-1.483002752E-1,-7.748918980E-2
4.179601929E0,7.209905982E-2,-1.483002752E-1,-8.237610757E-2
4.182041356E0,8.065116405E-2,-1.446350962E-1,-8.848475665E-2
4.184480002E0,9.164673090E-2,-1.336395293E-1,-9.214994311E-2
4.186919429E0,9.531191736E-2,-1.287526041E-1,-9.948031604E-2
4.189359690E0,1.026422977E-1,-1.189787686E-1,-1.068106964E-1
4.191799117E0,1.075292155E-1,-1.092049330E-1,-1.141410768E-1
4.194237763E0,1.063074842E-1,-9.698764980E-2,-1.226931885E-1
4.196677242E0,1.124161333E-1,-8.843554556E-2,-1.300235689E-1
4.199117450E0,1.160813197E-1,-7.255305350E-2,-1.373539418E-1
4.201556929E0,1.185247824E-1,-6.888787448E-2,-1.483495086E-1
4.203995575E0,1.209682375E-1,-5.422712117E-2,-1.532364339E-1
4.206435002E0,1.258551478E-1,-4.445328563E-2,-1.593450755E-1
4.208875211E0,1.258551478E-1,-3.834463656E-2,-1.678971797E-1
4.211314690E0,1.307420731E-1,-2.368388325E-2,-1.740058362E-1
4.213753336E0,1.344072521E-1,-1.879696548E-2,-1.801144779E-1
4.216192763E0,1.392941773E-1,-5.357941147E-3,-1.813362092E-1
4.218633023E0,1.417376399E-1,7.507060654E-4,-1.837796718E-1
4.221072450E0,1.429593712E-1,1.296800096E-2,-1.813362092E-1
4.223511096E0,1.466245651E-1,1.907664724E-2,-1.776710153E-1
4.225950575E0,1.502897441E-1,2.885048278E-2,-1.727841049E-1
4.228390783E0,1.539549232E-1,3.740258887E-2,-1.691189110E-1
4.230830211E0,1.551766694E-1,4.717642441E-2,-1.666754484E-1
4.233268908E0,1.576201320E-1,6.550237536E-2,-1.654537320E-1
4.235708336E0,1.576201320E-1,8.749349415E-2,-1.642320007E-1
4.238148544E0,1.576201320E-1,1.021542549E-1,-1.654537320E-1
4.240588023E0,1.600635946E-1,1.339192241E-1,-1.605668068E-1
4.243026669E0,1.625070274E-1,1.583538055E-1,-1.581233442E-1
4.245466096E0,1.612853110E-1,1.888970435E-1,-1.520147026E-1
4.247906356E0,1.576201320E-1,2.133316398E-1,-1.471277773E-1
4.250345783E0,1.551766694E-1,2.389879525E-1,-1.410191357E-1
4.252784429E0,1.539549232E-1,2.670876980E-1,-1.361322105E-1
4.255223856E0,1.502897441E-1,2.890788317E-1,-1.300235689E-1
4.257664117E0,1.454028189E-1,3.086265028E-1,-1.263583750E-1
4.260103544E0,1.405159086E-1,3.208437860E-1,-1.226931885E-1
4.262542190E0,1.368507147E-1,3.330610991E-1,-1.141410768E-1
4.264981669E0,1.307420731E-1,3.428349197E-1,-1.031455100E-1
4.267421877E0,1.246334240E-1,3.391697407E-1,-9.092821181E-2
4.269861356E0,1.221899688E-1,3.355045617E-1,-7.626745850E-2
4.272300002E0,1.185247824E-1,3.257307112E-1,-5.916325003E-2
4.274739429E0,1.111944020E-1,3.074047863E-1,-4.450249672E-2
4.277179690E0,1.063074842E-1,2.939657569E-1,-2.739828639E-2
4.279619117E0,9.897711128E-2,2.731963396E-1,-9.072344750E-3
4.282057763E0,8.798154444E-2,2.548704147E-1,5.588409025E-3
4.284497190E0,7.942944020E-2,2.316575795E-1,1.902743243E-2
4.286937450E0,6.843387336E-2,2.206620127E-1,3.735337406E-2
4.289376877E0,5.866003782E-2,2.023360729E-1,5.323585868E-2
4.291815523E0,4.888620228E-2,1.962274313E-1,6.911834329E-2
4.294255002E0,4.766447097E-2,1.901187748E-1,8.255736530E-2
4.296695211E0,3.789063543E-2,1.852318645E-1,9.110946953E-2
4.299134690E0,3.544718027E-2,1.815666705E-1,1.008833051E-1
4.301573336E0,2.689507231E-2,1.766797602E-1,1.082136855E-1
4.304012763E0,1.712123677E-2,1.730145663E-1,1.155440658E-1
4.306453023E0,9.790859185E-3,1.693493724E-1,1.204309762E-1
4.308892450E0,1.702408190E-5,1.644624621E-1,1.240961701E-1
4.311331096E0,-1.097854134E-2,1.522451639E-1,1.253179014E-1
4.313770523E0,-2.075237781E-2,1.522451639E-1,1.314265281E-1
4.316210783E0,-3.296966851E-2,1.412495971E-1,1.314265281E-1
4.318650211E0,-4.885215312E-2,1.375844032E-1,1.326482594E-1
4.321088856E0,-6.595636159E-2,1.278105676E-1,1.338699907E-1
4.323528336E0,-8.306057751E-2,1.204801947E-1,1.314265281E-1
4.325968544E0,-9.527786821E-2,1.143715531E-1,1.314265281E-1
4.328408023E0,-1.099386290E-1,1.070411652E-1,1.265396327E-1
4.330846669E0,-1.258211136E-1,9.971079230E-2,1.167657897E-1
4.333286096E0,-1.355949342E-1,8.993695676E-2,1.033267677E-1
4.335726304E0,-1.441470385E-1,8.016312122E-2,9.110946953E-2
4.338165783E0,-1.502557099E-1,7.038928568E-2,8.377909660E-2
4.340604429E0,-1.551426053E-1,6.061545014E-2,7.400526106E-2
4.343043856E0,-1.624729931E-1,5.695025995E-2,6.056623906E-2
4.345484117E0,-1.685816348E-1,5.328506976E-2,4.712720960E-2
4.347923544E0,-1.746902764E-1,5.572853237E-2,3.368818387E-2
4.350362190E0,-1.820206642E-1,6.061545014E-2,1.780570298E-2
4.352801669E0,-1.893510520E-1,6.916755438E-2,3.144950140E-3
4.355241877E0,-2.003466189E-1,7.771965861E-2,-1.640272141E-2
4.357681304E0,-2.150073647E-1,8.871522546E-2,-3.350692987E-2
4.360120002E0,-2.284463942E-1,1.070411652E-1,-5.183286965E-2
4.362559429E0,-2.418854237E-1,1.204801947E-1,-7.260227203E-2
4.364999690E0,-2.565461695E-1,1.400278658E-1,-9.092821181E-2
4.367439117E0,-2.736503780E-1,1.583538055E-1,-1.092541516E-1
4.369877763E0,-2.944197655E-1,1.791232079E-1,-1.239149198E-1
4.372317190E0,-3.115240037E-1,1.888970435E-1,-1.373539418E-1
4.374757450E0,-3.261847496E-1,2.084447145E-1,-1.471277773E-1
4.377196877E0,-3.384020329E-1,2.279923856E-1,-1.544581652E-1
4.379635523E0,-3.457324207E-1,2.512052357E-1,-1.581233442E-1
4.382075002E0,-3.432889581E-1,2.756398022E-1,-1.617885381E-1
4.384515211E0,-3.359585702E-1,3.037395775E-1,-1.617885381E-1
4.386954690E0,-3.212978244E-1,3.355045617E-1,-1.605668068E-1
4.389393336E0,-3.041936159E-1,3.758216202E-1,-1.569016129E-1
4.391832763E0,-2.809807658E-1,4.075865746E-1,-1.544581652E-1
4.394272971E0,-2.541027069E-1,4.430167377E-1,-1.471277773E-1
4.396712450E0,-2.308898568E-1,4.698947966E-1,-1.373539418E-1
4.399151096E0,-2.101204395E-1,4.955511093E-1,-1.239149198E-1
4.401590523E0,-1.905727684E-1,5.199857354E-1,-1.104758829E-1
4.404030783E0,-1.759120226E-1,5.358682275E-1,-9.581512958E-2
4.406470211E0,-1.673599184E-1,5.541941524E-1,-8.115437627E-2
4.408908856E0,-1.575860679E-1,5.700766444E-1,-6.160670519E-2
4.411348336E0,-1.563643515E-1,5.822939873E-1,-4.572422802E-2
4.413788544E0,-1.588078141E-1,6.079502702E-1,-2.373309806E-2
4.416227971E0,-1.575860679E-1,6.213892698E-1,3.144950140E-3
4.418666669E0,-1.588078141E-1,6.348283291E-1,4.101856798E-2
4.421106096E0,-1.551426053E-1,6.470456123E-1,8.988774568E-2
4.423546304E0,-1.514774263E-1,6.482673287E-1,1.473090053E-1
4.425985783E0,-1.417036057E-1,6.507108212E-1,2.157258689E-1
4.428424429E0,-1.294862926E-1,6.409369707E-1,2.951382697E-1
4.430863856E0,-1.087168977E-1,6.360500455E-1,3.855462670E-1
4.433304117E0,-8.672576398E-2,6.201675534E-1,4.820628762E-1
4.435743544E0,-6.106945127E-2,6.018416286E-1,5.846881866E-1
4.438182190E0,-3.296966851E-2,5.774070621E-1,6.860917807E-1
4.440621669E0,-1.708718762E-2,5.419768691E-1,7.728345394E-1
4.443061877E0,-9.756811894E-3,5.114336610E-1,8.424731493E-1
4.445501304E0,-1.342199836E-2,4.882207215E-1,8.925640583E-1
4.447940002E0,-3.296966851E-2,4.735599756E-1,9.231072664E-1
4.450379429E0,-6.106945127E-2,4.564557672E-1,9.377680421E-1
4.452819638E0,-9.527786821E-2,4.527905881E-1,9.426549673E-1
4.455259117E0,-1.270428300E-1,4.540123045E-1,9.328811169E-1
4.457697763E0,-1.636947095E-1,4.466819167E-1,9.145551324E-1
4.460137190E0,-1.942379475E-1,4.515688419E-1,8.888988495E-1
4.462577450E0,-2.186725438E-1,4.576774836E-1,8.559121490E-1
4.465016877E0,-2.333333194E-1,4.625644088E-1,8.168168068E-1
4.467455523E0,-2.431071401E-1,4.723382592E-1,7.764997482E-1
4.469894950E0,-2.467723191E-1,4.894424677E-1,7.325174809E-1
4.472335211E0,-2.479940653E-1,5.138770938E-1,6.873134971E-1
4.474774638E0,-2.492157817E-1,5.370899439E-1,6.421095133E-1
4.477213283E0,-2.406636775E-1,5.810722113E-1,6.017923951E-1
4.479652763E0,-2.357767522E-1,6.213892698E-1,5.639188290E-1
4.482092971E0,-2.284463942E-1,6.702584624E-1,5.284886360E-1
4.484532450E0,-2.198942900E-1,7.179059386E-1,4.942801595E-1
4.486971096E0,-2.113421559E-1,7.545577884E-1,4.588500261E-1
4.489410523E0,-2.040117979E-1,7.948749065E-1,4.270850420E-1
4.491850783E0,-1.966814101E-1,8.241963983E-1,3.940983713E-1
4.494290211E0,-1.942379475E-1,8.510744572E-1,3.611116707E-1
4.496728856E0,-1.869075894E-1,8.681786656E-1,3.305684328E-1
4.499168283E0,-1.869075894E-1,8.730655909E-1,3.000251949E-1
4.501608544E0,-1.917944849E-1,8.779524565E-1,2.743688822E-1
4.504047971E0,-1.954596937E-1,8.767307401E-1,2.523777485E-1
4.506486669E0,-2.052335143E-1,8.620700240E-1,2.254996896E-1
4.508926096E0,-2.150073647E-1,8.400788903E-1,1.986216456E-1
4.511366304E0,-2.247811854E-1,8.046486974E-1,1.717436016E-1
4.513805783E0,-2.357767522E-1,7.679968476E-1,1.424220949E-1
4.516244429E0,-2.418854237E-1,7.105755210E-1,1.094354168E-1
4.518683856E0,-2.431071401E-1,6.507108212E-1,7.889217883E-2
4.521124117E0,-2.431071401E-1,5.761852860E-1,4.590548575E-2
4.523563544E0,-2.345550358E-1,4.992162883E-1,1.658397354E-2
4.526002190E0,-2.223377228E-1,4.185821414E-1,-1.395926252E-2
4.528441669E0,-2.003466189E-1,3.403914571E-1,-3.717211634E-2
4.530881877E0,-1.771337390E-1,2.597573400E-1,-6.282843649E-2
4.533321304E0,-1.465905011E-1,1.888970435E-1,-8.237610757E-2
4.535759950E0,-1.136038080E-1,1.229236573E-1,-1.019237787E-1
4.538199429E0,-7.695192844E-2,7.527621090E-2,-1.202497259E-1
4.540639638E0,-4.396523535E-2,3.984604776E-2,-1.385756731E-1
4.543079117E0,-6.091623101E-3,1.907664724E-2,-1.544581652E-1
4.545517763E0,3.178199008E-2,1.972435508E-3,-1.666754484E-1
4.547957190E0,6.965560466E-2,-1.692752820E-3,-1.764492840E-1
4.550397450E0,1.063074842E-1,-4.710233479E-4,-1.837796718E-1
4.552836877E0,1.417376399E-1,-1.513177622E-2,-1.886665821E-1
4.555275523E0,1.759460568E-1,-2.857080102E-2,-1.874448508E-1
4.557715002E0,2.028241158E-1,-5.056192726E-2,-1.874448508E-1
4.560155211E0,2.321456075E-1,-6.766614318E-2,-1.788927466E-1
4.562594638E0,2.578019500E-1,-9.820938110E-2,-1.727841049E-1
4.565033336E0,2.834582329E-1,-1.263091564E-1,-1.678971797E-1
4.567472763E0,3.103362918E-1,-1.446350962E-1,-1.569016129E-1
4.569912971E0,3.408795297E-1,-1.617393047E-1,-1.483495086E-1
4.572352450E0,3.689793050E-1,-1.605175734E-1,-1.434625983E-1
4.574791096E0,4.007442594E-1,-1.531872004E-1,-1.446843296E-1
4.577230523E0,4.373961687E-1,-1.421916336E-1,-1.532364339E-1
4.579670783E0,4.642741978E-1,-1.299743354E-1,-1.678971797E-1
4.582110211E0,4.984826446E-1,-1.104266644E-1,-1.801144779E-1
4.584548856E0,5.229172111E-1,-9.210072458E-2,-1.972186863E-1
4.586988283E0,5.461300611E-1,-6.766614318E-2,-2.118794471E-1
4.589428544E0,5.681211948E-1,-5.178365856E-2,-2.277619243E-1
4.591867971E0,5.827819705E-1,-3.345771879E-2,-2.436444163E-1
4.594306669E0,5.962209702E-1,-2.001869678E-2,-2.595268786E-1
4.596746096E0,6.121034622E-1,-7.801400032E-3,-2.717441916E-1
4.599186304E0,6.230990291E-1,7.507060654E-4,-2.876266837E-1
4.601625783E0,6.389815211E-1,5.637623835E-3,-3.022874296E-1
4.604064429E0,6.487553716E-1,8.081083186E-3,-3.181698918E-1
4.606503856E0,6.548640132E-1,3.194164950E-3,-3.267220259E-1
4.608944117E0,6.597509384E-1,-1.146658789E-2,-3.279437423E-1
4.611383544E0,6.609726548E-1,-2.124042436E-2,-3.242785633E-1
4.613822190E0,6.573074460E-1,-4.323155433E-2,-3.157264590E-1
4.616261669E0,6.573074460E-1,-6.400094926E-2,-3.047308922E-1
4.618701877E0,6.524205208E-1,-9.698764980E-2,-2.925135791E-1
4.621141304E0,6.511988044E-1,-1.214222312E-1,-2.815180123E-1
4.623580002E0,6.475335956E-1,-1.421916336E-1,-2.705224454E-1
4.626019429E0,6.450901628E-1,-1.727348715E-1,-2.607486248E-1
4.628459690E0,6.463118792E-1,-1.947259903E-1,-2.558616996E-1
4.630899117E0,6.524205208E-1,-2.264909595E-1,-2.534182370E-1
4.633337763E0,6.560857296E-1,-2.545907795E-1,-2.509747744E-1
4.635777190E0,6.646378636E-1,-2.778036296E-1,-2.509747744E-1
4.638217450E0,6.646378636E-1,-3.107903302E-1,-2.619703412E-1
4.640656877E0,6.670812964E-1,-3.462204933E-1,-2.717441916E-1
4.643095523E0,6.634160876E-1,-3.889810145E-1,-2.851832211E-1
4.645535002E0,6.560857296E-1,-4.317415357E-1,-2.912918627E-1
4.647975211E0,6.438684464E-1,-4.769455194E-1,-2.949570417E-1
4.650414638E0,6.328728795E-1,-5.209277272E-1,-2.925135791E-1
4.652853336E0,6.218773127E-1,-5.661317110E-1,-2.827397585E-1
4.655292763E0,6.059948206E-1,-6.186661124E-1,-2.741876543E-1
4.657732971E0,5.901123285E-1,-6.724221706E-1,-2.631920874E-1
4.660172450E0,5.754516125E-1,-7.225130796E-1,-2.558616996E-1
4.662611096E0,5.644560456E-1,-7.689387798E-1,-2.497530580E-1
4.665050523E0,5.546821952E-1,-8.092558980E-1,-2.460878491E-1
4.667490783E0,5.412431359E-1,-8.385773897E-1,-2.424226850E-1
4.669930211E0,5.351344943E-1,-8.507946730E-1,-2.350922972E-1
4.672368856E0,5.302475691E-1,-8.617902398E-1,-2.289836556E-1
4.674808336E0,5.192520618E-1,-8.678988814E-1,-2.265401930E-1
4.677248544E0,5.058130026E-1,-8.837813735E-1,-2.240967453E-1
4.679688023E0,4.899305105E-1,-8.923335075E-1,-2.167663574E-1
4.682126669E0,4.752697647E-1,-9.131028652E-1,-2.057707906E-1
4.684566096E0,4.630524814E-1,-9.399809241E-1,-1.935535073E-1
4.687006356E0,4.581655562E-1,-9.558634162E-1,-1.752275527E-1
4.689445783E0,4.557220936E-1,-9.680806994E-1,-1.544581652E-1
4.691884429E0,4.569438398E-1,-9.717459083E-1,-1.385756731E-1
4.694323856E0,4.593873024E-1,-9.717459083E-1,-1.288018376E-1
4.696764117E0,4.691611230E-1,-9.497547746E-1,-1.178062633E-1
4.699203544E0,4.801566899E-1,-9.216549993E-1,-1.019237787E-1
4.701642190E0,4.838218689E-1,-8.923335075E-1,-8.481957018E-2
4.704081669E0,4.874870777E-1,-8.471294641E-1,-6.527189910E-2
4.706521877E0,4.874870777E-1,-8.068124056E-1,-4.694595188E-2
4.708961356E0,4.813784063E-1,-7.579432130E-1,-2.984174527E-2
4.711400002E0,4.728263021E-1,-7.005219460E-1,-1.762445085E-2
4.713839429E0,4.642741978E-1,-6.418789625E-1,-9.072344750E-3
4.716279690E0,4.581655562E-1,-5.832359195E-1,-9.072344750E-3
4.718719117E0,4.545003772E-1,-5.160408020E-1,-9.072344750E-3
4.721157763E0,4.520569146E-1,-4.573978484E-1,-1.395926252E-2
4.723597242E0,4.483917356E-1,-4.024200439E-1,-2.128963917E-2
4.726037450E0,4.471699893E-1,-3.547725976E-1,-2.862001397E-2
4.728476877E0,4.422830641E-1,-3.156772554E-1,-3.228520229E-2
4.730915575E0,4.373961687E-1,-2.704732418E-1,-3.350692987E-2
4.733355002E0,4.288440645E-1,-2.228257805E-1,-3.228520229E-2
4.735795211E0,4.178484976E-1,-1.727348715E-1,-2.862001397E-2
4.738234690E0,4.056311846E-1,-1.165353060E-1,-2.373309806E-2
4.740673336E0,3.897487223E-1,-7.621824741E-2,-1.884618029E-2
4.743112763E0,3.665358424E-1,-2.734906971E-2,-2.963697072E-3
4.745553023E0,3.445447087E-1,1.541145984E-2,1.536224410E-2
4.747992450E0,3.176666796E-1,5.572853237E-2,3.490991518E-2
4.750431096E0,2.968972623E-1,9.238041937E-2,5.445758998E-2
4.752870575E0,2.700192332E-1,1.143715531E-1,6.056623906E-2
4.755310783E0,2.455846369E-1,1.412495971E-1,6.300969422E-2
4.757750211E0,2.260369658E-1,1.669059098E-1,6.178796291E-2
4.760188908E0,2.028241158E-1,1.950057000E-1,5.812277645E-2
4.762628336E0,1.857199073E-1,2.231054753E-1,5.812277645E-2
4.765068596E0,1.698374152E-1,2.463183254E-1,5.567932129E-2
4.767508023E0,1.490680277E-1,2.670876980E-1,5.445758998E-2
4.769946669E0,1.344072521E-1,2.939657569E-1,5.201412737E-2
4.772386096E0,1.197465137E-1,3.098482192E-1,4.346202314E-2
4.774826356E0,1.087509468E-1,3.318393528E-1,3.735337406E-2
4.777265783E0,9.653364867E-2,3.379480243E-1,3.124472871E-2
4.779704429E0,8.187289536E-2,3.440566659E-1,3.002299741E-2
4.782143908E0,7.209905982E-2,3.428349197E-1,3.246645629E-2
4.784584117E0,5.866003782E-2,3.391697407E-1,3.735337406E-2
4.787023544E0,4.766447097E-2,3.367262781E-1,4.101856798E-2
4.789462242E0,3.544718027E-2,3.379480243E-1,4.346202314E-2
4.791901669E0,2.445161343E-2,3.440566659E-1,4.224029183E-2
4.794341877E0,1.467777696E-2,3.477218449E-1,3.979683667E-2
4.796781356E0,4.903941881E-3,3.623825908E-1,4.101856798E-2
4.799220002E0,1.702408190E-5,3.745999038E-1,4.224029183E-2
4.801659429E0,-7.313352544E-3,3.843737245E-1,4.224029183E-2
4.804099690E0,-1.342199836E-2,3.965910077E-1,3.979683667E-2
4.806539117E0,-1.830891520E-2,4.063648582E-1,3.368818387E-2
4.808977763E0,-2.563929558E-2,4.246908128E-1,2.269262075E-2
4.811417242E0,-3.052621335E-2,4.454602003E-1,9.253596887E-3
4.813857450E0,-3.296966851E-2,4.723382592E-1,-2.963697072E-3
4.816296929E0,-3.419139981E-2,5.053249598E-1,-1.640272141E-2
4.818735575E0,-3.419139981E-2,5.236509442E-1,-2.739828639E-2
4.821175002E0,-3.785658628E-2,5.358682275E-1,-3.472866118E-2
4.823615263E0,-3.907831758E-2,5.431985855E-1,-4.205903411E-2
4.826054690E0,-3.541313112E-2,5.419768691E-1,-4.816768318E-2
4.828493336E0,-3.419139981E-2,5.236509442E-1,-5.549806356E-2
4.830932763E0,-3.052621335E-2,5.065467358E-1,-6.405016780E-2
4.833373023E0,-2.808275074E-2,4.772251546E-1,-7.138054073E-2
4.835812450E0,-2.686102316E-2,4.515688419E-1,-7.382400334E-2
4.838251096E0,-2.686102316E-2,4.234690666E-1,-7.748918980E-2
4.840690575E0,-1.830891520E-2,3.978127539E-1,-7.626745850E-2
4.843130783E0,-1.586546004E-2,3.697129786E-1,-7.748918980E-2
4.845570263E0,-1.342199836E-2,3.379480243E-1,-7.871092111E-2
4.848008908E0,-8.535082452E-3,3.074047863E-1,-7.871092111E-2
4.850448336E0,-3.648164216E-3,2.731963396E-1,-7.626745850E-2
4.852888596E0,-2.426434774E-3,2.414314151E-1,-7.382400334E-2
4.855328023E0,7.347400766E-3,2.145533711E-1,-6.893708557E-2
4.857766669E0,1.345604751E-2,1.901187748E-1,-6.527189910E-2
4.860206148E0,1.712123677E-2,1.669059098E-1,-6.527189910E-2
4.862646356E0,2.445161343E-2,1.412495971E-1,-7.138054073E-2
4.865085783E0,3.300371766E-2,1.168150008E-1,-7.382400334E-2
4.867524481E0,4.155582562E-2,9.115868807E-2,-7.748918980E-2
4.869963908E0,5.255138874E-2,6.183717772E-2,-8.237610757E-2
4.872404169E0,6.843387336E-2,3.495912999E-2,-8.726302534E-2
4.874843596E0,8.553808182E-2,4.415894393E-3,-8.970648050E-2
4.877282242E0,1.050857529E-1,-2.124042436E-2,-9.214994311E-2
4.879721669E0,1.270768940E-1,-5.300538987E-2,-9.825859219E-2
4.882161929E0,1.515114605E-1,-8.232688904E-2,-1.007020473E-1
4.884601356E0,1.735025942E-1,-1.140918583E-1,-1.043672413E-1
4.887040002E0,1.991589367E-1,-1.519654691E-1,-1.068106964E-1
4.889479481E0,2.199283242E-1,-1.849521697E-1,-1.068106964E-1
4.891919690E0,2.480280995E-1,-2.216040492E-1,-1.080324277E-1
4.894359169E0,2.724626958E-1,-2.521473169E-1,-1.068106964E-1
4.896797815E0,2.956755459E-1,-2.765819132E-1,-1.092541516E-1
4.899237242E0,3.225535750E-1,-2.973513007E-1,-1.080324277E-1
4.901677502E0,3.469881713E-1,-3.144555092E-1,-1.055889651E-1
4.904116929E0,3.726444840E-1,-3.376683593E-1,-1.019237787E-1
4.906555575E0,3.995225430E-1,-3.401118219E-1,-9.459340572E-2
4.908995002E0,4.251788557E-1,-3.449987471E-1,-8.848475665E-2
4.911435263E0,4.508351684E-1,-3.559943140E-1,-8.970648050E-2
4.913874690E0,4.777132273E-1,-3.572160304E-1,-9.214994311E-2
4.916313388E0,5.033695698E-1,-3.572160304E-1,-9.459340572E-2
4.918752815E0,5.241389275E-1,-3.511073887E-1,-9.825859219E-2
4.921193023E0,5.424649119E-1,-3.364466429E-1,-9.825859219E-2
4.923632502E0,5.534604788E-1,-3.144555092E-1,-9.581512958E-2
4.926071148E0,5.693429112E-1,-2.814688087E-1,-9.092821181E-2
4.928510575E0,5.778950453E-1,-2.497038245E-1,-8.970648050E-2
4.930950836E0,5.852254033E-1,-2.325996161E-1,-9.092821181E-2
4.933390263E0,5.888906121E-1,-2.130519450E-1,-9.092821181E-2
