"Time (s)","Acceleration x (m/s^2)","Acceleration y (m/s^2)","Acceleration z (m/s^2)"
1.723913800E-2,-1.831705689E0,-9.571290575E-3,9.537193298E0
1.951739000E-2,-1.613958836E0,-9.553344250E-1,1.056132126E1
2.176020500E-2,-5.790630579E-1,-1.208973646E0,1.133420277E1
2.399378600E-2,5.820540786E-1,-1.216152072E0,1.113021469E1
2.622828400E-2,1.393819213E0,-6.490531564E-1,1.002114105E1
2.846632100E-2,1.591825247E0,-3.014956415E-1,8.711071014E0
3.070631100E-2,1.478764415E0,-3.050848842E-1,7.813164234E0
3.294221200E-2,1.603789330E0,4.007977843E-1,7.832306862E0
3.517841900E-2,1.254437327E0,8.895317912E-1,8.700901031E0
3.741444200E-2,4.815555513E-1,8.733802289E-2,9.872786522E0
3.965174600E-2,2.243271172E-1,-4.079762697E-1,1.120199966E1
4.188862300E-2,-2.452643216E-2,-5.754738450E-1,1.206281757E1
4.412544000E-2,-4.109672904E-1,-1.262213945E0,1.181755257E1
4.636176800E-2,-5.114658475E-1,-9.936196208E-1,1.103390312E1
4.859937800E-2,-6.137589812E-1,8.315058798E-2,1.020179939E1
5.083521700E-2,-1.016949654E0,2.225325108E-1,9.348757744E0
5.307496300E-2,-1.462014675E0,-4.486542568E-2,8.763712883E0
5.530836200E-2,-1.503889084E0,-1.196411327E-1,8.529814720E0
5.754597200E-2,-1.146760225E0,-2.309073806E-1,8.566305161E0
5.978278800E-2,-5.353940725E-1,-3.266202807E-1,8.657830238E0
6.201911600E-2,-2.835494876E-1,-7.465606928E-1,8.732605934E0
6.425471200E-2,-3.326023519E-1,-1.195214868E0,8.680562019E0
6.649238300E-2,-1.567298770E-1,-6.903293133E-1,8.523832321E0
6.872920000E-2,1.668993831E-1,4.725824669E-2,8.349156380E0
7.096821400E-2,3.864408433E-1,-1.322034448E-1,8.127222061E0
7.321571100E-2,5.964110494E-1,-5.467599630E-1,8.130212784E0
7.545252800E-2,7.722834945E-1,-9.110672474E-1,8.780462265E0
7.769019800E-2,7.106683254E-1,-1.226919770E0,9.963115692E0
7.992298600E-2,6.849454641E-1,-1.667797327E0,1.119422245E1
8.215986400E-2,7.776673436E-1,-2.409572363E0,1.204487133E1
8.439423900E-2,1.164706469E0,-2.454437733E0,1.214417267E1
8.661848200E-2,1.613360643E0,-1.314257860E0,1.136411285E1
8.885462700E-2,1.261615753E0,-2.500499785E-1,9.971489906E0
9.109412900E-2,3.822534084E-1,7.657032460E-2,8.437092781E0
9.334608200E-2,-1.304088384E-1,5.575276613E-1,7.525427341E0
9.558375300E-2,-4.169493318E-1,5.718846321E-1,7.427321434E0
9.781934900E-2,-4.851447940E-1,-1.423729509E-1,8.071588516E0
1.000533570E-1,-2.458625287E-1,-6.987041831E-1,9.515059471E0
1.022901740E-1,-3.553341627E-1,-1.647458434E0,1.129890823E1
1.045262580E-1,-1.129412293E0,-2.685943365E0,1.281476212E1
1.067628910E-1,-1.731207132E0,-2.946761131E0,1.331007576E1
1.089997080E-1,-1.863410592E0,-2.102692842E0,1.221057415E1
1.112365240E-1,-1.741376638E0,-9.906286001E-1,1.029332447E1
1.134713260E-1,-1.322632670E0,-5.712863803E-1,8.350951195E0
1.156956910E-1,-6.939185858E-1,-2.584248483E-1,7.016354084E0
1.179319580E-1,-1.537388563E-1,4.193421602E-1,6.538387775E0
1.201688360E-1,-4.845465720E-2,5.216353536E-1,6.782455921E0
1.224086430E-1,-3.296113312E-1,-2.003988922E-1,7.715656757E0
1.246473520E-1,-3.912265003E-1,-9.152546525E-1,9.313464165E0
1.268957640E-1,2.871387303E-1,-7.381857634E-1,1.107936668E1
1.291325200E-1,1.023529887E0,-5.491527915E-1,1.222493076E1
1.313702520E-1,1.085743308E0,-1.243071318E0,1.217468166E1
1.336026740E-1,1.275972724E0,-1.146162033E0,1.131745243E1
1.358397340E-1,1.646261930E0,-2.907279432E-1,1.030887794E1
1.380767950E-1,1.265803218E0,-1.902294010E-1,9.499505997E0
1.403128790E-1,5.162515044E-1,-5.832505226E-1,9.068798065E0
1.425492680E-1,1.674975902E-1,-1.085743308E0,9.242876053E0
1.447860240E-1,-1.316052489E-2,-1.574477315E0,9.971489906E0
1.470228400E-1,-1.716850251E-1,-1.663609982E0,1.109073257E1
1.492605110E-1,-5.491527915E-1,-1.399801254E0,1.206939697E1
1.514962280E-1,-1.207179070E0,-9.661021233E-1,1.242473125E1
1.537331060E-1,-1.545165181E0,-3.804588020E-1,1.203948689E1
1.559701670E-1,-1.304686546E0,1.423729509E-1,1.107757282E1
1.582033200E-1,-6.113662124E-1,3.104687333E-1,9.705288887E0
1.604315920E-1,5.024927482E-2,2.877369225E-1,8.414361000E0
1.626803110E-1,2.309073806E-1,8.793623000E-2,7.615158081E0
1.649162110E-1,-1.082752272E-1,-2.889333367E-1,7.421937466E0
1.671568120E-1,-6.388836503E-1,-5.748756528E-1,7.899305820E0
1.693890510E-1,-8.338986635E-1,-9.260223508E-1,8.947361946E0
1.716264160E-1,-6.197410822E-1,-1.021137118E0,1.017488003E1
1.738634160E-1,-2.991028428E-1,-5.425725579E-1,1.105902767E1
1.760995000E-1,-1.423729509E-1,-3.535395563E-1,1.101236820E1
1.783358890E-1,-2.811566554E-2,-8.105686903E-1,1.025145054E1
1.805727670E-1,4.319044948E-1,-1.244267821E0,9.431310654E0
1.828099490E-1,1.275972724E0,-1.436291814E0,8.962317467E0
1.850470710E-1,1.581655741E0,-1.484148264E0,8.989236832E0
1.872825440E-1,8.165507317E-1,-1.517049551E0,9.363713264E0
1.895194220E-1,-1.794616925E-3,-1.540977836E0,9.852447510E0
1.917570320E-1,-3.074777126E-1,-1.490728498E0,1.037886810E1
1.939928110E-1,-3.026920557E-1,-9.332008362E-1,1.079761219E1
1.962292000E-1,-4.127618968E-1,-2.667997181E-1,1.079043388E1
1.984656500E-1,-7.262216806E-1,-4.313062727E-1,1.017248726E1
2.006997800E-1,-9.864411354E-1,-9.212366939E-1,9.455837250E0
2.029284180E-1,-1.093519926E0,-1.266999602E0,9.026325226E0
2.051759770E-1,-1.086939692E0,-1.099501967E0,9.092725754E0
2.074130980E-1,-1.159322619E0,-9.810572863E-1,9.435498238E0
2.096533330E-1,-1.403390527E0,-1.074377418E0,9.781260490E0
2.118861210E-1,-1.727617979E0,-5.629115105E-1,9.906285286E0
2.141224490E-1,-1.714457393E0,1.363908947E-1,9.552147865E0
2.163589610E-1,-9.888339639E-1,1.298106313E-1,8.657830238E0
2.185960820E-1,1.609173268E-1,2.572284266E-2,7.838887215E0
2.208336920E-1,7.447660565E-1,1.758724600E-1,7.615158081E0
2.230692270E-1,5.018945336E-1,-1.142572835E-1,8.070990562E0
2.253061040E-1,2.213360928E-2,-1.236491084E0,9.160323143E0
2.275433480E-1,4.139583111E-1,-2.224726915E0,1.055832958E1
2.297791870E-1,1.626521230E0,-2.507678032E0,1.179541969E1
2.320158820E-1,2.042274237E0,-2.578864574E0,1.237627697E1
2.342525760E-1,1.344766378E0,-2.500499725E0,1.224586773E1
2.364895140E-1,6.622136831E-1,-1.759921074E0,1.149452209E1
2.387272470E-1,5.132604837E-1,-6.430711150E-1,1.052303600E1
2.409624760E-1,4.145565331E-1,7.776673418E-3,9.696315765E0
2.431994140E-1,4.749752879E-1,-1.471585929E-1,9.000602722E0
2.454365970E-1,8.350951076E-1,-2.183450609E-1,8.761320114E0
2.476695070E-1,6.311069727E-1,-1.890329868E-1,9.217152596E0
2.498971680E-1,-5.545366406E-1,-8.877372146E-1,1.004626560E1
2.521456430E-1,-1.718644857E0,-1.395613790E0,1.094716358E1
2.543827640E-1,-1.880758643E0,-1.258026481E0,1.166560841E1
2.566228160E-1,-1.601396561E0,-1.204786181E0,1.159681511E1
2.588539560E-1,-1.283749342E0,-9.469595551E-1,1.067378330E1
2.610929690E-1,-1.098305583E0,-3.457628787E-1,9.501898766E0
2.633299690E-1,-1.222134113E0,-2.386840582E-1,8.422736168E0
2.655662970E-1,-1.153938770E0,-5.796613097E-1,7.637291908E0
2.678023200E-1,-5.575276613E-1,-8.985049129E-1,7.371089935E0
2.700387090E-1,2.392822653E-1,-1.342373490E0,7.593622684E0
2.722760750E-1,6.807580590E-1,-1.586441398E0,8.266005516E0
2.745135620E-1,5.120640397E-1,-1.708475351E0,9.346963882E0
2.767459840E-1,2.033899277E-1,-2.221137524E0,1.047996521E1
2.789740730E-1,4.683950245E-1,-1.858026743E0,1.161176968E1
2.812232790E-1,5.647061467E-1,-7.292127013E-1,1.235474110E1
2.834561890E-1,3.266202807E-1,-4.899304509E-1,1.203290653E1
2.856867190E-1,4.630111754E-1,-6.436693072E-1,1.083709335E1
2.879320200E-1,8.841479421E-1,-7.393822074E-1,9.515657425E0
2.901693850E-1,1.141376376E0,-6.340979934E-1,8.654839516E0
2.924098640E-1,1.174277663E0,-4.755735099E-1,8.473583221E0
2.946423470E-1,5.653043389E-1,-5.551348329E-1,8.973683357E0
2.968795900E-1,-4.229314029E-1,-8.506484628E-1,9.851848602E0
2.991165900E-1,-1.039083242E0,-5.300102234E-1,1.079940701E1
3.013525520E-1,-1.180858016E0,-4.677968323E-1,1.123669529E1
3.035892460E-1,-8.638089895E-1,-9.068797827E-1,1.097827053E1
3.058256350E-1,-2.350948304E-1,-1.133001566E0,1.038365364E1
3.080635500E-1,-1.076770201E-2,-1.176670551E0,9.808777809E0
3.103026250E-1,-3.463610709E-1,-1.121635556E0,9.300303459E0
3.125357790E-1,-6.299105883E-1,-1.502094388E0,8.759525299E0
3.147725350E-1,-4.689932466E-1,-1.497906923E0,8.412566185E0
3.170090450E-1,5.982056609E-4,-1.198804140E0,8.321041107E0
3.192457400E-1,2.811566554E-2,-1.156929731E0,8.554939270E0
3.214823730E-1,-3.188436031E-1,-6.191428304E-1,9.160921097E0
3.237189460E-1,-7.238288522E-1,-8.075776696E-2,9.900303841E0
3.259514900E-1,-1.272383451E0,-6.394818425E-1,1.040159988E1
3.281754890E-1,-1.133001566E0,-2.172683001E0,1.058704376E1
3.304290900E-1,-2.093719877E-2,-2.721237659E0,1.067916775E1
3.326659060E-1,1.399203062E0,-1.938784599E0,1.066720295E1
3.349074830E-1,1.703091502E0,-1.621735573E0,1.040698433E1
3.371389900E-1,9.984052777E-1,-1.513460279E0,9.994820595E0
3.393754400E-1,5.347958803E-1,-9.643075466E-1,9.651450157E0
3.416121950E-1,3.906283081E-1,-1.573280841E-1,9.391230583E0
3.438490730E-1,2.961117923E-1,-2.261217386E-1,9.094520569E0
3.460868660E-1,2.542374134E-1,-1.286142230E0,8.828917503E0
3.483221560E-1,9.511470050E-2,-1.529013634E0,9.114261627E0
3.505592780E-1,-4.731806815E-1,-1.667199135E0,9.838688850E0
3.527962160E-1,-1.253240824E0,-2.228316069E0,1.050927734E1
3.550321780E-1,-1.512263894E0,-2.312663078E0,1.098903847E1
3.572689340E-1,-1.292124271E0,-2.405983210E0,1.089093208E1
3.595052620E-1,-9.828519225E-1,-2.221137524E0,1.022572803E1
3.617423830E-1,-6.849454641E-1,-1.350748420E0,9.302098274E0
3.639798710E-1,-3.990031779E-1,-9.822536707E-1,8.374280930E0
3.662155280E-1,-6.281159073E-2,-5.353940725E-1,7.828119278E0
3.684526490E-1,2.751746178E-1,3.200400174E-1,7.901100159E0
3.706898320E-1,1.381855011E-1,7.597211748E-2,8.377271652E0
3.729255500E-1,-1.668993831E-1,-8.075776696E-1,9.029315948E0
3.751625490E-1,6.939185411E-2,-1.297508121E0,9.757332802E0
3.773988170E-1,3.607180119E-1,-1.725225091E0,1.030887794E1
3.796359380E-1,2.614158690E-1,-2.136192322E0,1.057089233E1
3.818731210E-1,7.597211748E-2,-1.966900229E0,1.072163963E1
3.841087770E-1,-6.460621208E-2,-1.490728498E0,1.060499001E1
3.863458380E-1,4.247260094E-2,-1.227517962E0,1.027178955E1
3.885829600E-1,6.460621208E-2,-8.105686903E-1,9.994820595E0
3.908189820E-1,1.615155302E-2,-6.795616150E-1,9.769894600E0
3.930553110E-1,9.451649338E-2,-1.225723386E0,9.719047546E0
3.952918830E-1,-2.512463741E-2,-1.633101463E0,1.020957565E1
3.975289430E-1,-1.908276081E-1,-1.347757339E0,1.104706383E1
3.997664920E-1,-5.898307562E-1,-1.095912814E0,1.170568848E1
4.020019050E-1,-1.016949654E0,-1.548156261E0,1.158365440E1
4.042392090E-1,-7.429714203E-1,-2.189432621E0,1.086700439E1
4.064762090E-1,5.144568533E-2,-1.671984792E0,1.012463093E1
4.087121710E-1,4.893322289E-1,-5.706881881E-1,9.464211464E0
4.109489260E-1,2.398804724E-1,-2.817548811E-1,8.851051331E0
4.131854380E-1,-2.243271172E-1,-7.274180651E-1,8.556734085E0
4.154223150E-1,-4.193421602E-1,-7.884350419E-1,8.840881348E0
4.176597420E-1,-3.589234129E-2,-4.055834413E-1,9.544969559E0
4.198951540E-1,4.642075896E-1,-3.343969584E-1,1.006899738E1
4.221325200E-1,6.502495408E-1,-7.196413875E-1,1.005224800E1
4.243695810E-1,5.982056856E-1,-1.223928809E0,9.675976753E0
4.266035280E-1,2.817548811E-1,-1.347159147E0,9.434899330E0
4.288333870E-1,-1.734796464E-1,-1.373480201E0,9.449854851E0
4.310785040E-1,-5.479564071E-1,-1.618146300E0,9.718449593E0
4.333155640E-1,-7.094719410E-1,-1.847857237E0,1.032323551E1
4.355552490E-1,-6.143572330E-1,-1.828714728E0,1.101535892E1
4.377884650E-1,-5.814558864E-1,-1.659422517E0,1.145922756E1
4.400255860E-1,-5.730810165E-1,-1.859223247E0,1.121635628E1
4.422628300E-1,-1.256231871E-2,-1.997408748E0,1.032024384E1
4.444987310E-1,8.171489239E-1,-1.545165181E0,9.225527763E0
4.467323730E-1,1.007976532E0,-1.022931695E0,8.468199730E0
4.489600960E-1,6.669993401E-1,-9.541380405E-1,8.083553314E0
4.512043580E-1,3.224328458E-1,-1.231107235E0,8.176275253E0
4.534281740E-1,-2.512463741E-2,-1.306481123E0,8.935996056E0
4.556849500E-1,-6.897311211E-1,-1.182652593E0,1.020778179E1
4.579188360E-1,-1.442273855E0,-1.229910851E0,1.141196918E1
4.601604740E-1,-1.475175142E0,-1.537986755E0,1.195573807E1
4.623919800E-1,-9.774680734E-1,-1.655235052E0,1.179841042E1
4.646286140E-1,-4.067798555E-1,-1.306481123E0,1.114995575E1
4.668651860E-1,-5.024927482E-2,-1.067797065E0,1.011805058E1
4.691023070E-1,4.378865361E-1,-1.418943882E0,9.002396584E0
4.713399780E-1,8.338986635E-1,-1.856830359E0,8.353941917E0
4.735750860E-1,1.076770186E0,-2.013560295E0,8.308478355E0
4.758122070E-1,1.166501045E0,-2.099103689E0,8.867202759E0
4.780493900E-1,1.147956610E0,-2.251047850E0,9.778269768E0
4.802853520E-1,1.123430252E0,-1.819741607E0,1.062592697E1
4.825219240E-1,6.711867452E-1,-7.435696125E-1,1.098245811E1
4.847584360E-1,-2.500499785E-1,-5.802594870E-2,1.056730270E1
4.869954960E-1,-1.055234790E0,-3.086741269E-1,9.602396965E0
4.892328620E-1,-8.153542876E-1,-4.510470629E-1,8.660223007E0
4.914647350E-1,-2.165504545E-1,-6.502495408E-1,8.337192535E0
4.936898320E-1,-2.291127741E-1,-1.245464206E0,8.810373306E0
4.959425790E-1,-7.357929349E-1,-1.798804402E0,1.009412193E1
4.981786630E-1,-1.489532113E0,-2.359323025E0,1.169013500E1
5.004193850E-1,-2.097309113E0,-2.548356056E0,1.310130215E1
5.026517460E-1,-2.056631088E0,-2.201396942E0,1.340160179E1
5.048886230E-1,-1.579861164E0,-1.686341763E0,1.224586773E1
5.071262940E-1,-6.669993401E-1,-1.260419369E0,1.027478027E1
5.093617070E-1,-2.991028316E-2,-8.644071817E-1,8.534600258E0
5.115988280E-1,1.734796464E-1,-3.122633696E-1,7.472187042E0
5.138358280E-1,8.003991842E-1,5.802594870E-2,7.048058987E0
5.160719730E-1,1.287338614E0,5.126622319E-1,7.457231998E0
5.183085450E-1,1.016351461E0,3.146561682E-1,8.628518105E0
5.205421880E-1,2.733799815E-1,-9.481559992E-1,1.004447079E1
5.227704590E-1,5.443671346E-2,-1.726421595E0,1.144606686E1
5.250196660E-1,3.948157430E-1,-1.865205288E0,1.238345528E1
5.272550180E-1,5.036891699E-1,-1.929213285E0,1.240857983E1
5.294950690E-1,2.524427772E-1,-1.453639746E0,1.174277687E1
5.317293830E-1,-1.914258115E-2,-9.373882413E-1,1.070967579E1
5.339647960E-1,1.064806059E-1,-8.566305041E-1,9.494720459E0
5.361999030E-1,5.958128572E-1,-5.826523304E-1,8.668598175E0
5.384383060E-1,8.662018180E-1,-6.000002623E-1,8.437690735E0
5.406752440E-1,4.127618968E-1,-1.373480201E0,8.620741844E0
5.429134650E-1,-3.050848842E-1,-1.864008784E0,9.434899330E0
5.451483280E-1,-1.061815023E0,-1.787438512E0,1.071087265E1
5.473854500E-1,-1.591825247E0,-1.553540111E0,1.157348537E1
5.496224490E-1,-1.745564103E0,-1.283151150E0,1.149033451E1
5.518585330E-1,-1.569093466E0,-1.190429211E0,1.053799057E1
5.540949220E-1,-1.197607756E0,-1.074975610E0,9.201599121E0
5.563316780E-1,-6.203392744E-1,-8.961120844E-1,8.000402451E0
5.585684940E-1,-1.286142170E-1,-7.752745152E-1,7.284350395E0
5.608061040E-1,7.716853172E-2,-1.213161111E0,7.110870838E0
5.630386480E-1,-1.244267747E-1,-1.585843205E0,7.662416458E0
5.652670410E-1,-6.089733839E-1,-1.612762451E0,8.897710800E0
5.675167360E-1,-9.008977413E-1,-1.887338877E0,1.020239735E1
5.697516000E-1,-8.638089895E-1,-2.150549412E0,1.111884880E1
5.719911630E-1,-3.810569942E-1,-2.106282234E0,1.133300591E1
5.742245000E-1,3.571287692E-1,-1.666002750E0,1.083350468E1
5.764618660E-1,1.089930773E0,-1.566700578E0,9.872187614E0
5.786994140E-1,1.340578914E0,-1.839482427E0,9.140582085E0
5.809350100E-1,1.141376376E0,-1.721635938E0,9.123832703E0
5.831692020E-1,7.728816867E-1,-1.393819213E0,9.711270332E0
5.853946660E-1,5.048855543E-1,-1.164706469E0,1.063370419E1
5.876333130E-1,2.063809484E-1,-1.183250785E0,1.140838051E1
5.898820320E-1,1.902294010E-1,-1.298106313E0,1.145563793E1
5.921211670E-1,4.001995921E-1,-1.034895778E0,1.078504944E1
5.943581670E-1,2.931207791E-2,-6.807580590E-1,9.879964828E0
5.965898560E-1,-5.988038778E-1,-8.015955687E-1,9.149555206E0
5.988162970E-1,-8.955138922E-1,-1.211964726E0,8.937790871E0
6.010654420E-1,-9.649057388E-1,-1.404586911E0,9.461818695E0
6.033025640E-1,-8.165507317E-1,-1.683350682E0,1.020239735E1
6.055412120E-1,-6.789634228E-1,-2.161317110E0,1.071984577E1
6.077747930E-1,-8.991031051E-1,-1.765903115E0,1.079821014E1
6.100113040E-1,-1.207179070E0,-5.060819983E-1,1.026879883E1
6.122485480E-1,-1.333400369E0,1.178465188E-1,9.207581520E0
6.144862800E-1,-8.003991842E-1,-1.752742529E-1,7.911269665E0
6.167185790E-1,6.675975323E-1,-1.884347796E-1,7.018746853E0
6.189464850E-1,1.858026743E0,-1.716850251E-1,6.777071953E0
6.211956310E-1,1.818545222E0,-1.015154958E0,7.207181931E0
6.234315920E-1,5.736792088E-1,-2.260020971E0,8.456833839E0
6.256714000E-1,-3.672982752E-1,-2.906083107E0,1.051406288E1
6.279046760E-1,-2.428714931E-1,-2.746362209E0,1.263709450E1
6.301417970E-1,1.393819153E-1,-1.929811478E0,1.370249844E1
6.323792240E-1,-1.082752272E-1,-1.634896040E0,1.279860973E1
6.346146980E-1,8.733802289E-2,-1.488933921E0,1.075394344E1
6.368519410E-1,7.579265833E-1,-1.088734269E-1,9.055637360E0
6.390888190E-1,5.569294691E-1,7.214360237E-1,8.141578674E0
6.413221560E-1,-5.922235921E-2,3.212364316E-1,7.731209755E0
6.435493900E-1,9.571290761E-2,-4.522434771E-1,7.929814339E0
6.457978030E-1,4.719842672E-1,-1.117448211E0,8.816354752E0
6.480333990E-1,1.645065546E-1,-1.855035782E0,1.001156998E1
6.502690560E-1,-3.577269912E-1,-2.358126640E0,1.092802143E1
6.525082520E-1,-7.537391186E-1,-2.090728760E0,1.124806118E1
6.547450080E-1,-1.035493970E0,-1.544566989E0,1.086820030E1
6.569837160E-1,-1.461416483E0,-1.021735311E0,9.947562218E0
6.592181520E-1,-1.701895118E0,-6.544370055E-1,8.915059090E0
6.614546030E-1,-1.435095429E0,-9.553344250E-1,7.997411251E0
6.636905650E-1,-6.400800347E-1,-1.548754454E0,7.552944660E0
6.659281740E-1,-3.451646566E-1,-1.487737536E0,7.927421570E0
6.681629760E-1,-1.118046403E0,-1.719841242E0,8.903095245E0
6.703897220E-1,-2.164308071E0,-2.551347256E0,1.001515961E1
6.726384400E-1,-1.716252089E0,-2.868994236E0,1.093579769E1
6.748756230E-1,-5.742774159E-2,-2.273779631E0,1.130728340E1
6.771143930E-1,1.003789067E0,-1.317248821E0,1.088136101E1
6.793478520E-1,1.074377418E0,-1.073180914E0,9.670592308E0
6.815845470E-1,6.867401004E-1,-1.391426325E0,8.441878319E0
6.838214240E-1,6.191428304E-1,-1.354337573E0,7.974081516E0
6.860590340E-1,9.577272534E-1,-9.690931439E-1,8.276773453E0
6.882945680E-1,1.448255897E0,-7.651050687E-1,9.058628082E0
6.905317510E-1,1.386640668E0,-8.356932998E-1,1.000678444E1
6.927689340E-1,6.382854581E-1,-8.560323119E-1,1.069172955E1
6.950045900E-1,-8.733802289E-2,-9.415757060E-1,1.083290672E1
6.972413460E-1,-5.054838061E-1,-1.192223907E0,1.056251717E1
6.994776130E-1,-5.365904570E-1,-1.591227055E0,1.014317513E1
7.017147950E-1,-4.319044948E-1,-1.825723648E0,9.781859398E0
7.039522830E-1,-7.651050687E-1,-2.006979942E0,9.769894600E0
7.061879400E-1,-1.289133191E0,-2.311466694E0,1.008036327E1
7.084250610E-1,-1.838286042E0,-1.606780410E0,1.049372387E1
7.106637090E-1,-2.213959217E0,-7.926225066E-1,1.045543861E1
7.129037600E-1,-2.196611166E0,-1.438684583E0,9.503094673E0
7.151346560E-1,-1.304088354E0,-2.010569334E0,8.253443718E0
7.173709230E-1,8.673982322E-2,-1.405783296E0,7.378268719E0
7.196067020E-1,4.396811724E-1,-6.113662124E-1,7.198806763E0
7.218458380E-1,-4.121637046E-1,-6.819544435E-1,7.577471256E0
7.240812500E-1,-1.234098315E0,-1.046859860E0,8.471788406E0
7.263183110E-1,-9.649057388E-1,-9.421738982E-1,9.737591743E0
7.285553110E-1,-4.187439568E-3,-1.172483087E0,1.082453156E1
7.307914560E-1,6.275177598E-1,-1.714457393E0,1.115055370E1
7.330279670E-1,1.077966571E0,-2.114656925E0,1.038784122E1
7.352642950E-1,1.459621787E0,-2.191227436E0,9.232706070E0
7.375013550E-1,1.264606714E0,-1.467398524E0,8.562117577E0
7.397389040E-1,5.539384484E-1,-6.340979934E-1,8.487341881E0
7.419745000E-1,1.651047617E-1,-2.368894368E-1,8.688339233E0
7.442114380E-1,2.991028363E-3,1.124626622E-1,9.210572243E0
7.464489260E-1,-3.786641955E-1,-3.780659735E-1,9.908679008E0
7.486851930E-1,-5.162515044E-1,-1.429711580E0,1.027657509E1
7.509230470E-1,2.662015259E-1,-1.929811478E0,1.035135078E1
7.531575450E-1,5.748756528E-1,-2.173281193E0,1.027836990E1
7.553947270E-1,-1.387837082E-1,-2.304288149E0,9.990633011E0
7.576320930E-1,-7.304090858E-1,-2.097309113E0,9.488738060E0
7.598681160E-1,-8.745766878E-1,-1.747956991E0,8.947959900E0
7.621049320E-1,-4.456632137E-1,-1.291526079E0,8.231309891E0
7.643418710E-1,2.602194548E-1,-8.644071817E-1,7.588837147E0
7.665747190E-1,4.085744619E-1,-7.878368497E-1,7.189235687E0
7.688023810E-1,-2.554338276E-1,-6.107679605E-1,7.249654293E0
7.710509160E-1,-1.055832982E0,-3.667000830E-1,7.766504288E0
7.732880370E-1,-1.612762451E0,-6.634100676E-1,8.553144455E0
7.755285770E-1,-1.283749342E0,-1.322632670E0,9.363115311E0
7.777611210E-1,-2.859423161E-1,-1.617548108E0,9.863813400E0
7.799979980E-1,4.725824594E-1,-1.877767563E0,9.790233612E0
7.822352420E-1,5.078766346E-1,-2.306680918E0,9.395418167E0
7.844710820E-1,1.333998591E-1,-2.184647083E0,9.134600639E0
7.867047850E-1,-2.159522474E-1,-1.664806366E0,9.421140671E0
7.889325080E-1,-6.406782866E-1,-1.144965649E0,1.014616585E1
7.911784180E-1,-9.014959335E-1,-8.769695163E-1,1.087777138E1
7.934071780E-1,-4.845465720E-1,-1.410568953E0,1.111585712E1
7.956574230E-1,5.527420044E-1,-2.094317913E0,1.077368355E1
7.978915530E-1,1.271187067E0,-2.078764677E0,1.025563812E1
8.001314830E-1,8.638089895E-1,-1.286142230E0,9.907482147E0
8.023643930E-1,-1.202393398E-1,-6.478567123E-1,9.506086349E0
8.046009650E-1,-9.661021233E-1,-9.493523836E-1,9.284749985E0
8.068375370E-1,-1.130010486E0,-1.282552958E0,9.416953087E0
8.090746580E-1,-1.776670814E-1,-1.565504193E0,9.574281693E0
8.113122070E-1,8.835497499E-1,-1.744367719E0,9.608379364E0
8.135477420E-1,8.494520187E-1,-1.857428551E0,9.450452805E0
8.157846190E-1,-1.818545163E-1,-2.711666346E0,9.223134995E0
8.180218630E-1,-1.195813060E0,-2.524427891E0,9.366106033E0
8.202577030E-1,-1.168295622E0,-9.499505758E-1,9.955338478E0
8.224943360E-1,-7.782655358E-1,-1.142572835E-1,1.006720352E1
8.247308480E-1,-3.768695593E-1,-6.041877270E-1,9.265607834E0
8.269679080E-1,2.141576260E-1,-1.454237938E0,8.123034477E0
8.292052740E-1,6.825526357E-1,-1.171286702E0,7.530810833E0
8.314411140E-1,5.312066078E-1,-7.387840152E-1,7.462017536E0
8.336786620E-1,-3.810569942E-1,-1.018146038E0,7.859225750E0
8.359171880E-1,-1.441077471E0,-1.561915040E0,8.813961983E0
8.381510140E-1,-1.459023595E0,-1.834696770E0,9.977472305E0
8.403875250E-1,-4.875376225E-1,-1.164706469E0,1.073898792E1
8.426234260E-1,3.523431420E-1,-1.256830096E0,1.039382362E1
8.448612800E-1,2.847459018E-1,-1.849053741E0,9.383454323E0
8.470988290E-1,1.651047617E-1,-1.053440213E0,8.403593063E0
8.493344240E-1,1.938186288E-1,-3.194418252E-1,7.949554920E0
8.515711800E-1,-2.614158690E-1,-9.678967595E-1,7.932207108E0
8.538083010E-1,-3.786641955E-1,-1.518844128E0,8.480163574E0
8.560445680E-1,1.555334684E-2,-1.567298889E0,9.404391289E0
8.582809570E-1,1.250249892E-1,-1.850250125E0,1.021615601E1
8.605152110E-1,-1.597209126E-1,-1.951945066E0,1.028554821E1
8.627422000E-1,-2.877369225E-1,-1.907677889E0,9.540184021E0
8.649810920E-1,-3.110669367E-2,-1.681556106E0,8.455039024E0
8.672327390E-1,4.893322289E-1,-8.494520187E-1,7.738388538E0
8.694655890E-1,5.048855543E-1,-2.835494876E-1,7.427919865E0
8.716928840E-1,9.571290761E-2,-7.220342159E-1,7.448258877E0
8.739364750E-1,-2.656033039E-1,-1.198205948E0,8.079963684E0
8.761738410E-1,-5.258227587E-1,-1.319641709E0,9.241679192E0
8.784137090E-1,-5.862415433E-1,-1.850250125E0,1.045783138E1
8.806475960E-1,-6.394818425E-1,-2.441875458E0,1.125942707E1
8.828852060E-1,-6.987041831E-1,-2.437089920E0,1.148315620E1
8.851209840E-1,-8.644071817E-1,-2.226521492E0,1.098963642E1
8.873578620E-1,-8.458628058E-1,-1.759322882E0,1.017368412E1
8.895949220E-1,-6.245267391E-1,-1.523629785E0,9.255437851E0
8.918308840E-1,-2.087737769E-1,-2.075773716E0,8.368298531E0
8.940673340E-1,3.421736360E-1,-2.282752752E0,7.963313580E0
8.963040900E-1,5.485545993E-1,-1.709073544E0,8.350951195E0
8.985409060E-1,9.272187948E-2,-1.027119160E0,9.108279228E0
9.007785160E-1,-4.193421602E-1,-9.744769931E-1,9.742377281E0
9.030139900E-1,-7.758727670E-1,-1.243071318E0,1.010189915E1
9.052509280E-1,-5.258227587E-1,-1.241874933E0,9.985248566E0
9.074881720E-1,4.983053207E-1,-1.005583763E0,9.374481201E0
9.097240730E-1,1.430907965E0,-1.240080357E0,8.525029182E0
9.119609500E-1,1.500299811E0,-2.118246317E0,7.855038643E0
9.141974010E-1,6.017948985E-1,-2.587837696E0,7.919046402E0
9.164343390E-1,-4.223332107E-1,-2.117049932E0,8.671588898E0
9.186720100E-1,-8.727820516E-1,-1.598405480E0,9.629914284E0
9.209073610E-1,-8.434699774E-1,-1.912463546E0,1.019820976E1
9.231444220E-1,-4.366901219E-1,-2.215753794E0,1.030708313E1
9.253811770E-1,2.333002090E-1,-1.741376638E0,1.004088211E1
9.276173830E-1,2.219343036E-1,-1.116850019E0,9.553344727E0
9.298541390E-1,-3.158525825E-1,-1.268195987E0,8.833105087E0
9.320905280E-1,-5.096712112E-1,-1.650449395E0,8.393424034E0
9.343275880E-1,-1.944168359E-1,-1.311266780E0,8.562715530E0
9.365642210E-1,2.033899166E-2,-7.004988194E-1,9.140582085E0
9.387973150E-1,-4.713860750E-1,-7.525427341E-1,9.474381447E0
9.410348020E-1,-8.566305041E-1,-1.357328653E0,9.200403214E0
9.432627690E-1,-6.017948985E-1,-1.196411371E0,8.797212601E0
9.455112430E-1,3.409772366E-2,-5.437689424E-1,8.348558426E0
9.477472050E-1,3.643072546E-1,-7.668996453E-1,7.970492363E0
9.499868290E-1,5.742774159E-2,-1.475175142E0,7.940581799E0
9.522212650E-1,-2.572284341E-1,-1.744965911E0,8.443673134E0
9.544586920E-1,-1.118644550E-1,-1.569093466E0,9.183652878E0
9.566910520E-1,4.360919297E-1,-1.536790371E0,9.603593826E0
9.589190800E-1,9.463613629E-1,-2.046461582E0,9.580264091E0
9.611680430E-1,1.121037364E0,-2.320439816E0,9.363115311E0
9.634039430E-1,1.005583763E0,-1.739582062E0,9.289535522E0
9.656435070E-1,1.920240223E-1,-1.307079315E0,9.405587196E0
9.678770880E-1,-9.661021233E-1,-1.768894196E0,9.576674461E0
9.701142090E-1,-1.186241865E0,-2.235494614E0,9.918848038E0
9.723518190E-1,-7.238288522E-1,-2.125424623E0,1.042373371E1
9.745875370E-1,-6.113662124E-1,-2.057229280E0,1.081555843E1
9.768241700E-1,-9.750752449E-1,-2.291725874E0,1.094596672E1
9.790614750E-1,-1.169492126E0,-2.212164640E0,1.086341476E1
9.812944460E-1,-1.036092162E0,-1.701296926E0,1.067737293E1
9.835219240E-1,-1.001994491E0,-1.211964726E0,1.026221848E1
9.857703990E-1,-8.171489239E-1,-1.091725349E0,9.582057953E0
9.880061160E-1,-2.590230405E-1,-1.307079315E0,8.862417221E0
9.902426890E-1,2.350948304E-1,-1.064806104E0,8.575876236E0
9.924806640E-1,1.429711580E-1,-1.064207911E0,8.765507698E0
9.947177250E-1,-4.396811724E-1,-1.617548108E0,9.295517921E0
9.969560670E-1,-6.586244106E-1,-1.818545222E0,1.001874828E1
9.991905640E-1,-3.385843933E-1,-1.524826288E0,1.061695385E1
1.001424085E0,-6.101697683E-2,-1.816750646E0,1.074855900E1
1.003651502E0,2.027917206E-1,-2.311466694E0,1.041835022E1
1.005900830E0,8.015955687E-1,-2.237289190E0,9.979865074E0
1.008135388E0,1.252044439E0,-2.358126640E0,9.745966911E0
1.010362134E0,9.601200819E-1,-2.555534601E0,9.943972588E0
1.012599256E0,2.392822653E-1,-2.403590441E0,1.051884842E1
1.014847791E0,-3.655036688E-1,-2.450250387E0,1.113799095E1
1.017086866E0,-4.971089065E-1,-2.407179594E0,1.149452209E1
1.019320447E0,-1.483550072E-1,-1.809572101E0,1.152981567E1
1.021542371E0,7.657032460E-2,-1.390229940E0,1.111167049E1
1.023782178E0,1.160518974E-1,-1.420140266E0,1.028734303E1
1.026031690E0,-1.088734269E-1,-1.231107235E0,9.431310654E0
1.028267713E0,-6.951149702E-1,-1.272383451E0,8.920442581E0
1.030497144E0,-9.427721500E-1,-1.573879123E0,8.837890625E0
1.032740613E0,-6.897311211E-1,-1.402792215E0,9.206983566E0
1.034977186E0,-5.832505226E-1,-1.397408366E0,9.689137459E0
1.037216260E0,-8.554341197E-1,-1.546959877E0,9.906285286E0
1.039450513E0,-8.201399446E-1,-9.248259664E-1,9.653244972E0
1.041687390E0,-4.169493318E-1,-2.955136001E-1,8.830712318E0
1.043924695E0,-2.895315289E-1,-3.643072546E-1,7.801798344E0
1.046160352E0,-4.067798555E-1,-6.311069727E-1,6.976274490E0
1.048397596E0,-2.392822653E-1,-1.077368379E0,6.778268337E0
1.050634473E0,2.709871531E-1,-1.924427629E0,7.328019142E0
1.052870557E0,8.315058947E-1,-2.145763636E0,8.740383148E0
1.055107068E0,9.266205430E-1,-2.581257343E0,1.052064323E1
1.057343702E0,6.257231236E-1,-3.778865099E0,1.182174015E1
1.059580762E0,8.440681696E-1,-3.693321705E0,1.226202011E1
1.061818250E0,1.096511006E0,-2.695514679E0,1.182891846E1
1.064053602E0,4.755735099E-1,-2.121835470E0,1.080658531E1
1.066288038E0,-2.596212626E-1,-1.531406522E0,9.754341125E0
1.068517225E0,-4.701896608E-1,-8.841479421E-1,9.088538170E0
1.070763868E0,-4.654040039E-1,-6.873382926E-1,8.845068932E0
1.073000379E0,-4.396811724E-1,-8.027920127E-1,9.007781029E0
1.075239392E0,-4.594219327E-1,-9.385846853E-1,9.446265221E0
1.077474012E0,-5.892325640E-1,-1.034895778E0,9.941579819E0
1.079711316E0,-9.684949517E-1,-8.775677085E-1,1.029511929E1
1.081944043E0,-1.405783296E0,-9.762716293E-1,1.024845982E1
1.084169324E0,-1.377667665E0,-1.228116274E0,9.877572060E0
1.086409376E0,-8.662018180E-1,-1.247856975E0,9.404989243E0
1.088657178E0,-2.919243574E-1,-1.508076429E0,9.000602722E0
1.090896619E0,1.375873014E-2,-2.004587173E0,8.851649284E0
1.093132947E0,1.609173268E-1,-2.309672117E0,9.072985649E0
1.095367139E0,1.561316848E-1,-2.350350142E0,9.597611427E0
1.097604810E0,-1.363908947E-1,-2.320439816E0,1.029093170E1
1.099840039E0,-3.308077157E-1,-2.549552441E0,1.084307575E1
1.102077405E0,-1.896311939E-1,-2.831307411E0,1.126899815E1
1.104314588E0,2.033899166E-2,-2.400599241E0,1.154656601E1
1.106549879E0,2.991028316E-2,-1.697707653E0,1.159801102E1
1.108781323E0,-3.732803464E-1,-1.604387641E0,1.127019501E1
1.111011304E0,-4.600201547E-1,-1.462612867E0,1.093998528E1
1.113260450E0,-9.631111473E-2,-1.295115232E0,1.073300552E1
1.115498792E0,1.052841991E-1,-1.532602906E0,1.084965611E1
1.117733350E0,2.937189937E-1,-1.250249863E0,1.114696407E1
1.119958692E0,2.847459018E-1,-1.079162955E0,1.137547874E1
1.122207593E0,-1.202393398E-1,-1.354337573E0,1.119063377E1
1.124443555E0,-5.042873621E-1,-1.030110121E0,1.067677498E1
1.126680066E0,-5.617151260E-1,-8.195417523E-1,9.821938515E0
1.128904920E0,-3.290131092E-1,-1.177268744E0,8.885149002E0
1.131139050E0,-3.649054468E-2,-1.112064362E0,8.368298531E0
1.133376721E0,1.381855011E-1,-9.613165259E-1,8.307880402E0
1.135611890E0,-2.404786795E-1,-1.482951880E0,8.600402832E0
1.137852124E0,-5.958128572E-1,-1.882553220E0,9.184849739E0
1.140090345E0,-2.105683982E-1,-2.011167526E0,9.908679008E0
1.142326856E0,-6.819544733E-2,-2.309073925E0,1.073061275E1
1.144561719E0,-4.779663086E-1,-1.747358680E0,1.151246834E1
1.146798048E0,-8.554341197E-1,-9.008977413E-1,1.169851017E1
1.149034864E0,-7.657032609E-1,-1.104287624E0,1.092682457E1
1.151272657E0,7.776673418E-3,-1.191625714E0,9.842277527E0
1.153508558E0,8.626125455E-1,-8.183453679E-1,9.048459053E0
1.155745923E0,1.168295622E0,-8.159525394E-1,8.617152214E0
1.157986035E0,8.219345808E-1,-8.069794178E-1,8.785846710E0
1.160233106E0,-5.922235921E-2,-1.064806104E0,9.469595909E0
1.162469740E0,-8.973084688E-1,-1.907079697E0,1.033579731E1
1.164705884E0,-7.076773047E-1,-1.899901152E0,1.118166065E1
1.166940625E0,1.375873089E-1,-1.306481123E0,1.140778160E1
1.169177869E0,4.181457460E-1,-1.168893814E0,1.070907784E1
1.171413587E0,-3.409772366E-2,-1.280160069E0,9.513264656E0
1.173650464E0,-3.302095234E-1,-1.070189953E0,8.570492744E0
1.175887281E0,-2.416750938E-1,-8.398807645E-1,8.141578674E0
1.178123243E0,-6.340979785E-2,-1.445264935E0,8.077570915E0
1.180360242E0,-4.187439755E-2,-2.437089920E0,8.427521706E0
1.182596631E0,-1.908276081E-1,-2.970091105E0,9.294919968E0
1.184833814E0,-7.854440212E-1,-2.684746981E0,1.053858948E1
1.187071424E0,-1.709073544E0,-2.111067772E0,1.142094231E1
1.189306775E0,-2.167299032E0,-1.984248161E0,1.145444202E1
1.191543592E0,-1.690529227E0,-1.816152334E0,1.080060291E1
1.193779187E0,-5.706881881E-1,-1.168295622E0,9.732208252E0
1.196011121E0,5.814558864E-1,-7.345965505E-1,8.444869041E0
1.198253370E0,1.186241865E0,-8.721838593E-1,7.401598454E0
1.200489942E0,1.040877819E0,-1.217348576E0,7.033702374E0
1.202728406E0,1.956132501E-1,-1.011565804E0,7.664210796E0
1.204964490E0,-7.698906660E-1,-1.132403374E0,8.967103004E0
1.207199842E0,-1.026520967E0,-1.814955950E0,1.047757244E1
1.209436963E0,-2.859423161E-1,-1.631306887E0,1.166680527E1
1.211674207E0,3.667000830E-1,-1.205982566E0,1.170030499E1
1.213910047E0,3.349951804E-1,-1.792224169E0,1.038006496E1
1.216146436E0,2.554338276E-1,-2.251646042E0,8.716454506E0
1.218383131E0,4.019941986E-1,-1.933400750E0,7.744370461E0
1.220620069E0,6.281159073E-2,-1.578664780E0,7.664210796E0
1.222857862E0,-6.628118753E-1,-1.591227055E0,8.477770805E0
1.225093213E0,-9.505487680E-1,-1.946561217E0,9.744172096E0
1.227330579E0,-6.777670383E-1,-2.027917147E0,1.084845924E1
1.229567457E0,-5.850451589E-1,-1.625324726E0,1.135872936E1
1.231801343E0,-8.500502706E-1,-1.393819213E0,1.073599720E1
1.234032605E0,-6.568298340E-1,-1.479362607E0,9.159725189E0
1.236276502E0,5.982056633E-2,-1.095912814E0,7.701299667E0
1.238513684E0,5.952146053E-1,-6.029912829E-1,6.918846607E0
1.240752942E0,6.664010882E-1,-7.704889178E-1,6.714858532E0
1.242986524E0,2.458625287E-1,-1.020538807E0,7.311867714E0
1.245223767E0,-4.259224236E-1,-9.786644578E-1,8.736195564E0
1.247460584E0,-9.272187948E-1,-1.204786181E0,1.052483082E1
1.249696729E0,-1.027119160E0,-1.683948994E0,1.199342537E1
1.251933240E0,-5.790630579E-1,-1.936989903E0,1.246540928E1
1.254169813E0,1.944168359E-1,-1.892124534E0,1.161894894E1
1.256406629E0,6.723831892E-1,-1.886142492E0,9.987641335E0
1.258644178E0,5.108676553E-1,-1.905285001E0,8.513064384E0
1.260879773E0,3.637090325E-1,-1.527219057E0,7.886145115E0
1.263116895E0,1.746760458E-1,-8.608179688E-1,8.126624107E0
1.265353895E0,-2.207378894E-1,-5.485545993E-1,9.052047729E0
1.267589734E0,-8.638089895E-1,-9.744769931E-1,1.019641590E1
1.269826246E0,-1.117448211E0,-1.826321840E0,1.105364418E1
1.272062635E0,-6.269195080E-1,-2.175075769E0,1.140718365E1
1.274300000E0,-3.182454109E-1,-2.168495417E0,1.114756203E1
1.276536145E0,-4.109672904E-1,-2.416750908E0,1.030768204E1
1.278767591E0,-6.281159520E-1,-2.328216314E0,9.452247620E0
1.281010205E0,-6.927221417E-1,-1.746162295E0,8.968897820E0
1.283247205E0,-6.747759581E-1,-1.592423439E0,8.801998138E0
1.285484449E0,-6.664010882E-1,-1.616949916E0,8.925827026E0
1.287719678E0,-4.881358147E-1,-9.714859724E-1,9.327222824E0
1.289956434E0,-3.613162339E-1,-6.311069727E-1,9.728020668E0
1.292193372E0,-6.305087805E-1,-8.811569214E-1,9.964909554E0
1.294431043E0,-7.262216806E-1,-1.157527924E0,1.002173901E1
1.296663159E0,-1.393819153E-1,-1.580459356E0,9.612566948E0
1.298891553E0,9.529415965E-1,-1.607976794E0,8.912068367E0
1.301140455E0,1.615155339E0,-1.284347534E0,8.197810173E0
1.303376416E0,1.459621787E0,-1.347159147E0,7.752745152E0
1.305615919E0,8.751748800E-1,-1.280758262E0,7.814360619E0
1.307849561E0,1.256231815E-1,-1.411765337E0,8.517850876E0
1.310086866E0,-3.361915946E-1,-1.558923960E0,9.687342644E0
1.312324170E0,-3.846462369E-1,-2.261815548E0,1.088495064E1
1.314558911E0,-3.475574851E-1,-3.218346357E0,1.172602749E1
1.316793347E0,-3.601198196E-1,-3.027518749E0,1.185882950E1
1.319033826E0,-6.783652306E-1,-2.866601467E0,1.116431236E1
1.321267957E0,-1.174875975E0,-2.714657307E0,1.001994514E1
1.323500257E0,-8.937192559E-1,-1.799402595E0,8.828917503E0
1.325742811E0,-4.277170599E-1,-9.786644578E-1,7.777870178E0
1.327977124E0,-3.613162339E-1,-7.848458290E-1,6.991229534E0
1.330207898E0,-5.748756528E-1,-8.374879360E-1,6.636493683E0
1.332452832E0,-6.466603279E-1,-6.987041831E-1,6.845865726E0
1.334690076E0,-6.735795736E-1,-5.718846321E-1,7.474579811E0
1.336929701E0,-8.039883971E-1,-5.928218365E-1,8.222336769E0
1.339163099E0,-7.363911867E-1,-1.279561877E0,8.648259163E0
1.341400281E0,-4.133601189E-1,-2.060220242E0,8.819346428E0
1.343638135E0,-1.256231871E-2,-1.813161373E0,8.903693199E0
1.345873242E0,1.154536903E-1,-1.566102386E0,8.861818314E0
1.348107739E0,0.000000000E0,-2.032702923E0,8.718249321E0
1.350333936E0,9.690931439E-2,-2.221137524E0,8.843274117E0
1.352583387E0,3.756731451E-1,-1.954936147E0,9.241679192E0
1.354820203E0,4.331009090E-1,-2.029711723E0,9.675976753E0
1.357059278E0,2.763710022E-1,-2.114656925E0,9.936794281E0
1.359292859E0,1.555334777E-1,-1.759322882E0,1.010189915E1
1.361526441E0,-8.434699476E-2,-1.487737536E0,1.003729248E1
1.363754285E0,-4.731806815E-1,-1.055234790E0,9.775876999E0
1.366003797E0,-6.478567123E-1,-7.345965505E-1,9.358927727E0
1.368236463E0,-3.553341627E-1,-6.699903607E-1,8.894122124E0
1.370467786E0,5.324030295E-2,-6.987041831E-1,8.640482903E0
1.372713575E0,-3.529413417E-2,-4.731806815E-1,8.739186287E0
1.374949659E0,-5.318048596E-1,-6.191428304E-1,8.844470978E0
1.377189100E0,-8.368897438E-1,-1.179063320E0,8.871390343E0
1.379422559E0,-7.651050687E-1,-1.429113269E0,8.996415138E0
1.381659864E0,-4.821537733E-1,-2.012962103E0,9.152546883E0
1.383897352E0,-2.721835673E-1,-2.581855536E0,9.412766457E0
1.386132764E0,1.357926875E-1,-2.359921217E0,9.745368004E0
1.388369764E0,1.992024779E-1,-2.127817631E0,1.000319481E1
1.390606824E0,-3.302095234E-1,-2.000399828E0,9.959526062E0
1.392842969E0,-6.813562512E-1,-1.931007862E0,9.651450157E0
1.395079541E0,-4.701896608E-1,-2.090728760E0,9.314660072E0
1.397313062E0,8.315058798E-2,-1.993221283E0,9.162715912E0
1.399540906E0,2.554338276E-1,-1.523629785E0,9.406186104E0
1.401790479E0,-2.548356056E-1,-1.455434322E0,9.873384476E0
1.404026258E0,-5.395814776E-1,-1.965703845E0,1.043928719E1
1.406266126E0,-5.318048596E-1,-2.036292076E0,1.114038372E1
1.408500135E0,-5.294120312E-1,-1.914258122E0,1.162193966E1
1.410735914E0,-3.547359705E-1,-2.331207514E0,1.124746323E1
1.412972608E0,2.542374134E-1,-2.073380709E0,1.037527943E1
1.415209424E0,9.373882413E-1,-1.518844128E0,9.274580956E0
1.417446546E0,8.069794178E-1,-1.426122308E0,8.309675217E0
1.419684034E0,1.070788130E-1,-1.045065284E0,7.892725468E0
1.421919263E0,-6.233302951E-1,-7.764709592E-1,8.052446365E0
1.424156140E0,-9.122636318E-1,-1.007976532E0,8.369495392E0
1.426393445E0,-7.136593461E-1,-9.367900491E-1,8.891130447E0
1.428629590E0,-4.325026870E-1,-7.854440212E-1,9.322437286E0
1.430866224E0,-3.732803464E-1,-7.429714203E-1,9.165707588E0
1.433102674E0,-3.613162339E-1,-9.882357717E-1,8.460422516E0
1.435339551E0,-4.791627228E-1,-1.514058471E0,7.831110477E0
1.437577344E0,-7.722834945E-1,-1.718644857E0,7.570890903E0
1.439809888E0,-8.398807645E-1,-1.661217093E0,7.722835064E0
1.442037793E0,-5.383850932E-1,-1.868196249E0,8.050053596E0
1.444286756E0,-7.597211748E-2,-2.426920414E0,8.465806961E0
1.446522779E0,2.207378894E-1,-2.482553482E0,9.050253868E0
1.448762159E0,2.488535494E-1,-1.892722726E0,9.626325607E0
1.450995801E0,-1.375873014E-2,-1.722234130E0,9.781260490E0
1.453233045E0,-4.235295951E-1,-1.398604870E0,9.528818130E0
1.455470411E0,-4.833501875E-1,-7.932206988E-1,9.074181557E0
1.457705945E0,-1.453639716E-1,-5.473581553E-1,8.595019341E0
1.459942762E0,3.361915946E-1,-5.670989752E-1,8.261219978E0
1.462180006E0,5.276173949E-1,-5.605186820E-1,8.243872643E0
1.464415662E0,4.486542344E-1,-9.571290612E-1,8.420342445E0
1.466649548E0,4.115654826E-1,-1.657029629E0,8.840881348E0
1.468877149E0,2.859423161E-1,-1.672582984E0,9.573683739E0
1.471126538E0,8.315058798E-2,-1.849053741E0,1.001097202E1
1.473363965E0,3.230310604E-2,-2.483749866E0,9.887741089E0
1.475602308E0,1.920240223E-1,-2.164308071E0,9.588040352E0
1.477836316E0,-2.333002165E-2,-1.713859200E0,9.170493126E0
1.480073316E0,-8.380861282E-1,-2.000998020E0,8.739186287E0
1.482306287E0,-1.443470240E0,-2.149353027E0,8.671588898E0
1.484534070E0,-1.528415442E0,-1.900499344E0,8.942576408E0
1.486779492E0,-1.282552958E0,-1.963310957E0,9.226125717E0
1.489008008E0,-9.930213690E-1,-2.394019127E0,9.453444481E0
1.491259901E0,-8.739784956E-1,-3.004188776E0,9.637093544E0
1.493492383E0,-9.212366939E-1,-3.157329559E0,9.836894035E0
1.495732557E0,-8.159525394E-1,-2.409572363E0,1.003729248E1
1.497966688E0,-7.334001660E-1,-1.668993831E0,1.002712345E1
1.500202588E0,-4.091726840E-1,-1.304088354E0,9.638289452E0
1.502439100E0,6.400800496E-2,-1.031306505E0,9.103493690E0
1.504675672E0,2.805584669E-1,-1.161715388E0,8.738588333E0
1.506912793E0,2.614158690E-1,-1.500898004E0,8.691329956E0
1.509150342E0,1.800599098E-1,-1.545165181E0,9.257830620E0
1.511385877E0,-1.465603858E-1,-1.731805444E0,1.021376324E1
1.513622815E0,-4.576273263E-1,-2.271386862E0,1.099382401E1
1.515860242E0,-1.196411327E-1,-2.334796667E0,1.118764210E1
1.518095838E0,6.101697683E-1,-1.816750646E0,1.066899776E1
1.520332471E0,1.013360381E0,-1.425524116E0,9.498908043E0
1.522568922E0,1.001994491E0,-1.614557028E0,8.173882484E0
1.524806104E0,9.092726111E-1,-1.772483349E0,7.467401028E0
1.527039197E0,7.256234884E-1,-1.341177106E0,7.865208149E0
1.529258374E0,1.920240223E-1,-1.166501045E0,9.004789352E0
1.531504163E0,-4.217349887E-1,-1.847259045E0,1.026401234E1
1.533753553E0,-7.357929349E-1,-2.531008244E0,1.120140076E1
1.535993604E0,-1.235294700E0,-2.306082726E0,1.171167088E1
1.538228773E0,-2.313859463E0,-2.130808592E0,1.150110245E1
1.540462171E0,-2.606382132E0,-2.422134638E0,1.044048309E1
1.542699109E0,-1.690529227E0,-1.933998942E0,9.431908607E0
1.544936658E0,-9.942178130E-1,-1.406381488E0,8.922835350E0
1.547172315E0,-6.077769399E-1,-1.282552958E0,8.749356270E0
1.549409680E0,2.608176768E-1,-8.273184299E-1,8.813961983E0
1.551646680E0,7.310073376E-1,-6.538388133E-1,9.046664238E0
1.553882520E0,6.460621357E-1,-7.489534616E-1,9.284749985E0
1.556119031E0,6.945167780E-1,-1.262812138E0,9.519845009E0
1.558355604E0,8.333004713E-1,-2.419143677E0,9.823135376E0
1.560592725E0,1.124626637E0,-2.889333248E0,1.030349445E1
1.562830213E0,1.093519926E0,-2.413759947E0,1.086520958E1
1.565065503E0,4.618147612E-1,-2.432304144E0,1.079282665E1
1.567302442E0,2.925225794E-1,-2.904886723E0,1.011505985E1
1.569539869E0,7.914260626E-1,-2.522035122E0,9.532406807E0
1.571775586E0,8.350951076E-1,-1.857428551E0,9.412167549E0
1.574012464E0,7.118647546E-2,-1.975275040E0,9.486345291E0
1.576248853E0,-6.376872063E-1,-2.468196630E0,9.809974670E0
1.578485852E0,-9.762716293E-1,-3.049054146E0,1.033699417E1
1.580720654E0,-1.031904817E0,-3.275774240E0,1.094237804E1
1.582944470E0,-7.160521746E-1,-2.675773859E0,1.146401310E1
1.585184339E0,-8.039883971E-1,-2.243271112E0,1.120499039E1
1.587433240E0,-1.012762189E0,-1.977069736E0,1.027298546E1
1.589672010E0,-7.944171429E-1,-1.201795220E0,9.482157707E0
1.591908643E0,-7.525427341E-1,-4.737788737E-1,9.137591362E0
1.594142225E0,-6.532405615E-1,-3.164508045E-1,8.981459618E0
1.596379346E0,-9.451649338E-2,-7.226324677E-1,9.072985649E0
1.598616834E0,4.420739710E-1,-1.469791293E0,9.584450722E0
1.600852186E0,4.935196638E-1,-2.129014015E0,1.032502937E1
1.603089246E0,4.031906128E-1,-2.413161755E0,1.092562866E1
1.605323255E0,3.337987661E-1,-2.847458839E0,1.105902767E1
1.607547254E0,4.043870270E-1,-3.392424345E0,1.078923702E1
1.609787061E0,7.621139884E-1,-2.938386202E0,1.063430214E1
1.612035535E0,8.237292171E-1,-2.110469580E0,1.041894817E1
1.614275464E0,2.099701911E-1,-1.735394597E0,9.940383911E0
1.616513075E0,-1.914258152E-1,-1.239482164E0,9.525827408E0
1.618745252E0,-4.331009090E-1,-9.044869542E-1,9.179466248E0
1.620982617E0,-6.083751321E-1,-1.230509043E0,8.911469460E0
1.623219617E0,-3.529413417E-2,-1.693520188E0,8.946166039E0
1.625455762E0,5.066801906E-1,-2.034497499E0,9.457033157E0
1.627689099E0,3.194418252E-1,-2.006381750E0,1.019462109E1
1.629913892E0,2.871387079E-2,-2.041675806E0,1.047817039E1
1.632153760E0,8.494520187E-2,-2.318645239E0,1.017846966E1
1.634403516E0,4.713860750E-1,-1.944766641E0,9.842875481E0
1.636638746E0,4.612165689E-1,-1.275374413E0,9.899106979E0
1.638866773E0,-2.021935135E-1,-1.356730461E0,1.003131104E1
1.641113111E0,-3.427718580E-1,-1.667199135E0,1.030708313E1
1.643348768E0,-2.895315289E-1,-1.713261008E0,1.076530933E1
1.645588392E0,-5.341976285E-1,-2.599801779E0,1.099382401E1
1.647821790E0,-2.967100143E-1,-3.345764160E0,1.114516926E1
1.650058789E0,2.691925503E-2,-2.935993433E0,1.150469112E1
1.652296582E0,-6.053841114E-1,-2.407179594E0,1.184148121E1
1.654532178E0,-1.116251707E0,-1.902294040E0,1.196471119E1
1.656769972E0,-9.571290612E-1,-1.531406522E0,1.187976646E1
1.659008985E0,-8.494520187E-1,-1.460219979E0,1.171346474E1
1.661240186E0,-7.154539824E-1,-1.222732425E0,1.160937691E1
1.663470105E0,-6.197410822E-1,-1.347757339E0,1.141496086E1
1.665714551E0,-2.111666054E-1,-1.941775560E0,1.130548859E1
1.667952344E0,2.979064286E-1,-2.084148407E0,1.154417324E1
1.670192273E0,5.575276613E-1,-1.850848317E0,1.184148121E1
1.672425489E0,4.935196638E-1,-1.734198213E0,1.166441250E1
1.674662488E0,8.404789567E-1,-1.823330879E0,1.125284672E1
1.676899183E0,1.048654556E0,-1.314856052E0,1.129711437E1
1.679135145E0,6.592226624E-1,-6.735795736E-1,1.145922756E1
1.681371961E0,4.438686073E-1,-3.541377485E-1,1.134197903E1
1.683608594E0,4.791627228E-1,-1.108475089E0,1.095733356E1
1.685845716E0,6.101697683E-1,-2.778665304E0,1.078983593E1
1.688080213E0,1.149751306E0,-2.890529871E0,1.140060329E1
1.690306775E0,3.272185028E-1,-2.870789051E0,1.183669567E1
1.692555616E0,-6.831508875E-1,-2.795415163E0,1.126899815E1
1.694792737E0,-3.678964674E-1,-1.800000787E0,1.024068260E1
1.697031263E0,-5.312066078E-1,-1.281954765E0,9.408578873E0
1.699265577E0,-6.059823632E-1,-9.212367237E-2,8.914461136E0
1.701501844E0,-3.457628787E-1,7.381857634E-1,8.443074226E0
1.703739087E0,-5.832505226E-1,1.064806059E-1,8.237292290E0
1.705976453E0,-1.178465188E-1,-2.847459018E-1,8.599804878E0
1.708209058E0,4.133601189E-1,-6.400800347E-1,9.253643036E0
1.710436902E0,-2.614158690E-1,-2.608176708E0,9.827920914E0
1.712685926E0,-3.936193287E-1,-4.049253941E0,1.058704376E1
1.714921949E0,-3.930211067E-1,-3.069393158E0,1.169671535E1
1.717161329E0,-1.283151150E0,-2.234298229E0,1.188275719E1
1.719394910E0,-1.577468276E0,-2.070389748E0,1.059721375E1
1.721632032E0,-6.544370055E-1,-1.005583763E0,9.092127800E0
1.723869886E0,1.256231871E-2,-7.106683254E-1,8.291728973E0
1.726105420E0,5.455635786E-1,-9.631111026E-1,8.335397720E0
1.728342237E0,9.942178130E-1,-1.086939692E0,8.888139725E0
1.730577466E0,3.505485058E-1,-2.114058733E0,9.651450157E0
1.732808179E0,-2.213360965E-1,-2.774477959E0,1.051047325E1
1.735051709E0,-2.015953064E-1,-2.409572363E0,1.112961674E1
1.737288465E0,-1.136590764E-1,-2.550150633E0,1.121216869E1
1.739527112E0,2.931207716E-1,-2.943171740E0,1.114457130E1
1.741763135E0,7.214360237E-1,-2.395813704E0,1.128634644E1
1.743998487E0,4.654040039E-1,-1.932204247E0,1.123549843E1
1.746235791E0,1.872383654E-1,-1.906481385E0,1.071326542E1
1.748472547E0,7.082754970E-1,-1.615155339E0,1.020718288E1
1.750708631E0,8.297112584E-1,-1.464407444E0,1.024128056E1
1.752944959E0,6.263213158E-1,-1.367498159E0,1.068275642E1
1.755181776E0,7.836493850E-2,-1.232303619E0,1.113978577E1
1.757418592E0,-9.260223508E-1,-1.390229940E0,1.122652531E1
1.759656202E0,-1.738983870E0,-1.834696770E0,1.084307575E1
1.761891675E0,-1.434497118E0,-1.574477315E0,1.041595650E1
1.764128614E0,-6.191428304E-1,-1.182054400E0,9.821938515E0
1.766365919E0,-1.866401732E-1,-7.124629617E-1,9.233902931E0
1.768601941E0,1.202393398E-1,3.517449200E-1,8.782257080E0
1.770838331E0,-3.427718580E-1,8.632107973E-1,8.290532112E0
1.773071851E0,-1.265803218E0,7.405785918E-1,7.834101200E0
1.775299939E0,-1.274776220E0,4.301098585E-1,7.758129120E0
1.777549512E0,-5.300102234E-1,-4.636093974E-1,8.324629784E0
1.779785108E0,5.742774159E-2,-1.559522152E0,9.543174744E0
1.782025159E0,3.391826153E-1,-2.617149830E0,1.080598736E1
1.784259229E0,-1.076770201E-2,-3.925425529E0,1.145862961E1
1.786495252E0,-6.939185411E-2,-4.435096741E0,1.123968601E1
1.788731580E0,1.914258152E-1,-3.665804386E0,1.056790161E1
1.790968152E0,1.890329868E-1,-2.858824968E0,9.918250084E0
1.793205274E0,6.059823632E-1,-1.772483349E0,9.452845573E0
1.795443006E0,1.238883972E0,-7.118647099E-1,9.556933403E0
1.797678113E0,1.122832060E0,-1.052841991E-1,1.018445110E1
1.799915235E0,6.448656917E-1,2.297109663E-1,1.062293625E1
1.802152479E0,-6.460621208E-2,-1.136590764E-1,1.069352436E1
1.804388623E0,-3.547359705E-1,-1.252642632E0,1.073539925E1
1.806623060E0,4.187439755E-2,-2.097907305E0,1.120319557E1
1.808853895E0,2.811566554E-2,-2.325823545E0,1.189472103E1
1.811098523E0,-6.167500615E-1,-2.695514679E0,1.219920826E1
1.813336072E0,-9.475577474E-1,-2.291127682E0,1.176670551E1
1.815573316E0,-8.231309652E-1,-7.585247755E-1,1.087837029E1
1.817808484E0,-6.340979934E-1,-3.535395563E-1,9.577272415E0
1.820045606E0,7.178468257E-2,-6.705885530E-1,8.740383148E0
1.822281934E0,6.957131624E-1,-5.994020700E-1,8.798408508E0
1.824518262E0,2.715853751E-1,-1.372882009E0,8.895915985E0
1.826751844E0,3.631108403E-1,-1.977069736E0,8.940781593E0
1.828979871E0,7.734799385E-1,-1.763510346E0,8.958727837E0
1.831229444E0,4.953143001E-1,-1.806581140E0,8.865407944E0
1.833465039E0,4.845465720E-1,-1.185045362E0,8.955139160E0
1.835705091E0,5.222335458E-1,-1.908276081E-1,9.005986214E0
1.837939100E0,-1.866401732E-1,-4.558327198E-1,8.551948547E0
1.840174939E0,-3.044866920E-1,-1.518245935E0,8.161319733E0
1.842411451E0,-2.321037948E-1,-2.639881611E0,8.459824562E0
1.844647840E0,-7.238288224E-2,-3.138186932E0,9.157930374E0
1.846885571E0,-6.101697683E-2,-3.451646566E0,9.554540634E0
1.849124219E0,-2.937189937E-1,-3.520440340E0,9.786046028E0
1.851358411E0,-5.778666735E-1,-2.895315409E0,9.901499748E0
1.853595349E0,-1.001994491E0,-2.317448616E0,9.486943245E0
1.855831800E0,-1.222134113E0,-1.566102386E0,9.011369705E0
1.858068250E0,-6.723831892E-1,-6.843472719E-1,8.943174362E0
1.860301892E0,-5.521438122E-1,-5.252245665E-1,9.211171150E0
1.862529737E0,-1.229312658E0,-7.746763229E-1,9.562915802E0
1.864778516E0,-1.371685624E0,-1.552941918E0,9.772886276E0
1.867016065E0,-1.113260746E0,-2.490330219E0,9.915258408E0
1.869254469E0,-5.802595019E-1,-2.962912560E0,1.009711361E1
1.871488172E0,-3.906283081E-1,-2.368894339E0,1.021256733E1
1.873725477E0,-5.455635786E-1,-1.747358680E0,9.762118340E0
1.875961561E0,-4.283152521E-1,-1.918445587E0,9.162117958E0
1.878198194E0,4.025924206E-1,-1.065404296E0,9.206983566E0
1.880434522E0,8.063812256E-1,1.848455518E-1,9.537193298E0
1.882671765E0,6.723831892E-1,-2.285145670E-1,9.379266739E0
1.884909070E0,9.601200819E-1,-9.308080077E-1,9.273384094E0
1.887144727E0,1.034297585E0,-1.163509965E0,9.727422714E0
1.889381726E0,6.137589812E-1,-1.560718536E0,1.009172916E1
1.891618848E0,4.749752879E-1,-2.389233351E0,9.805787086E0
1.893854932E0,6.167500615E-1,-3.351148129E0,9.484550476E0
1.896091504E0,8.656035662E-1,-3.044268608E0,9.471988678E0
1.898327589E0,1.130608678E0,-1.698904037E0,9.324232101E0
1.900563184E0,2.398804724E-1,-1.027119160E0,8.670990944E0
1.902802686E0,-4.450650215E-1,-5.288137794E-1,7.734200954E0
1.905038221E0,-3.547359705E-1,1.130608693E-1,7.166503906E0
1.907275525E0,-6.358926296E-1,6.580262631E-2,6.944569588E0
1.909512098E0,-1.365105271E0,-1.776670814E-1,7.205387115E0
1.911748182E0,-1.721635938E0,-6.340979934E-1,7.817949772E0
1.913984815E0,-1.747358680E0,-1.378864050E0,8.501100540E0
1.916221448E0,-1.541576028E0,-2.522035122E0,8.871988297E0
1.918458692E0,-9.726824164E-1,-3.143570662E0,9.092725754E0
1.920696790E0,-5.371887088E-1,-3.532404423E0,9.054440498E0
1.922934705E0,-4.624129832E-1,-3.969094515E0,9.093922615E0
1.925168286E0,-2.285145670E-1,-2.774477959E0,9.599406242E0
1.927405408E0,1.136590764E-1,-1.485344648E0,9.886545181E0
1.929640698E0,7.597211748E-2,-1.612164259E0,9.586245537E0
1.931878125E0,7.286145091E-1,-1.122233868E0,9.095118523E0
1.934114637E0,1.166501045E0,-8.069794178E-1,8.798408508E0
1.936351514E0,6.508477330E-1,-1.990230203E0,8.848059654E0
1.938586194E0,5.371887088E-1,-2.796013355E0,9.654440880E0
1.940812330E0,3.308077157E-1,-3.015554667E0,1.110209846E1
1.943061475E0,-3.613162339E-1,-3.047259569E0,1.195932770E1
1.945298658E0,-3.260220885E-1,-2.386840582E0,1.171047401E1
1.947537672E0,1.172483116E-1,-1.446461320E0,1.071625614E1
1.949771436E0,6.167500615E-1,-5.186443329E-1,9.207581520E0
1.952007764E0,1.064806104E0,4.737788737E-1,8.280363083E0
1.954245069E0,3.816552162E-1,5.276173949E-1,8.130811691E0
1.956482312E0,-5.653043389E-1,-2.955136001E-1,8.237890244E0
1.958717969E0,-4.953143001E-1,-5.706881881E-1,8.592027664E0
1.960954969E0,-6.095715761E-1,-1.354337573E0,8.868997574E0
1.963192090E0,-1.127617717E0,-2.925823927E0,9.090931892E0
1.965428113E0,-8.458628058E-1,-3.315854073E0,9.751948357E0
1.967664441E0,-1.149153113E0,-3.396013498E0,1.034536839E1
1.969901014E0,-1.519442320E0,-3.227319479E0,1.028016472E1
1.972138135E0,-1.072582722E0,-2.612364054E0,9.362516403E0
1.974375867E0,-1.328016520E-1,-2.185843468E0,8.221140862E0
1.976607435E0,1.080359459E0,-1.507478237E0,7.544569969E0
1.978833936E0,1.590628862E0,-1.103091240E0,7.386643410E0
1.981085279E0,9.696913958E-1,-1.043270707E0,7.843074322E0
1.983321241E0,1.004985496E-1,-1.402194023E0,8.632107735E0
1.985561353E0,-3.523431420E-1,-1.768295884E0,9.525228500E0
1.987794324E0,-3.846462369E-1,-1.722234130E0,1.003011417E1
1.990031446E0,-1.674975827E-2,-1.998605132E0,9.700503349E0
1.992268995E0,5.198407173E-1,-2.191825628E0,9.329017639E0
1.994504590E0,1.031306505E0,-1.846062660E0,9.461818695E0
1.996738721E0,5.449653864E-1,-1.472782373E0,9.905089378E0
1.998966932E0,-6.053841114E-1,-9.786644578E-1,1.027478027E1
2.001214490E0,-1.650449395E0,-1.053440213E0,1.014616585E1
2.003451001E0,-1.645065546E0,-1.209571838E0,9.822537422E0
2.005690320E0,-7.345965505E-1,-1.185045362E0,9.806983948E0
2.007924756E0,-2.207378894E-1,-1.610369682E0,1.008873844E1
2.010162305E0,-6.460621208E-2,-1.953739643E0,1.038185883E1
2.012397962E0,-1.609173268E-1,-2.282154560E0,1.040518951E1
2.014634961E0,-2.261217386E-1,-2.633899450E0,1.017607689E1
2.016871900E0,4.426721931E-1,-2.666202545E0,9.743574142E0
2.019107557E0,1.120439172E0,-2.665604353E0,9.464211464E0
2.021344312E0,1.055832982E0,-2.454437733E0,9.510871887E0
2.023580701E0,2.997010350E-1,-2.295315027E0,9.689735413E0
2.025818311E0,-7.381857634E-1,-2.070389748E0,9.927821159E0
2.028052442E0,-1.277767301E0,-1.436890006E0,1.018385315E1
2.030275586E0,-1.532602906E0,-6.047859192E-1,1.004626560E1
2.032527967E0,-1.608574986E0,-1.063011408E0,9.116654396E0
2.034764844E0,-8.847461939E-1,-2.023131609E0,8.547760963E0
2.037004956E0,1.112662554E-1,-2.060220242E0,9.110074043E0
2.039237500E0,4.767699242E-1,-1.977667928E0,9.680762291E0
2.041474256E0,1.818545163E-1,-2.197807550E0,9.650253296E0
2.043711133E0,-3.110669553E-1,-1.911865234E0,9.473184586E0
2.045948926E0,-5.581258535E-1,-1.619940877E0,9.132207870E0
2.048181287E0,1.567298770E-1,-1.738983870E0,8.828917503E0
2.050409619E0,1.057029366E0,-1.691127419E0,8.908478737E0
2.052658338E0,7.286145091E-1,-2.022533417E0,9.244669914E0
2.054894483E0,-6.735795736E-1,-2.309672117E0,9.751948357E0
2.057133924E0,-1.665404558E0,-2.511267424E0,1.002951622E1
2.059367383E0,-1.764108539E0,-2.781656265E0,9.924231529E0
2.061604627E0,-6.640082598E-1,-2.720639229E0,9.657432556E0
2.063838941E0,4.648058116E-1,-2.602792740E0,9.448060036E0
2.066065625E0,1.152144074E0,-2.469393015E0,9.401998520E0
2.068314649E0,1.110269666E0,-2.636890650E0,9.601799011E0
2.070551893E0,2.739782035E-1,-2.403590441E0,1.037109184E1
2.072790540E0,-8.147560954E-1,-1.787438512E0,1.103749275E1
2.075024305E0,-1.518844128E0,-2.230110645E0,1.075513935E1
2.077260572E0,-7.627122402E-1,-2.426920414E0,1.051944637E1
2.079494886E0,2.225325108E-1,-1.829911113E0,1.063669491E1
2.081720838E0,1.058823988E-1,-1.693520188E0,1.049731255E1
2.083959241E0,-1.585244983E-1,-1.342971683E0,1.001755238E1
2.086208203E0,-3.266202807E-1,-9.984052777E-1,9.457631111E0
2.088444837E0,-1.680957973E-1,-7.986045480E-1,9.191430092E0
2.090671888E0,6.191428304E-1,-3.655036688E-1,9.145368576E0
2.092917798E0,7.034898400E-1,-9.206385016E-1,9.028120041E0
2.095154004E0,1.932204217E-1,-2.324627161E0,9.206983566E0
2.097394300E0,1.369891018E-1,-2.829512835E0,9.932008743E0
2.099628492E0,-5.228317380E-1,-3.287140131E0,1.070907784E1
2.101864148E0,-1.073180914E0,-3.801596880E0,1.090947628E1
2.104100904E0,-7.064808607E-1,-3.748356581E0,1.068395329E1
2.106338026E0,1.465603858E-1,-2.813959360E0,1.053799057E1
2.108571118E0,4.181457460E-1,-1.744965911E0,1.026161957E1
2.110798780E0,-1.471585929E-1,-1.101894855E0,9.602396965E0
2.113047315E0,-7.399803996E-1,-6.173482537E-1,9.104690552E0
2.115284436E0,-7.818548083E-1,-9.320043921E-1,9.004789352E0
2.117525159E0,-3.182454109E-1,-1.042074203E0,9.567103386E0
2.119757520E0,2.925225794E-1,-1.268794179E0,1.004506969E1
2.121994580E0,5.186443329E-1,-2.544168711E0,1.006839943E1
2.124231519E0,9.864411354E-1,-2.906083107E0,1.017368412E1
2.126464551E0,1.160519004E0,-2.373680115E0,1.038903809E1
2.128689527E0,6.699903607E-1,-1.896910191E0,1.022154045E1
2.130928663E0,5.856433511E-1,-1.174875975E0,9.485149384E0
2.133177991E0,5.856433511E-1,-1.025324464E0,9.193822861E0
2.135418348E0,6.221338734E-2,-8.428717852E-1,9.699306488E0
2.137650831E0,-3.840480447E-1,-6.275177598E-1,1.011446095E1
2.139875867E0,-1.095912814E0,-1.439880967E0,1.024726295E1
2.142124830E0,-1.710269928E0,-2.478366137E0,1.031007481E1
2.144360730E0,-1.794018745E0,-2.860619545E0,1.049611664E1
2.146597791E0,-1.453041553E0,-3.273979664E0,1.088614655E1
2.148820874E0,-3.786641955E-1,-3.463012457E0,1.094417286E1
2.151059033E0,6.897311211E-1,-2.555534601E0,1.082812023E1
2.153308484E0,1.064207911E0,-1.292722464E0,1.055773163E1
2.155546399E0,6.442674994E-1,-8.291130662E-1,9.990633011E0
2.157784192E0,4.390829504E-1,-6.185446382E-1,9.649655342E0
2.160018262E0,8.458628058E-1,-8.985049129E-1,9.820742607E0
2.162254346E0,1.339980721E0,-1.228714466E0,1.038365364E1
2.164490613E0,1.058824062E0,-1.556531072E0,1.075394344E1
2.166724195E0,-5.324030295E-2,-2.290529490E0,1.075454140E1
2.168952283E0,-8.913264275E-1,-2.436491728E0,1.099501991E1
2.171201795E0,-1.211964726E0,-2.040479422E0,1.112483025E1
2.173437146E0,-1.118644595E0,-1.351944804E0,1.087178993E1
2.175677198E0,-1.048654556E0,-9.421738982E-1,1.000857925E1
2.177911268E0,-6.071787477E-1,-1.719243050E0,9.107681274E0
2.180147413E0,5.982056633E-2,-2.108675003E0,9.458230019E0
2.182383924E0,-3.888336942E-2,-1.810768485E0,1.038664532E1
2.184620313E0,-8.458628058E-1,-2.187039852E0,1.060857964E1
2.186857678E0,-1.237687469E0,-2.788236618E0,1.053918743E1
2.189095350E0,-9.421738982E-1,-2.727219582E0,1.088495064E1
2.191328382E0,-6.179464459E-1,-2.346162558E0,1.118345451E1
2.193555981E0,-1.411765367E-1,-1.667797327E0,1.085743237E1
2.195792493E0,-7.477571070E-2,-1.129412293E0,1.009890842E1
2.198040418E0,-2.231307179E-1,-1.006181955E0,9.730413437E0
2.200279187E0,-9.870393574E-2,-5.784648657E-1,9.892526627E0
2.202516859E0,-3.571287692E-1,-3.200400174E-1,9.728020668E0
2.204751050E0,-4.097708762E-1,-7.507480979E-1,8.936594009E0
2.206988782E0,7.040880919E-1,-1.109671474E0,8.551349640E0
2.209224012E0,1.490130305E0,-1.153340459E0,9.083154678E0
2.211460828E0,9.876375198E-1,-1.794018745E0,9.647262573E0
2.213697828E0,5.180460811E-1,-1.969891191E0,9.938589096E0
2.215933973E0,2.213360965E-1,-1.390828133E0,9.787242889E0
2.218170606E0,1.369891018E-1,-1.167099237E0,9.328418732E0
2.220407117E0,6.161518097E-1,-6.281159520E-1,9.074181557E0
2.222643933E0,5.030909777E-1,-9.032905698E-1,8.959325790E0
2.224881421E0,-1.962114573E-1,-1.934597135E0,8.859425545E0
2.227116834E0,8.733802289E-2,-1.748555183E0,9.080761909E0
2.229354383E0,-1.639083475E-1,-1.779661894E0,9.302696228E0
2.231588087E0,-9.236295223E-1,-2.992224693E0,9.245268822E0
2.233811780E0,-6.616154313E-1,-3.303291559E0,9.463015556E0
2.236063916E0,-2.871387303E-1,-3.230908871E0,1.010548782E1
2.238300306E0,-3.098705411E-1,-2.643470764E0,1.043330479E1
2.240541394E0,-4.815555513E-1,-1.424925923E0,1.013360405E1
2.242774793E0,-1.074975610E0,-9.355936646E-1,9.726823807E0
2.245010389E0,-8.009973764E-1,-6.993024349E-1,9.419346809E0
2.247247510E0,-4.725824669E-2,-2.327020019E-1,9.463613510E0
2.249484815E0,2.512463629E-1,-9.870393574E-2,9.541978836E0
2.251720594E0,2.829512656E-1,-7.004988194E-1,9.305088997E0
2.253956922E0,-5.682953820E-2,-1.618744493E0,9.360722542E0
2.256193433E0,-4.552344978E-1,-2.060220242E0,9.858428955E0
2.258430555E0,-4.534398913E-1,-2.429911375E0,1.015932655E1
2.260668164E0,-4.271188378E-1,-2.728415966E0,1.058465099E1
2.262903699E0,-1.088734269E-1,-2.051247120E0,1.091067314E1
2.265140515E0,2.691925503E-2,-1.727019787E0,1.072104168E1
2.267377637E0,2.153540403E-2,-1.743171334E0,1.013420200E1
2.269613965E0,6.789634228E-1,-1.721037745E0,9.443872452E0
2.271847547E0,1.341177106E0,-1.970489502E0,9.431310654E0
2.274074903E0,1.814357758E0,-1.487139225E0,9.892526627E0
2.276323926E0,1.400399446E0,-1.294517040E0,9.893125534E0
2.278561658E0,1.381855011E-1,-1.698305845E0,9.410373688E0
2.280800062E0,-2.913261652E-1,-1.795215130E0,9.025128365E0
2.283034192E0,-3.224328458E-1,-1.485344648E0,9.243474007E0
2.285271314E0,-5.581258535E-1,-8.033902049E-1,9.426525116E0
2.287507032E0,-8.709874153E-1,-6.137589812E-1,8.755337715E0
2.289743726E0,-1.488335729E0,-7.884350419E-1,8.321041107E0
2.291979810E0,-1.452443361E0,-6.077769399E-1,8.344968796E0
2.294217237E0,-1.310070395E0,-1.002592683E0,8.447261810E0
2.296454664E0,-1.244866014E0,-1.362712502E0,8.596215248E0
2.298690137E0,-1.104885817E0,-1.585245013E0,8.645268440E0
2.300927259E0,-1.460219979E0,-2.093719721E0,9.058030128E0
2.303164686E0,-1.407577872E0,-1.715055585E0,9.729815483E0
2.305400342E0,-1.248455167E0,-1.292124271E0,9.806983948E0
2.307636914E0,-1.169492126E0,-1.863410592E0,9.078967094E0
2.309873365E0,-1.633101404E-1,-2.191227436E0,8.431110382E0
2.312110547E0,9.032905698E-1,-2.218146563E0,8.674580574E0
2.314348035E0,1.184447169E0,-2.297708035E0,9.330213547E0
2.316580396E0,1.222134113E0,-2.188834429E0,9.544969559E0
2.318808484E0,1.226321578E0,-1.925624013E0,9.511469841E0
2.321057508E0,1.477568030E0,-1.871785522E0,9.351749420E0
2.323293653E0,1.695913076E0,-1.588834286E0,9.543772697E0
2.325533216E0,1.608574986E0,-1.296311617E0,9.628120422E0
2.327766797E0,1.173081279E0,-2.110469580E0,9.244071960E0
2.330003858E0,8.309076428E-1,-2.243869543E0,9.298508644E0
2.332241346E0,3.559323549E-1,-1.459023595E0,9.583852768E0
2.334476758E0,-7.818548083E-1,-1.755733609E0,9.326025963E0
2.336711072E0,-1.389631748E0,-1.922034740E0,8.934201241E0
2.338939100E0,-1.573280931E0,-1.373480201E0,8.922237396E0
2.341185559E0,-1.815554142E0,-5.569294691E-1,8.923434258E0
2.343417798E0,-2.128415823E0,1.914258115E-2,8.380263329E0
2.345662793E0,-2.663211584E0,-3.822534084E-1,8.014161110E0
2.347897168E0,-2.474776745E0,-4.103690982E-1,8.340183258E0
2.350136121E0,-2.077568293E0,-9.296116233E-1,8.673383713E0
2.352370313E0,-1.911865234E0,-1.937588096E0,8.919844627E0
2.354607068E0,-1.440479279E0,-2.508874655E0,8.830113411E0
2.356844007E0,-5.850451589E-1,-2.854637384E0,8.452047348E0
2.359076673E0,8.267202377E-1,-2.731407166E0,8.269595146E0
2.361305249E0,1.816750646E0,-2.243869543E0,8.177471161E0
2.363555860E0,1.667797327E0,-1.515853167E0,8.360522270E0
2.365790601E0,1.348355532E0,-6.795616150E-1,8.504091263E0
2.368028516E0,9.984052777E-1,-7.830511928E-1,8.315058708E0
2.370252699E0,1.190429211E0,-1.445863128E0,8.279764175E0
2.372500379E0,1.887338877E0,-2.428714991E0,8.593224525E0
2.374737379E0,1.990230203E0,-3.420539856E0,9.559326172E0
2.376975842E0,1.225125194E0,-3.461217880E0,1.051525879E1
2.379210157E0,8.135596663E-2,-2.697907448E0,1.053200912E1
2.381443738E0,-9.254241586E-1,-1.908276081E0,9.658628464E0
2.383671887E0,-8.811569214E-1,-1.081555843E0,8.584849358E0
2.385921216E0,1.118644550E-1,-1.256231871E-2,7.929215908E0
2.388153333E0,5.718846321E-1,3.110669553E-1,7.884948730E0
2.390384473E0,-2.201396823E-1,-3.337987661E-1,8.164909363E0
2.392630750E0,-9.355936646E-1,-7.609176040E-1,8.760123253E0
2.394866956E0,-1.192223907E0,-1.545165181E0,9.526425362E0
2.397106458E0,-1.293918848E0,-2.377867460E0,9.937392235E0
2.399339734E0,-8.787640929E-1,-2.894717216E0,9.780064583E0
2.401576795E0,-6.652047038E-1,-3.848855257E0,9.568898201E0
2.403814283E0,-4.516452849E-1,-3.862613916E0,9.766305923E0
2.406049756E0,-3.655036688E-1,-2.472982168E0,9.879366875E0
2.408287061E0,-6.849454641E-1,-1.661815286E0,9.388239861E0
2.410524122E0,-8.165507317E-1,-1.484746456E0,8.752944946E0
2.412760206E0,-4.211367965E-1,-5.922235847E-1,8.812167168E0
2.414996473E0,-3.732803464E-1,-1.680957973E-1,9.002396584E0
2.417232984E0,-5.000999570E-1,-1.064207911E0,8.850452423E0
2.419469922E0,-4.444667995E-1,-1.773679733E0,9.028120041E0
2.421707959E0,-1.154536903E-1,-1.986641049E0,9.437292099E0
2.423943311E0,4.923232496E-1,-2.109871387E0,9.342776299E0
2.426180432E0,7.806583643E-1,-2.288734913E0,8.840283394E0
2.428417310E0,1.426122308E0,-1.612762451E0,8.416155815E0
2.430653211E0,1.626521230E0,-5.760720372E-1,8.058428764E0
2.432889783E0,1.386042476E0,-5.796613097E-1,7.503293514E0
2.435126295E0,1.137188911E0,-9.625129104E-1,7.434499741E0
2.437359388E0,5.910272002E-1,-1.612762451E0,8.021938324E0
2.439582593E0,-1.328016520E-1,-2.236690998E0,8.788837433E0
2.441824353E0,-3.834498227E-1,-2.355135679E0,9.382855415E0
2.444073438E0,-1.205384374E0,-2.448455811E0,9.504291534E0
2.446314283E0,-2.352742910E0,-2.760120869E0,9.265607834E0
2.448549573E0,-2.521436930E0,-2.335394859E0,8.948558807E0
2.450783216E0,-2.282154560E0,-1.977667928E0,8.425128937E0
2.453019971E0,-1.749751568E0,-2.433500528E0,8.102097511E0
2.455256787E0,-9.260223508E-1,-1.931606054E0,8.485547066E0
2.457494336E0,-6.251249313E-1,-1.388435364E0,8.935398102E0
2.459729871E0,-7.405785918E-1,-1.773679733E0,8.954540253E0
2.461966992E0,-1.154536903E-1,-1.917249203E0,8.960522652E0
2.464203992E0,2.111666054E-1,-1.302293777E0,9.376873970E0
2.466439832E0,-3.577269912E-1,-7.639086246E-1,9.585647583E0
2.468676343E0,-9.559326172E-1,-9.158528447E-1,9.217751503E0
2.470912733E0,-9.194421172E-1,-1.436890006E0,9.114261627E0
2.473150098E0,-5.258227587E-1,-2.196012974E0,9.471988678E0
2.475387647E0,3.954139352E-1,-1.933998942E0,9.803992271E0
2.477623243E0,1.147358418E0,-1.771286964E0,9.471988678E0
2.479857068E0,9.726824164E-1,-2.621935368E0,8.847461700E0
2.482085340E0,7.130611539E-1,-2.255235434E0,8.982656479E0
2.484333143E0,4.025924206E-1,-1.682752490E0,9.298508644E0
2.486567457E0,-7.357929647E-2,-1.971087694E0,9.017950058E0
2.488800000E0,-8.374879509E-2,-1.585843205E0,8.606983185E0
2.491043469E0,-1.633101404E-1,-1.474576950E0,8.548956871E0
2.493281202E0,-6.592226624E-1,-1.941177368E0,8.635697365E0
2.495518811E0,-7.609176040E-1,-1.906481385E0,8.792427063E0
2.497753308E0,-7.058826685E-1,-1.636092424E0,9.020941734E0
2.499990308E0,-8.548358679E-1,-1.724028707E0,8.891130447E0
2.502226453E0,-9.924231768E-1,-2.098505497E0,8.656634331E0
2.504463086E0,-8.548358679E-1,-2.346162558E0,9.020941734E0
2.506696729E0,-6.532405615E-1,-2.192423820E0,9.199206352E0
2.508921521E0,3.589233849E-3,-1.717448473E0,8.813364029E0
2.511157605E0,7.214360237E-1,-1.875374794E0,8.609973907E0
2.513398816E0,7.178468108E-1,-2.364108801E0,8.820542336E0
2.515649549E0,6.077769399E-1,-1.814357758E0,9.209974289E0
2.517887159E0,5.587241054E-1,-9.571290612E-1,9.046066284E0
2.520122511E0,0.000000000E0,-1.237089276E0,8.349754333E0
2.522356336E0,-2.386840582E-1,-1.505683661E0,8.324031830E0
2.524592725E0,-1.184447184E-1,-1.439282775E0,9.007183075E0
2.526826978E0,-2.937189937E-1,-1.749153376E0,9.420542717E0
2.529055311E0,-3.116651475E-1,-1.663011789E0,9.387042999E0
2.531302991E0,-4.624129832E-1,-1.808973908E0,9.409774780E0
2.533540174E0,-6.478567123E-1,-2.237887383E0,9.671191216E0
2.535780041E0,8.554340899E-2,-2.426920414E0,9.882955551E0
2.538013074E0,8.793623447E-1,-2.563311338E0,9.833304405E0
2.540249402E0,1.363310695E0,-2.764906645E0,9.466604233E0
2.542486219E0,1.472782373E0,-2.607578516E0,9.247661591E0
2.544723035E0,1.099501967E0,-2.243271112E0,9.267401695E0
2.546960706E0,1.525424421E-1,-2.453241348E0,9.211769104E0
2.549196363E0,-2.458625287E-1,-1.448854089E0,9.382855415E0
2.551432996E0,-4.749752879E-1,-1.028913736E0,9.394221306E0
2.553670057E0,-8.045865893E-1,-2.319841623E0,9.345767021E0
2.555906080E0,-3.038884699E-1,-2.148754835E0,9.993623734E0
2.558142835E0,-8.608179688E-1,-1.937588096E0,1.047936630E1
2.560379651E0,-1.485344648E0,-2.317448616E0,9.997213364E0
2.562616651E0,-1.091725349E0,-1.966900229E0,9.385248184E0
2.564853956E0,-6.652047038E-1,-1.977667928E0,9.346364975E0
2.567089490E0,5.982056609E-4,-1.769492388E0,9.723833084E0
2.569326551E0,2.356930375E-1,-7.878368497E-1,9.643673897E0
2.571563611E0,-6.658028960E-1,-8.380861282E-1,9.053244591E0
2.573799451E0,-1.131206870E0,-2.049452543E0,8.774480820E0
2.576036023E0,-4.462614357E-1,-2.490330219E0,9.768698692E0
2.578269666E0,3.236292601E-1,-2.693720102E0,1.083948612E1
2.580495068E0,7.016952634E-1,-3.071786165E0,1.076291656E1
2.582735547E0,6.969096065E-1,-2.964707375E0,1.035733318E1
2.584982862E0,2.632105052E-1,-2.574677229E0,1.017607689E1
2.587219861E0,1.381855011E-1,-1.385444283E0,9.996614456E0
2.589444898E0,6.819544733E-2,-9.367900491E-1,9.322437286E0
2.591680860E0,2.279163599E-1,-1.113260746E0,8.809176445E0
2.593929639E0,4.707878530E-1,-7.262216806E-1,9.120841980E0
2.596169142E0,-4.366901144E-2,-6.155536175E-1,9.521639824E0
2.598406019E0,-7.280163169E-1,-1.326221943E0,9.349356651E0
2.600640455E0,-1.307677627E0,-2.737389088E0,9.227322578E0
2.602875806E0,-1.464407444E0,-3.250051260E0,9.927223206E0
2.605112928E0,-1.246062398E0,-2.419143677E0,1.044287586E1
2.607349988E0,-1.427916884E0,-2.035693884E0,9.892526627E0
2.609586133E0,-1.333998680E0,-1.980658889E0,9.068199158E0
2.611822706E0,-5.180460811E-1,-1.657029629E0,8.855836868E0
2.614059278E0,1.872383654E-1,-1.156929731E0,9.028120041E0
2.616296338E0,8.015955687E-1,-8.213363886E-1,8.880961418E0
2.618533826E0,8.691928387E-1,-1.199402332E0,8.720044136E0
2.620769178E0,6.137589812E-1,-2.067996979E0,9.162715912E0
2.623006238E0,5.431707501E-1,-2.133799553E0,1.010608673E1
2.625240369E0,1.064806059E-1,-2.215753794E0,1.063190937E1
2.627464856E0,-4.701896608E-1,-3.200400352E0,1.029930687E1
2.629702100E0,-1.962114573E-1,-3.236890793E0,1.012044334E1
2.631942823E0,2.494517565E-1,-2.719442844E0,1.045244789E1
2.634192579E0,3.828516304E-1,-2.472383976E0,1.037228775E1
2.636430006E0,7.088736892E-1,-2.106282234E0,9.812367439E0
2.638664929E0,4.869394004E-1,-1.934597135E0,9.709476471E0
2.640899549E0,4.187439755E-2,-1.743171334E0,1.001515961E1
2.643136609E0,-3.696911037E-1,-1.292722464E0,1.013958549E1
2.645372754E0,-7.274180651E-1,-1.324427366E0,9.873982430E0
2.647606336E0,-9.044869542E-1,-1.986042738E0,9.849455833E0
2.649833936E0,-7.938188910E-1,-2.080559254E0,1.022752190E1
2.652082959E0,-8.512466550E-1,-2.046461582E0,1.033639526E1
2.654320386E0,-9.649057388E-1,-2.148156643E0,9.925428391E0
2.656559827E0,-7.842476368E-1,-1.828116536E0,9.488140106E0
2.658797986E0,-3.906283081E-1,-1.456630826E0,9.448060036E0
2.661029920E0,-1.513460279E-1,-1.360917926E0,9.678967476E0
2.663266126E0,-1.405783296E-1,-1.269990563E0,9.693324089E0
2.665501355E0,-6.999006122E-2,-1.442273855E0,9.527023315E0
2.667739210E0,-8.255238086E-2,-2.246262312E0,9.681360245E0
2.669976270E0,1.692921966E-1,-2.071586132E0,1.025025368E1
2.672213758E0,2.644068897E-1,-1.629512191E0,1.054158020E1
2.674447034E0,-4.977070987E-1,-2.609971285E0,1.002114105E1
2.676674878E0,-1.944168359E-1,-2.684746981E0,9.675976753E0
2.678911207E0,6.005984545E-1,-1.889731646E0,9.977472305E0
2.681159131E0,5.162515044E-1,-1.980658889E0,1.015813065E1
2.683397962E0,4.025924206E-1,-1.529611826E0,1.020419216E1
2.685635266E0,1.573280841E-1,-1.398006678E0,1.053081226E1
2.687869641E0,-4.283152521E-1,-2.261815548E0,1.093699455E1
2.690107068E0,-8.374879137E-3,-2.226521492E0,1.121216869E1
2.692342542E0,3.349951804E-1,-1.992623091E0,1.122473145E1
2.694579724E0,1.914258152E-1,-2.317448616E0,1.064207840E1
2.696816480E0,4.103690982E-1,-1.979462504E0,1.022393322E1
2.699052442E0,2.291127741E-1,-1.399203062E0,1.054098225E1
2.701286145E0,-4.773681164E-1,-1.249651670E0,1.050568771E1
2.703513624E0,-7.381857634E-1,-1.333998680E0,1.000259686E1
2.705762952E0,-7.968099117E-1,-1.367498159E0,1.007856941E1
2.707997510E0,-1.137787223E0,-1.837687731E0,1.054337502E1
2.710227247E0,-1.130608678E0,-2.065006018E0,1.103509998E1
2.712472547E0,-7.668996453E-1,-2.382055044E0,1.115294647E1
2.714709791E0,-4.917250574E-1,-2.983251572E0,1.096152020E1
2.716948560E0,1.896311939E-1,-2.610569477E0,1.096690464E1
2.719182325E0,3.050848842E-1,-2.234896421E0,1.095793152E1
2.721415784E0,1.639083475E-1,-2.207378864E0,1.064148045E1
2.723643750E0,3.744767308E-1,-2.069791555E0,1.032383347E1
2.725893506E0,6.107679605E-1,-1.845464468E0,1.057866859E1
2.728126111E0,7.118647099E-1,-1.298106313E0,1.087418270E1
2.730357252E0,4.325026870E-1,-5.898307562E-1,1.059840965E1
2.732603162E0,-3.661018610E-1,-8.327022791E-1,9.914660454E0
2.734839002E0,-5.186443329E-1,-1.570289850E0,9.695118904E0
2.737078503E0,4.462614357E-1,-1.095314622E0,1.032323551E1
2.739311902E0,7.238288522E-1,-1.180259824E0,1.017787075E1
2.741549268E0,5.102694035E-1,-2.229512453E0,9.223732948E0
2.743786756E0,1.046261668E0,-2.185843468E0,9.438488960E0
2.746022229E0,5.491527915E-1,-2.321038008E0,1.020658493E1
2.748259473E0,-2.213360965E-1,-2.228316069E0,1.025683403E1
2.750496473E0,-2.482553422E-1,-9.254241586E-1,1.000139999E1
2.752729321E0,-7.998009920E-1,-9.056833982E-1,9.543772697E0
2.754956617E0,-6.293123364E-1,-9.960124493E-1,8.953942299E0
2.757205213E0,2.841476798E-1,-2.482553422E-1,8.708079338E0
2.759442578E0,-3.798605800E-1,-1.571486235E0,8.523234367E0
2.761683118E0,-8.979067206E-1,-3.090928555E0,8.812167168E0
2.763915479E0,-2.063809484E-1,-2.054238319E0,9.903892517E0
2.766152539E0,-6.717849374E-1,-2.230708838E0,1.028136063E1
2.768389783E0,-1.165304661E0,-3.234498024E0,9.692128181E0
2.770625623E0,-5.168496966E-1,-2.317448616E0,9.911071777E0
2.772861951E0,-4.450650215E-1,-1.350748420E0,1.051047325E1
2.775098524E0,-2.859423161E-1,-1.112662554E0,1.018265629E1
2.777335828E0,1.256231815E-1,-3.708875179E-1,9.794421196E0
2.779573255E0,-2.237289101E-1,-4.079762697E-1,9.690931320E0
2.781809034E0,1.495514158E-2,-1.280758262E0,9.418149948E0
2.784045789E0,1.482353687E0,-1.418345571E0,9.608379364E0
2.786282911E0,2.011167526E0,-2.026122570E0,1.002413273E1
2.788518934E0,1.117448211E0,-2.836092949E0,1.015573788E1
2.790755567E0,4.893322289E-1,-2.072184324E0,1.040159988E1
2.792992078E0,-3.720839322E-1,-1.907079697E0,1.057926750E1
2.795224744E0,-1.071386337E0,-1.867598057E0,1.063011456E1
2.797449842E0,-8.446664214E-1,-6.999006271E-1,1.069651508E1
2.799702100E0,-7.070791125E-1,-6.149554253E-1,1.046919727E1
2.801939405E0,-3.882354796E-1,-1.368096352E0,9.929615974E0
2.804180310E0,3.834498227E-1,-1.025324464E0,9.907482147E0
2.806412061E0,3.170489892E-2,-1.313659668E0,1.023350430E1
2.808648755E0,-4.761717021E-1,-2.056032896E0,1.008275604E1
2.810885206E0,3.343969584E-1,-1.671386600E0,1.012762165E1
2.813122571E0,1.692921966E-1,-1.933998942E0,1.047936630E1
2.815360059E0,-6.717849374E-1,-2.461616278E0,1.046740246E1
2.817595594E0,-5.491527915E-1,-1.593021631E0,1.046261692E1
2.819832166E0,-7.399803996E-1,-1.929213285E0,1.038963604E1
2.822069410E0,-5.150550604E-1,-2.093719721E0,1.013958549E1
2.824305250E0,4.444667995E-1,-1.098305583E0,9.946365356E0
2.826539197E0,4.989035130E-1,-1.461416483E0,9.694520950E0
2.828767530E0,5.515456200E-1,-1.594816327E0,9.394820213E0
2.831015821E0,4.229314029E-1,-4.414757788E-1,9.653842926E0
2.833253186E0,-5.922235847E-1,-2.267199457E-1,9.930811882E0
2.835491712E0,-1.244866014E0,-8.889335990E-1,9.453444481E0
2.837725721E0,-4.666004181E-1,-4.791627228E-1,9.321838379E0
2.839959851E0,-1.477568001E-1,-6.586244106E-1,9.892526627E0
2.842186841E0,-7.250252366E-1,-1.750349760E0,1.001755238E1
2.844435193E0,-3.936193287E-1,-2.037488461E0,9.982855797E0
2.846668836E0,1.034895778E-1,-2.615953445E0,1.032263660E1
2.848900098E0,7.878368497E-1,-2.526820660E0,1.054816055E1
2.851146436E0,1.555932879E0,-1.944168448E0,1.023470020E1
2.853382032E0,1.354337573E0,-2.220539331E0,9.732208252E0
2.855622022E0,1.149751306E0,-1.570888042E0,9.534201622E0
2.857856153E0,9.415757060E-1,-5.198407173E-1,9.358329773E0
2.860092237E0,1.824527234E-1,-5.730810165E-1,8.913264275E0
2.862328748E0,-3.744767308E-1,-7.357929349E-1,8.755337715E0
2.864565015E0,-4.037888348E-1,-8.709874153E-1,9.146564484E0
2.866799451E0,-2.835494876E-1,-1.889731646E0,9.716654778E0
2.869029920E0,-1.818545163E-1,-2.740978241E0,1.039621639E1
2.871275342E0,-3.314059377E-1,-2.224726915E0,1.088495064E1
2.873512403E0,-6.287141442E-1,-2.024926186E0,1.008096218E1
2.875751599E0,-1.064806059E-1,-1.879562140E0,9.093922615E0
2.877983289E0,8.512466550E-1,-4.941178858E-1,9.309874535E0
2.880214002E0,3.649054468E-1,6.897311211E-1,9.351150513E0
2.882458448E0,-1.111466169E0,-1.968096644E-1,8.385646820E0
2.884695508E0,-1.754537225E0,-1.305882931E0,8.357531548E0
2.886935010E0,-1.508076429E0,-1.162313581E0,9.509077072E0
2.889168592E0,-1.348355532E0,-1.864607096E0,9.883553505E0
2.891405408E0,-4.725824594E-1,-2.618944407E0,9.830911636E0
2.893642469E0,-1.974078640E-2,-2.617748022E0,1.011625576E1
2.895878553E0,-3.320041299E-1,-2.303091764E0,1.024128056E1
2.898115186E0,2.153540403E-1,-1.495514154E0,9.730413437E0
2.900351758E0,9.343972206E-1,-8.428717852E-1,9.005986214E0
2.902585828E0,1.330409408E0,-3.343969584E-1,8.379665375E0
2.904814405E0,1.770090580E0,-8.279166222E-1,8.179265976E0
2.907061963E0,1.782054663E0,-1.449452281E0,9.162715912E0
2.909299024E0,8.949156404E-1,-1.603789330E0,1.020419216E1
2.911539014E0,-6.801598072E-1,-2.253440619E0,1.006660461E1
2.913771863E0,-1.486541033E0,-2.531606436E0,9.797411919E0
2.916008436E0,-1.487139225E0,-2.565105915E0,9.763913155E0
2.918245008E0,-1.128814101E0,-2.383849621E0,9.671789169E0
2.920479077E0,-5.419743061E-1,-1.381855130E0,9.322437286E0
2.922708508E0,-4.642075896E-1,-6.484549642E-1,8.706883430E0
2.924959363E0,-2.572284341E-1,1.782652885E-1,8.297112465E0
2.927192090E0,-6.699903309E-2,2.961117923E-1,8.055437088E0
2.929432386E0,-3.870390654E-1,-5.371887088E-1,8.297112465E0
2.931664136E0,-2.081755698E-1,-1.140179992E0,8.796015739E0
2.933901807E0,2.338984162E-1,-2.205584288E0,9.126225471E0
2.936138257E0,4.881358147E-1,-3.202194929E0,9.702297211E0
2.938375196E0,2.662015259E-1,-3.315854073E0,1.022512913E1
2.940612928E0,-3.655036688E-1,-3.598206997E0,1.026281643E1
2.942848279E0,-4.522434771E-1,-2.943770170E0,9.707681656E0
2.945085401E0,2.153540403E-2,-1.015753269E0,9.050253868E0
2.947322401E0,-5.024927482E-2,-1.525424421E-1,8.814560890E0
2.949558545E0,-1.722832322E-1,-6.388836503E-1,8.824131966E0
2.951795118E0,1.794616925E-3,-8.596215248E-1,9.407979965E0
2.954031690E0,9.152546525E-2,-8.931210637E-1,1.009053326E1
2.956268811E0,1.010967568E-1,-1.987837434E0,9.954142570E0
2.958506482E0,8.015955985E-2,-2.954537868E0,1.022752190E1
2.960741651E0,2.177468538E-1,-2.654238462E0,1.093400288E1
2.962976209E0,2.063809484E-1,-2.586043119E0,1.070489025E1
2.965204847E0,2.847459018E-1,-1.908276081E0,9.850652695E0
2.967451612E0,5.910272002E-1,-3.744767308E-1,9.092725754E0
2.969688306E0,2.590230405E-1,2.739782035E-1,8.635697365E0
2.971927380E0,-9.092725813E-2,-1.411765367E-1,8.480761528E0
2.974161878E0,-1.441675574E-1,-6.442674994E-1,8.867202759E0
2.976399549E0,-2.440679073E-1,-8.997012973E-1,9.524630547E0
2.978634961E0,-1.453639716E-1,-1.039681435E0,9.511469841E0
2.980872022E0,-2.279163599E-1,-2.054238319E0,8.973683357E0
2.983108961E0,-1.489532143E-1,-3.203989506E0,9.057432175E0
2.985344861E0,3.463610709E-1,-3.089732170E0,9.643673897E0
2.987581495E0,5.174478889E-1,-2.079362869E0,9.810572624E0
2.989818250E0,-8.374879137E-3,-1.436291814E0,9.022137642E0
2.992055188E0,-6.747759581E-1,-1.555932879E0,8.243872643E0
2.994292920E0,-8.727820516E-1,-1.378864050E0,8.790034294E0
2.996528211E0,-4.911268353E-1,-5.910272002E-1,9.856036186E0
2.998765332E0,-8.015955985E-2,-2.015953064E-1,1.009232807E1
3.001002271E0,-3.655036688E-1,-9.505487680E-1,9.623932838E0
3.003238172E0,-7.429714203E-1,-1.929811478E0,9.526425362E0
3.005474744E0,-7.585247755E-1,-2.051845312E0,1.007019424E1
3.007711073E0,-8.931210637E-1,-1.705484390E0,1.017368412E1
3.009947461E0,-8.901300430E-1,-1.544566989E0,9.429515839E0
3.012185926E0,-5.132604837E-1,-1.327418327E0,8.826524734E0
3.014421277E0,-4.785645381E-2,-7.022934556E-1,8.672785759E0
3.016655653E0,1.465603858E-1,7.477571070E-2,8.568099976E0
3.018883680E0,-8.434699476E-2,-2.350948304E-1,8.118248940E0
3.021131543E0,8.853443712E-2,-1.179661512E0,8.154739380E0
3.023368116E0,8.153542876E-1,-1.372882009E0,9.196813583E0
3.025607617E0,9.481559992E-1,-1.732403636E0,9.914062500E0
3.027841809E0,5.186443329E-1,-2.738585472E0,9.706484795E0
3.030079541E0,4.163511395E-1,-3.281756163E0,9.520442963E0
3.032314893E0,-8.973085321E-3,-3.155534744E0,9.573683739E0
3.034551892E0,-4.492524564E-1,-2.913859844E0,9.388239861E0
3.036788587E0,-7.214360237E-1,-2.353341103E0,9.089137077E0
3.039024549E0,-8.793623447E-1,-1.638485312E0,9.114859581E0
3.041261670E0,-1.237089276E0,-1.136590719E0,9.268000603E0
3.043499219E0,-1.383649707E0,-6.747759581E-1,9.213563919E0
3.045735059E0,-1.197607756E0,-8.871390224E-1,8.972486496E0
3.047971815E0,-6.023930907E-1,-1.460818172E0,8.997611046E0
3.050205640E0,1.328016520E-1,-1.273579836E0,9.614361763E0
3.052445020E0,1.238285750E-1,-7.016952634E-1,1.001396275E1
3.054682264E0,-3.696911037E-1,-6.442674994E-1,9.513862610E0
3.056918408E0,-4.618147612E-1,-1.088734269E0,8.831310272E0
3.059154737E0,1.435693651E-1,-1.246660590E0,8.956933022E0
3.061388379E0,8.380861282E-1,-1.502094388E0,9.125627518E0
3.063616956E0,8.811569214E-1,-1.927418590E0,8.931210518E0
3.065865857E0,7.627122402E-1,-1.566700578E0,8.843872070E0
3.068098279E0,3.212364316E-1,-1.541576028E0,8.963513374E0
3.070329481E0,-1.752742529E-1,-1.965105653E0,9.145966530E0
3.072575574E0,-4.426721856E-2,-1.800000787E0,9.247062683E0
3.074811414E0,-9.930214286E-2,-1.396810174E0,9.087940216E0
3.077047803E0,5.144568533E-2,-1.100698471E0,8.755337715E0
3.079269910E0,2.602194548E-1,-1.501496196E0,8.863015175E0
3.081509900E0,1.280160099E-1,-1.933998942E0,9.677771568E0
3.083758985E0,-5.682953820E-2,-2.172683001E0,1.016770172E1
3.085997816E0,7.178468257E-2,-2.020738840E0,9.954142570E0
3.088232984E0,3.696911037E-1,-1.563709617E0,9.426525116E0
3.090453748E0,3.176472187E-1,-1.402792215E0,9.044271469E0
3.092692823E0,3.098705411E-1,-8.632107973E-1,9.196215630E0
3.094940992E0,2.231307179E-1,-5.180460811E-1,9.332606316E0
3.097180859E0,-2.536391914E-1,-7.680960894E-1,9.138189316E0
3.099417676E0,-6.358926296E-1,-7.196413875E-1,9.134600639E0
3.101652234E0,-1.105484009E0,-7.962117195E-1,9.626325607E0
3.103887830E0,-1.549950838E0,-1.045663476E0,1.018564796E1
3.106124951E0,-1.457229018E0,-1.228714466E0,1.024845982E1
3.108361951E0,-1.249053478E0,-1.701296926E0,1.034177971E1
3.110597791E0,-1.056431174E0,-2.150549412E0,1.064925671E1
3.112834424E0,-3.672982752E-1,-1.731207132E0,1.087956619E1
3.115071180E0,2.644068897E-1,-1.524826288E0,1.071326542E1
3.117308057E0,2.081755698E-1,-2.282752752E0,1.038485050E1
3.119545606E0,3.499503136E-1,-1.984846354E0,1.057149029E1
3.121781141E0,7.980063558E-1,-1.088136077E0,1.065523911E1
3.124015393E0,8.165507317E-1,-1.543968797E0,9.917053223E0
3.126240918E0,9.858429432E-1,-1.993819475E0,9.509077072E0
3.128478162E0,1.012762189E0,-1.867598057E0,9.948160172E0
3.130721814E0,4.833501875E-1,-2.176870346E0,1.032502937E1
3.132967114E0,2.793620527E-1,-2.111067772E0,1.022273636E1
3.135204297E0,9.152546525E-2,-2.359921217E0,9.845269203E0
3.137440626E0,-1.208375469E-1,-3.012563705E0,1.003968525E1
3.139674512E0,1.154536903E-1,-2.508276224E0,1.078983593E1
3.141911573E0,-1.794616925E-3,-1.254437327E0,1.093400288E1
3.144148572E0,-6.538388133E-1,-8.045865893E-1,9.983454704E0
3.146384656E0,-1.381256819E0,-8.757730722E-1,9.171091080E0
3.148618054E0,-1.552941918E0,-7.208378315E-1,9.383454323E0
3.150845838E0,-1.304686546E0,-8.703892231E-1,9.805787086E0
3.153094617E0,-1.041476011E0,-1.007378340E0,9.613164902E0
3.155332166E0,-1.059422255E0,-1.105484009E0,9.245866776E0
3.157567457E0,-1.384247899E0,-1.468594909E0,9.100502968E0
3.159792676E0,-1.204187989E0,-1.365105271E0,8.925228119E0
3.162041822E0,-4.289134443E-1,-9.589236975E-1,8.559724808E0
3.164277539E0,3.194418252E-1,-1.211366415E0,7.999804497E0
3.166517347E0,7.950153351E-1,-1.618744493E0,7.652246952E0
3.168750867E0,1.399203062E0,-1.131805062E0,7.904689789E0
3.170988050E0,1.262812138E0,-1.064207911E0,8.261219978E0
3.173223097E0,5.252245665E-1,-1.378864050E0,8.312067986E0
3.175451551E0,2.602194548E-1,-1.159322619E0,8.313861847E0
3.177698926E0,-1.214357466E-1,-1.298106313E0,8.463413239E0
3.179935193E0,-2.500499785E-1,-1.831705689E0,8.553742409E0
3.182173474E0,-8.494520187E-2,-2.128415823E0,9.003593445E0
3.184407422E0,-6.568298340E-1,-2.477169752E0,9.752547264E0
3.186641126E0,-1.096511006E0,-2.515454769E0,1.016351414E1
3.188869092E0,-6.861419082E-1,-2.292324066E0,1.015753174E1
3.191118787E0,-2.452643216E-2,-2.325823545E0,1.002532864E1
3.193354139E0,6.334998012E-1,-2.163709879E0,1.013599682E1
3.195594251E0,1.063011408E0,-1.162313581E0,1.036690426E1
3.197828260E0,9.349954724E-1,-4.707878530E-1,1.021675491E1
3.200064405E0,5.012963414E-1,-5.060819983E-1,9.921838760E0
3.202300916E0,1.100698411E-1,-6.209374666E-1,1.011386299E1
3.204537366E0,-4.259224236E-1,-1.068395257E0,1.041057301E1
3.206771985E0,-7.322037220E-1,-1.445863128E0,1.025563812E1
3.209000623E0,-4.354937077E-1,-1.540379524E0,1.011087227E1
3.211244458E0,-6.239284873E-1,-2.203191519E0,1.034836006E1
3.213472242E0,-9.822536707E-1,-2.530410051E0,1.082273674E1
3.215724438E0,-1.003190875E0,-1.856830359E0,1.108833981E1
3.217957654E0,-1.139581800E0,-1.613360643E0,1.062891865E1
3.220197095E0,-9.349954724E-1,-1.542772412E0,1.027777100E1
3.222430799E0,-2.374876440E-1,-1.191625714E0,1.058405304E1
3.224667676E0,2.679961324E-1,-2.029113531E0,1.113858986E1
3.226905530E0,7.800601721E-1,-2.158924341E0,1.159143066E1
3.229141004E0,7.256234884E-1,-1.104885817E0,1.134616661E1
3.231377881E0,7.298108935E-2,-1.325025558E0,1.043928719E1
3.233614881E0,-1.082752272E-1,-1.162313581E0,1.002233791E1
3.235850904E0,2.159522474E-1,-2.919243574E-1,1.003789139E1
3.238087354E0,5.970092416E-1,-3.194418252E-1,9.617352486E0
3.240324170E0,1.035493970E0,-2.081755698E-1,8.930013657E0
3.242561170E0,9.188438654E-1,-1.902294010E-1,8.561519623E0
3.244798597E0,2.470589429E-1,-8.500502706E-1,8.690134048E0
3.247034314E0,-6.640082598E-2,-1.573280931E0,8.864809990E0
3.249271192E0,3.822534084E-1,-1.721037745E0,9.364909172E0
3.251508436E0,6.849454641E-1,-1.832303882E0,9.687342644E0
3.253743970E0,4.546363056E-1,-1.976471543E0,9.504291534E0
3.255980603E0,-8.374879137E-3,-1.424925923E0,9.694520950E0
3.258217115E0,-1.199402332E0,-1.669592023E0,9.564710617E0
3.260454358E0,-1.742573142E0,-2.263011932E0,9.332008362E0
3.262692151E0,-5.850451589E-1,-1.441077471E0,9.865608215E0
3.264927686E0,-1.860419661E-1,-1.477568030E0,1.023170948E1
3.267164502E0,-4.348955154E-1,-2.166700840E0,1.011625576E1
3.269401441E0,4.546362907E-2,-1.710868239E0,1.022512913E1
3.271637342E0,-4.785645287E-3,-1.371685624E0,1.052423191E1
3.273874158E0,-4.845465720E-2,-1.432702541E0,1.044287586E1
3.276110547E0,5.557330847E-1,-9.427721500E-1,1.007557774E1
3.278347852E0,6.795616150E-1,-1.049850941E0,1.001994514E1
3.280585096E0,6.658028960E-1,-1.495514154E0,1.029212856E1
3.282820691E0,7.974081635E-1,-7.447660565E-1,1.080718327E1
3.285057447E0,4.181457460E-1,-1.788634956E-1,1.070249748E1
3.287294629E0,-3.415754437E-1,-2.817548811E-1,9.661021233E0
3.289530896E0,-2.237289101E-1,1.363908947E-1,8.827122688E0
3.291767347E0,-1.256231871E-2,-2.201396823E-1,8.729615211E0
3.294004529E0,2.805584669E-1,-1.231107235E0,9.253643036E0
3.296242566E0,6.233302951E-1,-1.415952802E0,9.762716293E0
3.298478528E0,1.357926875E-1,-2.020140409E0,9.692128181E0
3.300714185E0,-2.416750938E-1,-2.320439816E0,9.660423279E0
3.302950452E0,-5.515456200E-1,-2.059023857E0,9.919445992E0
3.305188123E0,-5.844469070E-1,-1.987239242E0,1.001934624E1
3.307423963E0,-2.518445849E-1,-1.613360643E0,9.830911636E0
3.309660779E0,-1.543370634E-1,-9.678967595E-1,9.544969559E0
3.311896863E0,-3.332005441E-1,-6.664010882E-1,9.123234749E0
3.314134229E0,4.779663086E-1,-2.117647976E-1,8.500502586E0
3.316371656E0,5.563312769E-1,-6.275177598E-1,8.163114548E0
3.318607190E0,4.725824669E-2,-1.926222205E0,8.346763611E0
3.320844434E0,2.171486616E-1,-2.123031855E0,8.949156761E0
3.323081434E0,6.406782866E-1,-1.177268744E0,9.838688850E0
3.325317273E0,-1.537388563E-1,-9.990034699E-1,1.006002426E1
3.327553602E0,-1.646261930E0,-1.342971683E0,9.698708534E0
3.329790418E0,-1.606780410E0,-9.086744189E-1,9.779465675E0
3.332027600E0,-4.666004181E-1,-1.500299811E0,9.890732765E0
3.334265332E0,8.500502706E-1,-1.501496196E0,9.998409271E0
3.336500440E0,9.200403094E-1,-9.385846853E-1,1.007438183E1
3.338739026E0,-2.249253243E-1,-1.520040631E0,1.017906761E1
3.340980237E0,-9.122636318E-1,-1.577468276E0,1.037348461E1
3.343211866E0,-7.244270444E-1,-9.242277741E-1,1.027358437E1
3.345445203E0,-4.648058116E-1,-1.022333503E0,9.966106415E0
3.347682447E0,-1.106680483E-1,-1.509871125E0,9.746564865E0
3.349920423E0,4.660021961E-1,-1.420738459E0,1.024726295E1
3.352158826E0,5.934200287E-1,-9.750752449E-1,1.071984577E1
3.354393689E0,3.056831062E-1,-7.423732281E-1,9.991828918E0
3.356627759E0,4.851447940E-1,-1.066002488E0,9.102297783E0
3.358855848E0,1.044467092E0,-9.110672474E-1,8.949754715E0
3.361103956E0,1.350150228E0,-6.957131624E-1,8.861818314E0
3.363340467E0,1.190429211E0,-1.033101201E0,8.994620323E0
3.365579785E0,4.725824594E-1,-1.651645780E0,9.575477600E0
3.367813916E0,-4.061816335E-1,-1.775474429E0,1.025444126E1
3.370051709E0,-8.309076428E-1,-1.238883972E0,1.040698433E1
3.372287305E0,-9.188438654E-1,-1.387837172E0,9.734002113E0
3.374524121E0,-6.029912829E-1,-1.423131227E0,9.126823425E0
3.376758130E0,1.034895778E-1,-1.256830096E0,9.113663673E0
3.378985181E0,1.507478207E-1,-1.713859200E0,9.620343208E0
3.381233472E0,9.272187948E-2,-1.165304661E0,1.003370380E1
3.383469922E0,-1.082752272E-1,-7.489534616E-1,9.611370087E0
3.385710462E0,-2.297109663E-1,-1.597209096E0,9.440283775E0
3.387945081E0,1.794617027E-1,-1.506281853E0,1.002532864E1
3.390180677E0,2.027917206E-1,-9.589236975E-1,1.048235798E1
3.392417371E0,-1.740778536E-1,-1.405185103E0,1.006480980E1
3.394654432E0,3.140579760E-1,-1.782652855E0,9.431310654E0
3.396890455E0,9.475577474E-1,-1.234098315E0,9.707681656E0
3.399126905E0,7.262216806E-1,-9.056833982E-1,9.800403595E0
3.401364087E0,3.385843933E-1,-1.236491084E0,9.120841980E0
3.403602185E0,1.429711580E-1,-1.520638824E0,9.152546883E0
3.405838025E0,3.176472187E-1,-1.712662816E0,9.745966911E0
3.408072400E0,3.308077157E-1,-1.646860242E0,1.000319481E1
3.410306409E0,-3.050848842E-2,-1.751546144E0,1.001456070E1
3.412547742E0,-4.588237405E-1,-2.529811859E0,1.005942631E1
3.414783643E0,-4.061816335E-1,-2.269592285E0,1.056969547E1
3.417021131E0,-6.921239495E-1,-1.386640668E0,1.074197865E1
3.419253736E0,-1.095912814E0,-1.501496196E0,1.013779163E1
3.421481885E0,-5.012963414E-1,-1.303490162E0,9.828518867E0
3.423731397E0,1.692921966E-1,-9.074779749E-1,9.938589096E0
3.425966993E0,3.152543902E-1,-1.331605792E0,1.008873844E1
3.428204175E0,5.156532526E-1,-7.938188910E-1,9.984650612E0
3.430429639E0,5.838487148E-1,-3.475574851E-1,9.455238342E0
3.432677137E0,6.023930907E-1,-6.556333899E-1,8.912068367E0
3.434913465E0,1.080359459E0,-7.160521746E-1,9.007183075E0
3.437152905E0,7.627122402E-1,-1.045065284E0,9.758528709E0
3.439387097E0,4.989035130E-1,-8.608179688E-1,1.012283611E1
3.441624707E0,-1.615155302E-2,-1.744367719E0,9.456435204E0
3.443860303E0,-5.497509837E-1,-3.161516905E0,9.535398483E0
3.446097364E0,-7.262216806E-1,-2.388036966E0,1.024307537E1
3.448334302E0,-1.762912035E0,-2.285145521E0,1.003310490E1
3.450569959E0,-1.851446509E0,-2.225325108E0,9.831509590E0
3.452806775E0,-6.658028960E-1,-7.507480979E-1,9.811769485E0
3.455043409E0,-5.557330847E-1,6.083751321E-1,9.299705505E0
3.457280713E0,-4.259224236E-1,3.152543902E-1,8.109275818E0
3.459517774E0,2.590230405E-1,-1.563111424E0,7.704290867E0
3.461751905E0,1.416550994E0,-1.889133453E0,9.189037323E0
3.463983777E0,1.919641972E0,-1.911865234E0,1.036151981E1
3.466227796E0,7.292127013E-1,-2.965903759E0,1.054337502E1
3.468463758E0,-1.130608693E-1,-3.000001431E0,1.035912704E1
3.470701795E0,-1.262213886E-1,-1.895115495E0,1.034776115E1
3.472936658E0,-2.344966233E-1,-7.100701332E-1,9.905687332E0
3.475173719E0,-4.606183469E-1,-7.962117195E-1,8.621339798E0
3.477411268E0,-3.032902777E-1,-9.792626500E-1,8.403593063E0
3.479646680E0,1.920240223E-1,8.374879137E-3,9.336195946E0
3.481883985E0,-4.307080805E-2,-1.950150430E-1,9.587442398E0
3.484120984E0,-2.033899277E-1,-1.345364571E0,9.640084267E0
3.486356885E0,1.818545163E-1,-1.941775560E0,1.010249710E1
3.488593396E0,5.066801906E-1,-2.360519648E0,1.065942669E1
3.490829969E0,7.483552694E-1,-2.258824587E0,1.060439205E1
3.493067090E0,5.569294691E-1,-2.630310297E0,9.902098656E0
3.495304578E0,2.757728100E-1,-2.516052961E0,9.903892517E0
3.497539930E0,4.504488707E-1,-8.793623447E-1,1.015095139E1
3.499777051E0,-2.739782035E-1,-2.919243574E-1,9.590433121E0
3.502014295E0,-1.256830096E0,-3.595215976E-1,8.909076691E0
3.504250196E0,-8.548358679E-1,1.609173268E-1,8.735597610E0
3.506483716E0,-3.684946895E-1,1.381855011E-1,8.949754715E0
3.508708203E0,4.564309120E-1,-9.990034699E-1,9.197412491E0
3.510948865E0,1.112662554E0,-2.002194405E0,9.810572624E0
3.513197645E0,1.063011408E0,-2.067398787E0,1.053978539E1
3.515436292E0,5.234299302E-1,-2.185843468E0,1.006780148E1
3.517673231E0,3.224328458E-1,-2.155933142E0,9.494122505E0
3.519907667E0,3.409772217E-1,-1.430309772E0,9.693324089E0
3.522143445E0,7.836493850E-2,-9.206385016E-1,9.918848038E0
3.524379834E0,-5.647061467E-1,-6.669993401E-1,9.883553505E0
3.526616773E0,-1.014556766E0,-1.042074203E0,9.794421196E0
3.528854444E0,-8.733802438E-1,-1.266999602E0,1.030648518E1
3.531091260E0,-6.448656917E-1,-1.071386337E0,1.078983593E1
3.533326612E0,-4.564309120E-1,-1.780858278E0,1.051585770E1
3.535563672E0,-2.751746178E-1,-2.458625317E0,1.062413216E1
3.537800611E0,1.040877849E-1,-1.844866276E0,1.103151035E1
3.540036512E0,3.403790295E-1,-8.051848412E-1,1.091785145E1
3.542273023E0,3.529413342E-1,-5.503492057E-2,1.005344391E1
3.544509656E0,6.161518395E-2,-5.144568682E-1,9.121439934E0
3.546743909E0,1.944168359E-1,-1.365703583E0,9.572486877E0
3.548972852E0,8.697910309E-1,-7.782655358E-1,1.067916775E1
3.551219922E0,9.104689956E-1,-7.112665176E-1,1.051705360E1
3.553456983E0,6.705885530E-1,-1.421934843E0,9.868000984E0
3.555696851E0,4.468596280E-1,-1.557727575E0,1.000917721E1
3.557929883E0,1.764706671E-1,-1.304088354E0,1.075932693E1
3.560166639E0,9.930214286E-2,-7.375875711E-1,1.062413216E1
3.562402967E0,1.016949639E-1,-9.421738982E-1,9.323035240E0
3.564640149E0,-2.991028316E-2,-1.282552958E0,9.026923180E0
3.566877393E0,-2.135594189E-1,-9.254241586E-1,9.863813400E0
3.569111524E0,-8.907282352E-1,-1.006181955E0,9.914660454E0
3.571350232E0,-9.158528447E-1,-1.117448211E0,9.285347939E0
3.573587049E0,-8.715856671E-1,-1.627717614E0,8.800203323E0
3.575820935E0,-7.130611539E-1,-1.727617979E0,9.131011009E0
3.578045300E0,-2.895315289E-1,-1.085145116E0,9.481559753E0
3.580284681E0,-3.314059377E-1,-1.097707391E0,9.281160355E0
3.582533521E0,-3.738785386E-1,-1.073180914E0,9.227920532E0
3.584770521E0,-1.968096644E-1,-6.083751321E-1,9.505488396E0
3.586997205E0,-2.614158690E-1,-7.040880919E-1,9.686145782E0
3.589243299E0,1.507478207E-1,-7.710871100E-1,9.494720459E0
3.591480665E0,4.761717021E-1,-1.004387259E0,9.150154114E0
3.593719495E0,3.906283081E-1,-1.873580098E0,9.250652313E0
3.595953077E0,7.651050687E-1,-1.910070658E0,9.693324089E0
3.598189588E0,8.111668825E-1,-1.299302697E0,9.840482712E0
3.600426709E0,5.359922647E-1,-8.093722463E-1,9.183652878E0
3.602664197E0,3.565305769E-1,-6.975077987E-1,8.428717613E0
3.604899610E0,9.152546525E-2,-6.376872063E-1,8.754739761E0
3.607136914E0,3.948157281E-2,-6.538388133E-1,9.231510162E0
3.609373914E0,3.840480447E-1,-6.544370055E-1,9.272786140E0
3.611609815E0,4.989035130E-1,-6.705885530E-1,9.302098274E0
3.613846326E0,-2.452643216E-2,-1.366301775E0,9.422935486E0
3.616082899E0,-6.143572330E-1,-1.837687731E0,9.837491989E0
3.618320020E0,-5.676971674E-1,-1.518245935E0,9.961320877E0
3.620557508E0,-3.236292601E-1,-1.773081541E0,9.506684303E0
3.622789929E0,-1.357926875E-1,-2.110469580E0,9.394221306E0
3.625015271E0,-5.862415582E-2,-1.717448473E0,9.990633011E0
3.627256788E0,-7.968099117E-1,-1.436291814E0,1.055533886E1
3.629507459E0,-1.271187067E0,-1.165902853E0,1.045065308E1
3.631735487E0,-1.089332461E0,-1.013958573E0,1.019402313E1
3.633979017E0,-7.232306600E-1,-1.360917926E0,1.051286602E1
3.636212049E0,-1.734796464E-1,-1.529013634E0,1.097587776E1
3.638452588E0,1.812563092E-1,-1.228116274E0,1.087418270E1
3.640686231E0,2.961117923E-1,-1.274178028E0,1.019342422E1
3.642923169E0,5.706881881E-1,-1.438684583E0,9.742975235E0
3.645160291E0,6.927221417E-1,-8.297112584E-1,9.957731247E0
3.647396497E0,2.871387303E-1,-3.930211067E-1,9.900901794E0
3.649633191E0,-1.405783296E-1,-5.030909777E-1,9.272188187E0
3.651869337E0,-1.710868180E-1,-4.199403822E-1,9.019146919E0
3.654106641E0,1.040877849E-1,-5.204389095E-1,9.202795982E0
3.656344068E0,1.543370634E-1,-9.092726111E-1,9.375677109E0
3.658579541E0,3.080759048E-1,-1.293918848E0,9.248857498E0
3.660816602E0,3.212364316E-1,-1.776670814E0,9.154939651E0
3.663053846E0,4.217349887E-1,-1.768894196E0,9.179466248E0
3.665289747E0,5.874379873E-1,-1.330409408E0,9.003593445E0
3.667523328E0,4.642075896E-1,-1.691127419E0,8.812766075E0
3.669750867E0,9.272187948E-2,-1.819143414E0,8.842676163E0
3.671999890E0,-2.219343036E-1,-8.835497499E-1,9.205188751E0
3.674237134E0,-1.026520967E0,-5.982056856E-1,9.059226990E0
3.676475538E0,-1.089332461E0,-9.296116233E-1,8.491529465E0
3.678709851E0,-1.609173268E-1,-9.014959335E-1,8.714659691E0
3.680946973E0,1.878365725E-1,-1.287338614E0,9.314660072E0
3.683183118E0,2.261217386E-1,-1.159920812E0,9.553344727E0
3.685419629E0,-8.195417374E-2,-1.016351461E0,9.431310654E0
3.687656202E0,-6.885347366E-1,-1.585245013E0,9.317052841E0
3.689893201E0,-5.084748268E-1,-1.278365493E0,9.565906525E0
3.692130506E0,-1.698904037E-1,-5.676971674E-1,9.872786522E0
3.694366102E0,-5.288137794E-1,-1.033699393E0,9.565308571E0
3.696601331E0,-1.938186288E-1,-1.195813060E0,9.325428009E0
3.698832899E0,3.846462369E-1,-7.848458290E-1,9.601799011E0
3.701076062E0,2.404786795E-1,-1.170090318E0,9.572486877E0
3.703312635E0,2.715853751E-1,-1.895115495E0,9.130413055E0
3.705551099E0,1.118644595E0,-1.846660852E0,9.314660072E0
3.707786573E0,1.266999602E0,-1.966302037E0,9.774082184E0
3.710021802E0,9.475577474E-1,-1.785045743E0,9.899705887E0
3.712251111E0,3.308077157E-1,-1.283749342E0,1.001216793E1
3.714496228E0,-4.253242314E-1,-1.592423439E0,9.977472305E0
3.716730969E0,-1.914258115E-2,-1.392622828E0,9.899705887E0
3.718961194E0,8.195417523E-1,-7.686942816E-1,9.763314247E0
3.721206006E0,8.392825127E-1,-1.646261930E0,9.264410973E0
3.723442518E0,8.195417523E-1,-1.995614052E0,9.317052841E0
3.725682264E0,3.792623878E-1,-1.189232826E0,1.013180923E1
3.727917432E0,-1.318445325E0,-1.368694544E0,1.004028416E1
3.730152784E0,-2.144567251E0,-1.275972724E0,9.236295700E0
3.732389783E0,-1.786840320E0,-4.719842672E-1,9.066405296E0
3.734626539E0,-1.076770186E0,-7.130611539E-1,9.168698311E0
3.736862684E0,-4.570291340E-1,-1.110867858E0,9.384650230E0
3.739099256E0,-7.082754970E-1,-7.740781307E-1,9.720243454E0
3.741335889E0,-1.644467354E0,-1.064207911E0,9.421739578E0
3.743573011E0,-1.522433400E0,-1.484746456E0,8.927620888E0
3.745810682E0,-4.187439680E-1,-1.578664780E0,9.166903496E0
3.748042676E0,5.467599630E-1,-1.806581140E0,9.643074989E0
3.750270398E0,9.678967595E-1,-1.822134495E0,9.666405678E0
3.752516858E0,7.561319470E-1,-1.320838094E0,9.482157707E0
3.754744031E0,2.751746178E-1,-9.014959335E-1,9.272188187E0
3.756995435E0,3.469592705E-2,-7.627122402E-1,9.031110764E0
3.759228956E0,3.457628787E-1,-8.721838593E-1,8.915059090E0
3.761469251E0,1.052842021E0,-1.393819213E0,8.817551613E0
3.763703870E0,1.688136339E0,-1.805384636E0,8.861818314E0
3.765939466E0,1.523031592E0,-1.747358680E0,9.270393372E0
3.768173535E0,2.626122832E-1,-1.855035782E0,9.707083702E0
3.770401746E0,-1.020538807E0,-1.707278967E0,9.919445992E0
3.772649305E0,-1.261017561E0,-7.998009920E-1,9.858428955E0
3.774885877E0,-8.835497499E-1,-3.684946895E-1,9.541978836E0
3.777125317E0,-1.196411327E-1,-4.121637046E-1,9.229117393E0
3.779359326E0,4.193421602E-1,-5.826523304E-1,9.244071960E0
3.781597120E0,2.596212626E-1,-1.184447169E0,9.520442963E0
3.783832654E0,2.105683982E-1,-1.189232826E0,9.677172661E0
3.786069532E0,2.213360928E-2,-1.103689432E0,9.431908607E0
3.788306531E0,-1.794617027E-1,-1.761117458E0,9.469595909E0
3.790542615E0,-1.974078640E-2,-2.048256159E0,9.996016502E0
3.792779187E0,5.503492057E-2,-1.601396561E0,1.037767220E1
3.795015516E0,-6.717849374E-1,-1.015154958E0,1.008873844E1
3.797252576E0,-1.621137381E0,-7.441678643E-1,9.478569031E0
3.799490186E0,-1.943570137E0,-8.733802438E-1,9.409176826E0
3.801726026E0,-1.418345571E0,-1.088734269E0,9.833903313E0
3.803962842E0,-5.473581553E-1,-7.914260626E-1,9.903294563E0
3.806199903E0,1.585244983E-1,-6.987041831E-1,9.232706070E0
3.808435926E0,7.304090858E-1,-1.282552958E0,8.556734085E0
3.810672559E0,9.804590940E-1,-1.421336651E0,8.850452423E0
3.812909131E0,9.044869542E-1,-1.332802176E0,9.497711182E0
3.815146192E0,6.634100676E-1,-1.510469317E0,9.381659508E0
3.817383680E0,8.673982024E-1,-1.549352646E0,8.921041489E0
3.819619031E0,1.170090318E0,-1.491924882E0,8.952147484E0
3.821856092E0,8.925228715E-1,-1.599601984E0,9.350552559E0
3.824093152E0,1.046859920E-1,-1.683948994E0,9.424132347E0
3.826329297E0,-1.651047617E-1,-1.549352646E0,9.226125717E0
3.828565809E0,-1.112662554E-1,-1.473978758E0,9.259625435E0
3.830802137E0,-2.309073806E-1,-1.603191137E0,9.631111145E0
3.833039258E0,-6.101697683E-1,-1.469791293E0,9.970293999E0
3.835276990E0,-1.121037364E0,-1.442273855E0,9.808179855E0
3.837512342E0,-1.271187067E0,-1.342971683E0,9.573084831E0
3.839748792E0,-8.949156404E-1,-7.800601721E-1,9.661619186E0
3.841984632E0,-5.958128572E-1,-5.796613097E-1,9.783055305E0
3.844222120E0,-3.672982752E-1,-5.808576941E-1,9.365508080E0
3.846459241E0,1.716850251E-1,-2.452643216E-1,8.449654579E0
3.848696119E0,6.951149702E-1,-9.272187948E-2,7.958528042E0
3.850932691E0,1.000199914E0,-7.956135273E-2,8.127820015E0
3.853170301E0,6.843472719E-1,-2.572284341E-1,8.378468513E0
3.855405713E0,8.614161611E-2,-7.848458290E-1,8.550153732E0
3.857643018E0,-3.696911037E-1,-9.708877802E-1,8.889336586E0
3.859879774E0,-6.305087805E-1,-1.274776220E0,9.226125717E0
3.862115857E0,-2.602194548E-1,-1.984846354E0,9.588638306E0
3.864352186E0,4.079762697E-1,-2.457428932E0,1.022931671E1
3.866586072E0,3.984049559E-1,-2.512463808E0,1.077308559E1
3.868814160E0,1.100698411E-1,-2.105085611E0,1.044108200E1
3.871063672E0,-7.657032460E-2,-1.203589797E0,9.593423843E0
3.873298963E0,-8.733802289E-2,-1.051645517E0,8.834898949E0
3.875538953E0,5.258227587E-1,-1.366899967E0,8.855237961E0
3.877770093E0,8.943174481E-1,-1.309472203E0,9.602396965E0
3.879998243E0,6.167500615E-1,-1.194018483E0,1.042492962E1
3.882245740E0,-8.973085135E-2,-1.009172916E0,1.100937653E1
3.884482190E0,-1.222134113E0,-7.202396393E-1,1.113679504E1
3.886719373E0,-1.739582062E0,-1.260419369E0,1.076112175E1
3.888945691E0,-6.538388133E-1,-1.609771490E0,1.039501953E1
3.891192334E0,7.070791125E-1,-1.155135155E0,9.920044899E0
3.893429334E0,1.070189953E0,-1.012762189E0,9.098110199E0
3.895669141E0,5.264210105E-1,-9.367900491E-1,8.940781593E0
3.897902234E0,-8.333004713E-1,-6.502495408E-1,9.328418732E0
3.900135816E0,-1.345364571E0,2.213360928E-2,9.293723106E0
3.902363416E0,-6.215356588E-1,-1.256231815E-1,8.976076126E0
3.904612500E0,-1.166501045E-1,-1.742573142E0,9.417551994E0
3.906847119E0,3.864408433E-1,-2.364108801E0,1.072522926E1
3.909076856E0,3.098705411E-1,-2.016551256E0,1.133420277E1
3.911322461E0,-5.497509837E-1,-2.310270309E0,1.049252701E1
3.913559705E0,-3.678964674E-1,-2.245664120E0,9.378069878E0
3.915798475E0,6.945167780E-1,-1.222134113E0,9.000003815E0
3.918032117E0,1.400997639E0,-5.994020700E-1,8.638090134E0
3.920268384E0,1.488335729E0,-5.401797295E-1,7.990232944E0
3.922505567E0,1.167099237E0,8.135596663E-2,7.977072716E0
3.924743299E0,-1.615155339E-1,-5.383851007E-2,8.489136696E0
3.926978711E0,-1.253839016E0,-8.333004713E-1,8.866603851E0
3.929215833E0,-1.314257860E0,-1.254437327E0,9.095717430E0
3.931453077E0,-7.956135273E-1,-2.094916344E0,9.259625435E0
3.933689161E0,-2.763710022E-1,-2.660220623E0,9.789635658E0
3.935925550E0,-8.973085135E-2,-2.039283037E0,1.031964588E1
3.938162244E0,-3.684946895E-1,-1.320239902E0,9.963115692E0
3.940399060E0,-4.731806815E-1,-7.597211599E-1,9.078967094E0
3.942636609E0,-1.136590727E-2,9.152546525E-2,8.581260681E0
3.944871900E0,2.973082066E-1,-2.273181528E-1,8.327022552E0
3.947109143E0,8.697910309E-1,-9.403793216E-1,8.542975426E0
3.949346570E0,1.276570916E0,-9.541380405E-1,9.190832138E0
3.951582227E0,6.909275651E-1,-1.261615753E0,9.367302895E0
3.953818799E0,-2.422732860E-1,-1.940579176E0,9.230911255E0
3.956055311E0,-7.016952634E-1,-2.059622049E0,9.555737495E0
3.958292615E0,-9.008977413E-1,-1.723430514E0,9.863214493E0
3.960529676E0,-3.481557071E-1,-1.405185103E0,9.619745255E0
3.962765271E0,7.429714203E-1,-1.320239902E0,9.381659508E0
3.965002271E0,1.113260746E0,-1.336989641E0,9.747760773E0
3.967239454E0,7.944171429E-1,-1.018146038E0,1.007318497E1
3.969475538E0,4.779663086E-1,-7.639086246E-1,9.931410789E0
3.971712171E0,3.840480447E-1,-1.110269666E0,9.669396400E0
3.973948865E0,4.313062727E-1,-2.120639086E0,9.728618622E0
3.976185498E0,7.758727670E-1,-2.430509567E0,1.040937710E1
3.978423230E0,4.941178858E-1,-2.117648125E0,1.091186905E1
3.980658521E0,-4.283152521E-1,-2.178066730E0,1.047398281E1
3.982895703E0,-8.650053740E-1,-1.825125456E0,1.001156998E1
3.985132703E0,-1.129412293E0,-1.241874933E0,9.955936432E0
3.987368909E0,-1.138983607E0,-6.861419082E-1,9.811769485E0
3.989605664E0,-6.705885530E-1,-8.315058798E-2,9.238089561E0
3.991841993E0,-7.106683254E-1,4.229314029E-1,8.550153732E0
3.994079053E0,-8.536394835E-1,5.946164131E-1,8.129016876E0
3.996316480E0,-7.238288522E-1,4.193421602E-1,8.359326363E0
3.998551954E0,-3.373879790E-1,1.058823988E-1,8.601598740E0
4.000789197E0,-2.991028428E-1,-1.333400369E0,8.418548584E0
4.003026014E0,1.680957973E-1,-2.863610506E0,8.912068367E0
4.005259168E0,6.287141442E-1,-3.329014540E0,9.818349838E0
4.007486768E0,5.988038778E-1,-3.664607763E0,1.000439167E1
4.009735547E0,9.134600163E-1,-3.854837179E0,9.840482712E0
4.011972364E0,1.203589797E0,-2.998206854E0,9.837491989E0
4.014212904E0,9.481559992E-1,-9.080761671E-1,9.602396965E0
4.016445447E0,5.443671346E-2,-1.830509305E-1,8.854042053E0
4.018682508E0,-4.911268353E-1,-4.809573591E-1,8.834898949E0
4.020919263E0,-1.100698411E-1,-5.527420044E-1,9.606584549E0
4.023155164E0,1.046859920E-1,-1.129412293E0,1.046321487E1
4.025391980E0,1.998006850E-1,-1.907677889E0,1.094656563E1
4.027628614E0,1.782652885E-1,-2.748754978E0,1.089093208E1
4.029865735E0,3.619144261E-1,-2.480758905E0,1.119242764E1
4.032103223E0,1.794617027E-1,-1.119840980E0,1.126481056E1
4.034338758E0,-3.050848842E-1,-1.651047617E-1,1.012403297E1
4.036572583E0,4.725824669E-2,5.563312769E-2,8.972486496E0
4.038800611E0,5.635097623E-1,2.679961324E-1,8.876773834E0
4.041048475E0,6.173482537E-1,9.062815905E-1,9.267401695E0
4.043281934E0,2.350948304E-1,9.122636318E-1,9.159127235E0
4.045511183E0,-2.303091735E-1,-5.335994363E-1,9.018548965E0
4.047758802E0,-4.953143001E-1,-1.872981906E0,9.843474388E0
4.049996473E0,-7.561319470E-1,-2.608774900E0,1.055294609E1
4.052235242E0,-1.043868899E0,-3.756133318E0,1.033280659E1
4.054468946E0,-4.378865361E-1,-3.792025566E0,1.000439167E1
4.056703747E0,1.800599098E-1,-2.467000246E0,9.988838196E0
4.058933301E0,-7.058826834E-2,-1.621137381E0,9.890133858E0
4.061178663E0,-1.471585929E-1,-1.399203062E0,9.678967476E0
4.063415174E0,4.247260094E-2,-4.606183469E-1,9.808179855E0
4.065654248E0,-7.896314561E-2,3.978067636E-1,9.781260490E0
4.067889722E0,-2.656033039E-1,-3.308077157E-1,9.647262573E0
4.070124830E0,9.212367237E-2,-1.377069473E0,1.035374355E1
4.072361951E0,4.163511395E-1,-2.117049932E0,1.099681473E1
4.074596021E0,3.828516230E-2,-3.029911757E0,1.113799095E1
4.076820447E0,-1.184447184E-1,-2.913261652E0,1.118883896E1
4.079059766E0,4.187439568E-3,-1.776072621E0,1.106381416E1
4.081305310E0,-1.160518974E-1,-7.010970116E-1,1.064626598E1
4.083533399E0,-1.298106313E-1,-1.435693540E-2,1.005344391E1
4.085774122E0,7.298108935E-2,-2.105683982E-1,9.473783493E0
4.088016309E0,3.439682424E-1,-4.384847581E-1,9.319445610E0
4.090250745E0,7.339983582E-1,1.190429255E-1,9.484550476E0
4.092495557E0,1.561316848E-1,-2.105683982E-1,9.274580956E0
4.094728711E0,-5.365904570E-1,-1.915454507E0,8.879764557E0
4.096966870E0,-2.422732860E-1,-2.548356056E0,9.284152031E0
4.099201368E0,-5.982056726E-3,-2.076970100E0,9.953543663E0
4.101435864E0,-2.620140910E-1,-2.166102648E0,9.469595909E0
4.103664258E0,-2.452643216E-1,-2.632104874E0,8.903095245E0
4.105911878E0,-3.008974493E-1,-2.519642353E0,9.479166985E0
4.108145947E0,-4.169493318E-1,-1.932802439E0,1.007797050E1
4.110377454E0,-3.332005441E-1,-1.186840057E0,9.934401512E0
4.112621961E0,-4.492524564E-1,-1.125823021E0,9.575477600E0
4.114858289E0,-4.468596280E-1,-1.519442320E0,9.805189133E0
4.117097669E0,-3.008974493E-1,-9.607182741E-1,1.052064323E1
4.119331678E0,-4.139583111E-1,-8.207381964E-1,1.055773163E1
4.121566541E0,-7.154539824E-1,-1.660618901E0,1.019402313E1
4.123790173E0,-2.105683982E-1,-1.722234130E0,1.041356373E1
4.126027295E0,1.968096644E-1,-8.362914920E-1,1.084008503E1
4.128264234E0,-1.471585929E-1,-7.561319470E-1,1.026461124E1
4.130506116E0,1.339980662E-1,-1.080957651E0,9.270991325E0
4.132754835E0,1.155135155E0,-1.019940615E0,9.242277145E0
4.134991162E0,1.855633974E0,-4.767699242E-1,9.538389206E0
4.137228223E0,1.735992789E0,2.871387079E-2,9.183652878E0
4.139462537E0,9.332008362E-1,-1.381855011E-1,8.675776482E0
4.141698377E0,2.434697002E-1,-1.003789067E0,8.852247238E0
4.143935193E0,8.255238086E-2,-1.336391449E0,9.819545746E0
4.146172315E0,-1.854437590E-2,-1.432702541E0,1.033340454E1
4.148408338E0,8.673982322E-2,-2.082353830E0,9.763314247E0
4.150644971E0,2.386840582E-1,-2.566900492E0,9.632308006E0
4.152881544E0,-1.872383654E-1,-2.496312141E0,1.029571724E1
4.155118604E0,-9.708877802E-1,-2.222932339E0,1.053619671E1
4.157356092E0,-1.319043517E0,-1.618146300E0,1.023111153E1
4.159591443E0,-1.221535921E0,-7.142575383E-1,9.882357597E0
4.161828504E0,-9.218349457E-1,-3.110669553E-1,9.679565430E0
4.164065565E0,-6.191428304E-1,-5.742774606E-1,9.711270332E0
4.166301709E0,-4.217349887E-1,-7.118647099E-1,9.909276962E0
4.168538282E0,-5.144568682E-1,-7.262216806E-1,1.010847950E1
4.170774793E0,-7.411768436E-1,-7.423732281E-1,1.025444126E1
4.173008618E0,-9.619147182E-1,-7.016952634E-1,1.039980507E1
4.175237195E0,-1.033699393E0,-9.164510965E-1,1.059063339E1
4.177481824E0,-3.792623878E-1,-1.036690354E0,1.059182930E1
4.179710218E0,5.377869010E-1,-1.274776220E0,1.052901745E1
4.181962110E0,8.225327730E-1,-2.068595171E0,1.062831974E1
4.184194776E0,8.889335990E-1,-2.286342144E0,1.096331501E1
4.186434522E0,9.762716293E-1,-1.998006940E0,1.133061314E1
4.188668043E0,8.542376757E-1,-1.752742529E0,1.142931747E1
4.190905042E0,8.668000102E-1,-1.632503271E0,1.131027412E1
4.193142713E0,8.021938205E-1,-1.186241865E0,1.119422245E1
4.195378064E0,3.714857101E-1,-7.423732281E-1,1.069352436E1
4.197615186E0,6.759724021E-2,-6.951149702E-1,9.865608215E0
4.199852186E0,-3.888336942E-2,-8.793623447E-1,9.650253296E0
4.202088331E0,-4.313062727E-1,-1.649851203E0,1.003908730E1
4.204324842E0,-6.723831892E-1,-1.877767563E0,1.041416264E1
4.206561109E0,-4.821537733E-1,-1.396810174E0,1.026700401E1
4.208794995E0,-4.815555513E-1,-1.255633712E0,9.809376717E0
4.211023816E0,-4.474578202E-1,-1.025324464E0,9.551549911E0
4.213271497E0,-5.353940725E-1,-8.045865893E-1,9.579067230E0
4.215508802E0,-5.078766346E-1,-7.627122402E-1,9.779465675E0
4.217748548E0,-3.744767308E-1,-5.682953596E-1,9.675378799E0
4.219981580E0,-1.621137410E-1,-2.356930375E-1,9.433703423E0
4.222217847E0,-4.031906128E-1,-7.004988194E-1,9.408578873E0
4.224454603E0,-7.680960894E-1,-1.609173179E0,9.644869804E0
4.226689099E0,-8.458628058E-1,-1.801795483E0,1.009771156E1
4.228914563E0,-7.639086246E-1,-1.396810174E0,1.010249710E1
4.231153272E0,-6.568298340E-1,-8.273184299E-1,9.778269768E0
4.233401685E0,-5.401797295E-1,-8.189435601E-1,9.574281693E0
4.235641736E0,-1.339980662E-1,-8.823533654E-1,9.592227936E0
4.237877515E0,3.702892959E-1,-4.881358147E-1,9.562915802E0
4.240111219E0,7.250252366E-1,-6.496513486E-1,9.218349457E0
4.242347791E0,1.344766378E0,-9.451649189E-1,9.081359863E0
4.244584973E0,1.759921074E0,-1.158724308E0,9.452845573E0
4.246819715E0,1.447059512E0,-1.720439434E0,9.842277527E0
4.249046094E0,8.967102766E-1,-2.258226395E0,9.981060982E0
4.251292126E0,2.865405083E-1,-2.425724030E0,9.937392235E0
4.253517041E0,1.411765367E-1,-2.141576290E0,1.002652550E1
4.255758741E0,1.142572835E-1,-1.715653777E0,1.000618649E1
4.258004529E0,-2.285145670E-1,-1.986641049E0,9.846465111E0
4.260244093E0,-2.458625287E-1,-1.748555183E0,1.005045319E1
4.262481275E0,-1.070788130E-1,-6.753742099E-1,1.020778179E1
4.264715711E0,-2.225325108E-1,-1.417747438E-1,1.001456070E1
4.266951123E0,-5.479564071E-1,-5.473581553E-1,9.821938515E0
4.269188428E0,-5.730810165E-1,-1.065404296E0,1.027059269E1
4.271425428E0,-3.834498227E-1,-1.426122308E0,1.102672482E1
4.273661329E0,-3.044866920E-1,-1.919641972E0,1.107577801E1
4.275897840E0,-2.123630047E-1,-2.227119684E0,1.100100231E1
4.278134412E0,-4.073780477E-1,-2.019542217E0,1.118943691E1
4.280371533E0,-8.817551732E-1,-1.447059512E0,1.098365402E1
4.282609082E0,-9.044869542E-1,-6.454638839E-1,1.049551868E1
4.284844678E0,-9.882357717E-1,-2.195414752E-1,9.754940033E0
4.287081739E0,-1.016949654E0,-4.893322289E-1,9.235696793E0
4.289318738E0,-3.619144261E-1,-7.399803996E-1,9.566504478E0
4.291555738E0,-1.262213886E-1,-1.400997639E0,1.005105114E1
4.293795789E0,-1.202393398E-1,-2.196012974E0,1.024307537E1
4.296027723E0,4.612165689E-1,-1.952543259E0,1.052004433E1
4.298264844E0,5.395814776E-1,-1.762912035E0,1.060618591E1
4.300501172E0,4.779663086E-1,-1.871187329E0,1.037707329E1
4.302737745E0,1.035493970E0,-1.204187989E0,1.014736271E1
4.304974988E0,1.041476011E0,-6.616154313E-1,9.722038269E0
4.307211805E0,8.129615188E-1,-6.071787477E-1,9.071190834E0
4.309447950E0,9.571290612E-1,-4.115654826E-1,8.762516975E0
4.311684522E0,5.970092416E-1,-1.004985452E0,9.003593445E0
4.313921338E0,1.190429255E-1,-1.448854089E0,9.281160355E0
4.316158155E0,-1.256231815E-1,-1.355534077E0,9.469595909E0
4.318395643E0,-5.503492355E-1,-1.521835208E0,9.575477600E0
4.320630933E0,-6.257231236E-1,-1.448255897E0,9.522237778E0
4.322868116E0,-5.868397355E-1,-1.085743308E0,9.526425362E0
4.325105359E0,-6.029912829E-1,-8.985049129E-1,9.488140106E0
4.327341321E0,-7.836493850E-2,-8.907282352E-1,9.149555206E0
4.329578077E0,2.386840582E-1,-1.106680512E0,9.276973724E0
4.331814344E0,1.196411327E-1,-1.484746456E0,9.738788605E0
4.334051465E0,-3.320041299E-1,-1.841875196E0,9.854242325E0
4.336288892E0,-7.854440212E-1,-1.912463546E0,1.006480980E1
4.338521253E0,-1.056431174E0,-1.867598057E0,1.051525879E1
4.340746289E0,-1.464407444E0,-1.653440475E0,1.098365402E1
4.342984021E0,-1.733600020E0,-1.046859860E0,1.098485088E1
4.345219983E0,-1.892124534E0,-1.046261668E0,1.048235798E1
4.347459668E0,-1.275972724E0,-1.015753269E0,1.015932655E1
4.349695386E0,2.009970993E-1,-6.077769399E-1,1.009591675E1
4.351932813E0,1.193420291E0,-5.413761139E-1,1.011924744E1
4.354170789E0,1.264008522E0,-7.992027402E-1,9.819545746E0
4.356407239E0,1.062413216E0,-1.354337573E0,9.461220741E0
4.358643018E0,9.912267923E-1,-1.478764415E0,9.799206734E0
4.360880018E0,9.038887620E-1,-9.822536707E-1,1.017906761E1
4.363115980E0,3.840480447E-1,-1.034895778E0,9.830911636E0
4.365353223E0,9.690931439E-2,-1.319043517E0,9.251849174E0
4.367589612E0,-1.190429255E-1,-1.373480201E0,9.235696793E0
4.369827649E0,-4.779663086E-1,-1.173081279E0,9.541978836E0
4.372064100E0,-5.389832854E-1,-8.650053740E-1,9.302696228E0
4.374299878E0,-5.258227587E-1,-1.255035520E0,8.788239479E0
4.376539869E0,-4.893322289E-1,-1.633699656E0,8.894122124E0
4.378786085E0,-3.140579760E-1,-1.283749342E0,9.157332420E0
4.381011853E0,-5.300102234E-1,-1.304686546E0,9.165108681E0
4.383255201E0,-4.779663086E-1,-1.405185103E0,9.080163956E0
4.385484571E0,-4.809573591E-1,-1.482951880E0,9.342177391E0
4.387719556E0,-4.923232496E-1,-1.289731383E0,9.947562218E0
4.389955579E0,-4.965106845E-1,-8.404789567E-1,1.003729248E1
4.392192945E0,-7.591229677E-1,-3.565305769E-1,9.619147301E0
4.394429700E0,-9.152546525E-1,-9.391828626E-2,9.240483284E0
4.396667005E0,-8.087740541E-1,-3.966103494E-1,9.128020287E0
4.398901868E0,-6.765705943E-1,-7.387840152E-1,9.358329773E0
4.401139417E0,-4.468596280E-1,-1.015753269E0,9.485149384E0
4.403376355E0,-2.632105052E-1,-1.243669510E0,9.515657425E0
4.405617261E0,-3.230310604E-2,-9.996016622E-1,9.808179855E0
4.407865186E0,-2.123630047E-1,-5.234299302E-1,9.834501266E0
4.410100904E0,-1.746760458E-1,-2.673979402E-1,9.162117958E0
4.412338270E0,4.169493318E-1,-6.191428304E-1,8.848658562E0
4.414571912E0,1.045663476E0,-1.205384374E0,9.436694145E0
4.416807691E0,1.320239902E0,-1.857428551E0,9.879366875E0
4.419043836E0,1.040279627E0,-2.661417007E0,9.906884193E0
4.421277600E0,7.190431952E-1,-2.834896564E0,1.021376324E1
4.423505811E0,3.906283081E-1,-3.171686411E0,1.056909752E1
4.425755567E0,6.526423693E-1,-2.368894339E0,1.096570778E1
4.427989636E0,3.625126183E-1,-8.542376757E-1,1.106560802E1
4.430225904E0,-6.287141442E-1,-1.944168359E-1,1.034955597E1
4.432465223E0,-6.562315822E-1,3.367897868E-1,9.375677109E0
4.434701123E0,-2.237289101E-1,8.769695163E-1,8.997611046E0
4.436938917E0,-4.935196638E-1,-2.847459018E-1,8.830113411E0
4.439173902E0,1.292124242E-1,-2.006381750E0,8.767302513E0
4.441408399E0,8.931210637E-1,-2.592025042E0,9.848259926E0
4.443638013E0,5.042873621E-1,-2.338385820E0,1.099322510E1
4.445883985E0,-2.404786795E-1,-1.585245013E0,1.085623646E1
4.448118359E0,-1.292124271E0,-6.699903607E-1,9.801001549E0
4.450346631E0,-1.680359721E0,-2.237289101E-1,8.813961983E0
4.452585523E0,-5.802595019E-1,7.800601721E-1,8.469993591E0
4.454837110E0,3.912265003E-1,1.593619823E0,8.276773453E0
4.457070387E0,-2.057827413E-1,3.122633696E-1,8.078168869E0
4.459306776E0,-9.649057388E-1,-1.152742267E0,8.750552177E0
4.461540601E0,-1.086939692E0,-1.631905079E0,9.322437286E0
4.463777478E0,1.878365725E-1,-2.392822742E0,8.491529465E0
4.466014661E0,1.274776220E0,-3.122035265E0,8.478966713E0
4.468248609E0,5.030909777E-1,-3.201596737E0,9.559326172E0
4.470475782E0,-2.931207791E-2,-2.085943222E0,9.876974106E0
4.472724317E0,-3.571287692E-1,-9.014959335E-1,9.266205788E0
4.474960828E0,-9.732806087E-1,1.686939895E-1,8.543573380E0
4.477200635E0,-4.127618968E-1,4.408775866E-1,7.875975609E0
4.479435132E0,5.198407173E-1,-1.674975902E-1,8.123632431E0
4.481670484E0,1.191027522E0,-6.891329288E-1,9.008378983E0
4.483907666E0,1.192223907E0,-1.482353687E0,9.829715729E0
4.486144971E0,4.049852192E-1,-2.295315027E0,1.035314560E1
4.488381055E0,-3.290131092E-1,-2.166102648E0,1.066600704E1
4.490617444E0,-7.244270444E-1,-1.823929071E0,1.039920712E1
4.492854139E0,-2.321037948E-1,-1.591227055E0,9.201599121E0
4.495091016E0,1.149751306E0,-1.131206870E0,8.565108299E0
4.497328809E0,1.717448473E0,-6.969096065E-1,9.017950058E0
4.499564100E0,8.913264275E-1,-3.224328458E-1,9.333803177E0
4.501801221E0,-5.970092416E-1,3.607180119E-1,9.175876617E0
4.504038160E0,-1.984248161E0,4.785645381E-2,8.973084450E0
4.506274061E0,-1.753340840E0,-1.161117196E0,9.062815666E0
4.508510633E0,-1.429711580E-1,-2.030908108E0,9.803992271E0
4.510747205E0,6.011967063E-1,-2.434098721E0,1.067019463E1
4.512984387E0,-3.068794906E-1,-2.578266382E0,1.078564835E1
4.515222059E0,-1.663011789E0,-2.296511650E0,1.014377308E1
4.517457166E0,-2.207977057E0,-1.062413216E0,9.754940033E0
4.519691419E0,-1.779063582E0,-1.010967568E-1,9.418747902E0
4.521916822E0,-4.528416991E-1,6.460621208E-2,8.634500504E0
4.524154737E0,1.006181955E0,5.862415582E-2,8.280363083E0
4.526404004E0,1.317248821E0,-4.785645306E-1,8.560921669E0
4.528643384E0,6.939185858E-1,-6.334998012E-1,8.927022934E0
4.530880811E0,-2.829512656E-1,-1.273579836E0,8.924032211E0
4.533115125E0,-7.351947427E-1,-2.013560295E0,8.992825508E0
4.535350477E0,1.256231815E-1,-1.773081541E0,9.071788788E0
4.537587598E0,6.424728632E-1,-1.733600020E0,9.152546883E0
4.539824842E0,4.205385745E-1,-1.619342685E0,9.007183075E0
4.542060743E0,-2.117647976E-1,-1.044467092E0,8.767302513E0
4.544297315E0,-7.806583643E-1,-7.435696125E-1,8.584849358E0
4.546533032E0,-6.861419082E-1,-9.870393276E-1,8.300103188E0
4.548767774E0,7.178467698E-3,-1.286142230E0,8.583653450E0
4.551008436E0,3.816552162E-1,-1.624128342E0,9.055039406E0
4.553243787E0,6.717849374E-1,-2.182254314E0,8.872586250E0
4.555481701E0,7.387840152E-1,-1.834098577E0,8.910871506E0
4.557718152E0,-9.511470050E-2,-8.081758618E-1,9.001200676E0
4.559954053E0,-1.173081279E0,-1.368694544E0,8.615956306E0
4.562190564E0,-9.726824164E-1,-1.225125194E0,8.941379547E0
4.564426832E0,-2.781656384E-1,-1.146162033E0,9.171689034E0
4.566661023E0,-2.733799815E-1,-2.700898647E0,9.341579437E0
4.568889844E0,5.946164131E-1,-1.683948994E0,9.857831001E0
4.571137464E0,1.836491376E-1,-7.010970116E-1,9.714262009E0
4.573371717E0,-7.651050687E-1,-1.655235052E0,9.215956688E0
