"Time (s)","Gyroscope x (rad/s)","Gyroscope y (rad/s)","Gyroscope z (rad/s)"
2.399378600E-2,-1.832595654E-2,-8.491026610E-2,3.512475174E-3
2.622828400E-2,2.504547499E-2,-2.532036304E-1,1.985311974E-3
2.846632100E-2,4.535674304E-2,-4.040873647E-1,6.414085161E-3
3.070631100E-2,2.748893574E-2,-4.958698750E-1,9.468411095E-3
3.294221200E-2,-1.374446787E-2,-5.218316317E-1,1.145372353E-2
3.517841900E-2,-6.963863969E-2,-4.891503453E-1,1.114829071E-2
3.741444200E-2,-1.058324054E-1,-3.901901841E-1,5.192354787E-3
3.965174600E-2,-1.067487001E-1,-2.579378486E-1,8.093964309E-3
4.188862300E-2,-6.811147183E-2,-1.093448773E-1,9.010262787E-3
4.412544000E-2,-7.024950348E-3,4.596760869E-2,5.345070735E-3
4.636176800E-2,5.253441259E-2,1.928807050E-1,8.857546374E-3
4.859937800E-2,7.971791178E-2,3.161227703E-1,8.399397135E-3
5.083521700E-2,8.567385375E-2,4.251621962E-1,3.054326226E-4
5.307496300E-2,6.154467165E-2,5.119050741E-1,-3.207042580E-3
5.530836200E-2,2.794708498E-2,5.513058901E-1,-3.359758761E-3
5.754597200E-2,1.404990070E-2,5.334380865E-1,-5.955935922E-3
5.978278800E-2,1.237002108E-2,4.497495294E-1,-7.635815535E-3
6.201911600E-2,1.985311974E-3,3.066543639E-1,-1.069014147E-2
6.425471200E-2,-5.039638374E-3,1.382082552E-1,-7.788531948E-3
6.649238300E-2,-1.114829071E-2,-3.894266114E-2,-3.665191587E-3
6.872920000E-2,-1.450804994E-2,-2.038762718E-1,4.276056774E-3
7.096821400E-2,-1.985312067E-2,-3.396410644E-1,9.773843922E-3
7.321571100E-2,-3.772092983E-2,-4.327980280E-1,1.160643995E-2
7.545252800E-2,-7.712173462E-2,-4.914411008E-1,1.114829071E-2
7.769019800E-2,-1.140790880E-1,-4.967861474E-1,9.468411095E-3
7.992298600E-2,-1.269072592E-1,-4.576907754E-1,3.512475174E-3
8.215986400E-2,-1.021672115E-1,-3.950771093E-1,5.192354787E-3
8.439423900E-2,-4.871650413E-2,-3.100140989E-1,9.621127509E-3
8.661848200E-2,8.552113548E-3,-2.151772827E-1,3.207042580E-3
8.885462700E-2,5.360342562E-2,-1.201877370E-1,3.054326226E-4
9.109412900E-2,7.574728876E-2,-4.123340361E-3,-2.748893574E-3
9.334608200E-2,7.101308554E-2,1.269072592E-1,-1.069014193E-3
9.558375300E-2,3.909537569E-2,2.587014437E-1,5.345070735E-3
9.781934900E-2,-2.901609987E-3,3.759875596E-1,1.038470957E-2
1.000533570E-1,-3.924809024E-2,4.641048610E-1,1.160643995E-2
1.022901740E-1,-5.574145541E-2,5.007568002E-1,3.054326167E-3
1.045262580E-1,-3.741549700E-2,4.859432876E-1,-4.123340361E-3
1.067628910E-1,1.435533352E-2,4.302018583E-1,-5.192354787E-3
1.089997080E-1,7.299839705E-2,3.454442918E-1,-7.483099122E-3
1.112365240E-1,1.078177169E-1,2.428189367E-1,-7.635815535E-3
1.134713260E-1,1.105666086E-1,1.359175146E-1,-5.650503561E-3
1.156956910E-1,8.491026610E-2,2.840523422E-2,1.069014193E-3
1.179319580E-1,4.092797264E-2,-8.002334833E-2,3.054326226E-4
1.201688360E-1,-6.566801574E-3,-1.724167168E-1,-4.123340361E-3
1.224086430E-1,-5.757404864E-2,-2.600758672E-1,-7.330383174E-3
1.246473520E-1,-9.468411654E-2,-3.284927905E-1,4.276056774E-3
1.268957640E-1,-1.021672115E-1,-3.889684379E-1,1.374446787E-2
1.291325200E-1,-7.360926270E-2,-4.381431043E-1,1.496619824E-2
1.313702520E-1,-3.451388702E-2,-4.546364546E-1,1.038470957E-2
1.336026740E-1,-7.635815418E-4,-4.323398769E-1,1.069014147E-2
1.358397340E-1,1.649336144E-2,-3.683517575E-1,9.926560335E-3
1.380767950E-1,1.343903504E-2,-2.796235681E-1,2.901609987E-3
1.403128790E-1,-2.443460980E-3,-1.531744599E-1,-2.748893574E-3
1.425492680E-1,-2.290744707E-2,-7.177666761E-3,3.665191587E-3
1.447860240E-1,-3.115412779E-2,1.337794960E-1,7.941247895E-3
1.470228400E-1,-2.229658142E-2,2.623666227E-1,3.665191587E-3
1.492605110E-1,1.084285788E-2,3.793473244E-1,-5.497787148E-3
1.514962280E-1,4.841107130E-2,4.648684561E-1,-1.328631863E-2
1.537331060E-1,7.651086897E-2,5.152648091E-1,-1.038470957E-2
1.559701670E-1,8.979719132E-2,5.064072609E-1,-6.108652451E-4
1.582033200E-1,8.216137439E-2,4.398229718E-1,8.857546374E-3
1.604315920E-1,6.490442902E-2,3.188716471E-1,8.246680722E-3
1.626803110E-1,3.619376570E-2,1.774563491E-1,1.374446787E-3
1.649162110E-1,1.374446787E-3,3.497203439E-2,-4.428773187E-3
1.671568120E-1,-3.802636266E-2,-9.178250283E-2,-6.566801574E-3
1.693890510E-1,-7.345654815E-2,-1.966986060E-1,-2.290744567E-3
1.716264160E-1,-8.384125680E-2,-2.826778889E-1,9.162978968E-4
1.738634160E-1,-6.933320314E-2,-3.556762934E-1,-4.581489484E-4
1.760995000E-1,-3.817907721E-2,-3.987422884E-1,-2.901609987E-3
1.783358890E-1,-1.130100712E-2,-4.053090811E-1,9.162978968E-4
1.805727670E-1,-7.177666761E-3,-3.799581826E-1,1.221730467E-2
1.828099490E-1,-2.351831272E-2,-3.384193480E-1,1.954768784E-2
1.850470710E-1,-4.108068720E-2,-2.907718420E-1,1.221730467E-2
1.872825440E-1,-4.932736978E-2,-2.177734673E-1,1.527163113E-4
1.895194220E-1,-3.985895589E-2,-1.148426682E-1,-2.901609987E-3
1.917570320E-1,-1.893682219E-2,3.817907767E-3,2.596177394E-3
1.939928110E-1,7.024950348E-3,1.342376322E-1,2.138028387E-3
1.962292000E-1,2.916881628E-2,2.503020465E-1,-4.581489135E-3
1.984656500E-1,4.337143153E-2,3.436116874E-1,-6.566801574E-3
2.006997800E-1,4.459316283E-2,4.042400718E-1,-5.039638374E-3
2.029284180E-1,3.283400834E-2,4.311181605E-1,-3.817907767E-3
2.051759770E-1,2.015855350E-2,4.155410826E-1,-7.635815535E-3
2.074130980E-1,1.191187184E-2,3.672827184E-1,-1.160643995E-2
2.096533330E-1,2.901609987E-3,2.909245789E-1,-1.328631863E-2
2.118861210E-1,2.138028387E-3,1.902845204E-1,-1.725694351E-2
2.141224490E-1,8.552113548E-3,8.216137439E-2,-6.719517522E-3
2.163589610E-1,2.321287990E-2,-3.711006418E-2,7.635815535E-3
2.185960820E-1,2.199114859E-2,-1.548543423E-1,1.206458826E-2
2.208336920E-1,-9.162978968E-4,-2.635883391E-1,-3.207042580E-3
2.230692270E-1,-5.436700583E-2,-3.523165286E-1,-1.756237634E-2
2.253061040E-1,-1.159116775E-1,-4.094324410E-1,-1.343903504E-2
2.275433480E-1,-1.473712474E-1,-4.390594065E-1,7.024950348E-3
2.297791870E-1,-1.269072592E-1,-4.540255964E-1,1.695151068E-2
2.320158820E-1,-7.757988572E-2,-4.550946057E-1,1.252273750E-2
2.342525760E-1,-2.367102914E-2,-4.088215530E-1,9.162978968E-4
2.364895140E-1,8.093964309E-3,-3.025310040E-1,-4.581489135E-3
2.387272470E-1,2.565634064E-2,-1.609629989E-1,-2.596177394E-3
2.409624760E-1,3.115412779E-2,-1.298088674E-2,4.123340361E-3
2.431994140E-1,2.535090782E-2,1.253800988E-1,1.084285788E-2
2.454365970E-1,1.252273750E-2,2.289217561E-1,1.847867295E-2
2.476695070E-1,1.985311974E-3,3.127630055E-1,7.635815535E-3
2.498971680E-1,-1.084285788E-2,3.979786932E-1,-9.162978269E-3
2.521456430E-1,-2.046398632E-2,4.721988440E-1,-1.267545391E-2
2.543827640E-1,-8.704829961E-3,5.083925724E-1,-3.817907767E-3
2.566228160E-1,2.535090782E-2,4.906775057E-1,-2.443460980E-3
2.588539560E-1,5.849034712E-2,4.208861589E-1,-8.552113548E-3
2.610929690E-1,6.856962293E-2,3.103195429E-1,-1.374446787E-2
2.633299690E-1,5.390885845E-2,1.892155111E-1,-1.802052557E-2
2.655662970E-1,1.557706390E-2,6.368270516E-2,-1.282817032E-2
2.678023200E-1,-2.901609987E-2,-6.765332818E-2,3.359758761E-3
2.700387090E-1,-6.032294407E-2,-2.066251636E-1,1.359175146E-2
2.722760750E-1,-7.773260027E-2,-3.410155177E-1,1.175915636E-2
2.745135620E-1,-9.330966324E-2,-4.450153410E-1,6.261368748E-3
2.767459840E-1,-1.044579595E-1,-5.030475259E-1,5.955935922E-3
2.789740730E-1,-9.560041130E-2,-4.995350540E-1,1.069014193E-3
2.812232790E-1,-7.742717117E-2,-4.502076805E-1,-8.399397135E-3
2.834561890E-1,-4.703662544E-2,-3.549126983E-1,-1.618792862E-2
2.856867190E-1,-1.893682219E-2,-2.402227521E-1,-1.191187184E-2
2.879320200E-1,-4.428773187E-3,-1.311833113E-1,-3.970623948E-3
2.901693850E-1,-4.886921961E-3,-3.420845419E-2,1.527163113E-4
2.924098640E-1,-1.053742506E-2,5.207626149E-2,-7.635815418E-4
2.946423470E-1,-2.962696366E-2,1.447750628E-1,-3.054326167E-3
2.968795900E-1,-4.352414981E-2,2.457205504E-1,-5.192354787E-3
2.991165900E-1,-4.291328415E-2,3.428481221E-1,0.000000000E0
3.013525520E-1,-1.802052557E-2,4.175263941E-1,6.719517522E-3
3.035892460E-1,1.099557430E-2,4.509712756E-1,2.138028387E-3
3.058256350E-1,2.916881628E-2,4.300491214E-1,-8.704829961E-3
3.080635500E-1,2.153299935E-2,3.524692357E-1,-1.649336144E-2
3.103026250E-1,-3.970623948E-3,2.449569702E-1,-2.565634064E-2
3.125357790E-1,-2.611448988E-2,1.276708394E-1,-2.397646010E-2
3.147725350E-1,-3.375030309E-2,2.748893574E-3,-8.552113548E-3
3.170090450E-1,-3.481931984E-2,-1.099557430E-1,-4.581489484E-4
3.192457400E-1,-4.046982154E-2,-2.105957866E-1,-9.162978968E-4
3.214823730E-1,-5.161811411E-2,-2.735149264E-1,-2.443460980E-3
3.237189460E-1,-6.429356337E-2,-2.927571833E-1,-3.970623948E-3
3.259514900E-1,-7.483099401E-2,-2.645046413E-1,-1.527163113E-4
3.281754890E-1,-7.757988572E-2,-2.099849284E-1,1.099557430E-2
3.304290900E-1,-6.429356337E-2,-1.603521258E-1,1.863138936E-2
3.326659060E-1,-3.420845419E-2,-1.391245574E-1,1.038470957E-2
3.349074830E-1,-3.359758761E-3,-1.372919679E-1,-8.857546374E-3
3.371389900E-1,8.093964309E-3,-1.253800988E-1,-1.481348183E-2
3.393754400E-1,5.192354787E-3,-8.292495459E-2,-8.552113548E-3
3.416121950E-1,-1.221730490E-3,-2.687807009E-2,3.817907767E-3
3.438490730E-1,-2.443460980E-3,3.375030309E-2,6.566801574E-3
3.460868660E-1,-7.330383174E-3,9.697485715E-2,6.719517522E-3
3.483221560E-1,-9.773843922E-3,1.528690308E-1,4.428773187E-3
3.505592780E-1,-1.725694351E-2,2.038762718E-1,-1.007927675E-2
3.527962160E-1,-2.122756653E-2,2.550362349E-1,-1.114829071E-2
3.550321780E-1,-9.621127509E-3,2.838996351E-1,-1.069014193E-3
3.572689340E-1,1.267545391E-2,2.871066630E-1,2.748893574E-3
3.595052620E-1,4.031710699E-2,2.550362349E-1,1.679879380E-3
3.617423830E-1,5.635231733E-2,1.939497143E-1,3.054326226E-4
3.639798710E-1,6.215553731E-2,1.162171140E-1,-1.221730490E-3
3.662155280E-1,4.810563847E-2,2.916881628E-2,-4.581489484E-4
3.684526490E-1,1.802052557E-2,-5.283984542E-2,-5.955935922E-3
3.706898320E-1,-2.764165215E-2,-1.247692257E-1,-1.023199316E-2
3.729255500E-1,-6.337726861E-2,-1.823432744E-1,-8.399397135E-3
3.751625490E-1,-8.155050874E-2,-2.292271852E-1,3.512475174E-3
3.773988170E-1,-6.505715102E-2,-2.635883391E-1,4.734205548E-3
3.796359380E-1,-3.695734590E-2,-2.738203406E-1,1.221730490E-3
3.818731210E-1,-1.053742506E-2,-2.464841306E-1,-1.985311974E-3
3.841087770E-1,4.581489484E-4,-1.956295967E-1,-2.901609987E-3
3.863458380E-1,5.650503561E-3,-1.156062484E-1,2.290744567E-3
3.885829600E-1,8.552113548E-3,-3.558290005E-2,6.261368748E-3
3.908189820E-1,1.252273750E-2,3.833179548E-2,5.497787148E-3
3.930553110E-1,1.404990070E-2,1.134682223E-1,3.359758761E-3
3.952918830E-1,-9.162978968E-4,1.684460938E-1,-3.054326226E-4
3.975289430E-1,-7.177666761E-3,2.171625942E-1,-7.483099122E-3
3.997664920E-1,1.985311974E-3,2.435825169E-1,-1.710422710E-2
4.020019050E-1,1.695151068E-2,2.493857294E-1,-1.695151068E-2
4.042392090E-1,3.237585723E-2,2.235766798E-1,-4.734205548E-3
4.064762090E-1,4.444044828E-2,1.579086632E-1,7.483099122E-3
4.087121710E-1,5.635231733E-2,7.391469181E-2,2.290744567E-3
4.109489260E-1,4.856378585E-2,-3.665191587E-3,-5.497787148E-3
4.131854380E-1,2.046398632E-2,-6.017022580E-2,-7.177666761E-3
4.154223150E-1,-1.130100712E-2,-1.020144969E-1,-1.527163084E-3
4.176597420E-1,-3.283400834E-2,-1.295034289E-1,5.650503561E-3
4.198951540E-1,-2.977968007E-2,-1.586722434E-1,9.162978269E-3
4.221325200E-1,-1.420261711E-2,-1.844813079E-1,7.941247895E-3
4.243695810E-1,1.679879380E-3,-1.944078654E-1,1.985311974E-3
4.266035280E-1,4.581489135E-3,-1.727221459E-1,-1.679879380E-3
4.288333870E-1,-1.679879380E-3,-1.178969890E-1,-6.261368748E-3
4.310785040E-1,-5.039638374E-3,-4.016438872E-2,-8.552113548E-3
4.333155640E-1,-7.177666761E-3,3.741549700E-2,-9.162978968E-4
4.355552490E-1,3.054326226E-4,1.076650023E-1,3.207042580E-3
4.377884650E-1,1.252273750E-2,1.560760736E-1,-1.374446787E-3
4.400255860E-1,3.023782931E-2,1.847867370E-1,1.221730490E-3
4.422628300E-1,4.367686436E-2,1.785253733E-1,5.039638374E-3
4.444987310E-1,6.001751125E-2,1.380555481E-1,9.926560335E-3
4.467323730E-1,6.490442902E-2,7.376197726E-2,7.177666761E-3
4.489600960E-1,4.886921868E-2,9.621127509E-3,1.985311974E-3
4.512043580E-1,1.603521220E-2,-3.207042441E-2,3.970623948E-3
4.534281740E-1,-1.267545391E-2,-4.734205827E-2,-1.221730490E-3
4.556849500E-1,-3.084869497E-2,-3.848451003E-2,-1.114829071E-2
4.579188360E-1,-3.023782931E-2,-1.298088674E-2,-1.588249579E-2
4.601604740E-1,-5.039638374E-3,1.802052557E-2,-9.468411095E-3
4.623919800E-1,2.596177347E-2,3.436116874E-2,-1.832595794E-3
4.646286140E-1,5.070181563E-2,3.634648025E-2,-1.527163084E-3
4.668651860E-1,5.910121277E-2,2.641992271E-2,-2.748893574E-3
4.691023070E-1,4.856378585E-2,-6.108652335E-3,3.054326167E-3
4.713399780E-1,2.657263726E-2,-5.177082866E-2,8.857546374E-3
4.735750860E-1,4.886921961E-3,-9.498954564E-2,7.330383174E-3
4.758122070E-1,-1.328631863E-2,-1.346957833E-1,8.246680722E-3
4.780493900E-1,-2.489275858E-2,-1.647808999E-1,1.038470957E-2
4.802853520E-1,-1.649336144E-2,-1.771509200E-1,6.719517522E-3
4.825219240E-1,5.955935922E-3,-1.617265791E-1,-2.748893574E-3
4.847584360E-1,4.046982154E-2,-1.065959856E-1,-9.621127509E-3
4.869954960E-1,6.200282276E-2,-1.481348183E-2,-6.566801574E-3
4.892328620E-1,6.261368841E-2,8.338310570E-2,3.512475174E-3
4.914647350E-1,4.581489414E-2,1.663080603E-1,5.039638374E-3
4.936898320E-1,1.756237634E-2,2.275473028E-1,-1.069014193E-3
4.959425790E-1,-1.481348183E-2,2.681698501E-1,-1.099557430E-2
4.981786630E-1,-2.794708498E-2,2.890919745E-1,-9.773843922E-3
5.004193850E-1,-9.468411095E-3,2.900082767E-1,-5.955935922E-3
5.026517460E-1,3.665191308E-2,2.562579811E-1,4.123340361E-3
5.048886230E-1,7.712173462E-2,1.887573600E-1,1.023199316E-2
5.071262940E-1,1.001819000E-1,1.117883399E-1,6.414085161E-3
5.093617070E-1,9.071348608E-2,1.252273750E-2,-1.527163113E-4
5.115988280E-1,7.162395120E-2,-8.781187981E-2,-5.650503561E-3
5.138358280E-1,4.260785133E-2,-1.818851233E-1,-6.261368748E-3
5.160719730E-1,7.330383174E-3,-2.771801054E-1,1.679879380E-3
5.183085450E-1,-4.932736978E-2,-3.426954150E-1,-3.054326226E-4
5.205421880E-1,-9.529497474E-2,-3.613267839E-1,-1.985311974E-3
5.227704590E-1,-1.049161032E-1,-3.452915847E-1,1.145372353E-2
5.250196660E-1,-7.345654815E-2,-3.058907688E-1,2.046398632E-2
5.272550180E-1,-1.175915636E-2,-2.428189367E-1,1.145372353E-2
5.294950690E-1,3.940080851E-2,-1.563815027E-1,1.221730490E-3
5.317293830E-1,5.497787148E-2,-4.993823543E-2,6.108652451E-4
5.339647960E-1,4.993823543E-2,6.429356337E-2,3.359758761E-3
5.361999030E-1,3.787364438E-2,1.421788931E-1,1.099557430E-2
5.384383060E-1,3.039054573E-2,1.957823038E-1,6.261368748E-3
5.406752440E-1,1.511891466E-2,2.263255715E-1,-2.290744567E-3
5.429134650E-1,9.162978968E-4,2.533563673E-1,-4.886921961E-3
5.451483280E-1,-1.206458826E-2,2.779437006E-1,-4.886921961E-3
5.473854500E-1,-3.207042580E-3,2.959642112E-1,1.527163113E-4
5.496224490E-1,2.871066704E-2,2.929098904E-1,4.581489484E-4
5.518585330E-1,6.276640296E-2,2.654209435E-1,-1.832595794E-3
5.540949220E-1,7.757988572E-2,2.118175179E-1,-5.497787148E-3
5.563316780E-1,6.872233748E-2,1.342376322E-1,-4.734205548E-3
5.585684940E-1,3.970624134E-2,4.382958263E-2,-4.581489484E-4
5.608061040E-1,7.635815418E-4,-5.604688451E-2,1.221730490E-3
5.630386480E-1,-4.169155285E-2,-1.450804919E-1,1.832595794E-3
5.652670410E-1,-6.902777404E-2,-2.160935849E-1,1.221730490E-3
5.675167360E-1,-7.101308554E-2,-2.585487068E-1,2.290744567E-3
5.697516000E-1,-5.787948146E-2,-2.770273983E-1,4.734205548E-3
5.719911630E-1,-2.733621933E-2,-2.837468982E-1,2.596177394E-3
5.742245000E-1,8.399397135E-3,-2.819143236E-1,5.345070735E-3
5.764618660E-1,2.580905706E-2,-2.725986242E-1,4.276056774E-3
5.786994140E-1,1.527163107E-2,-2.530509233E-1,1.832595794E-3
5.809350100E-1,-7.330383174E-3,-2.148718536E-1,-6.108652451E-4
5.831692020E-1,-3.313944116E-2,-1.476766765E-1,-3.054326167E-3
5.853946660E-1,-4.138612002E-2,-7.101308554E-2,-3.054326226E-4
5.876333130E-1,-2.855795063E-2,1.847867295E-2,8.704829961E-3
5.898820320E-1,-2.138028387E-3,1.090394482E-1,9.315694682E-3
5.921211670E-1,3.512475267E-2,1.823432744E-1,5.039638374E-3
5.943581670E-1,6.337726861E-2,2.364048511E-1,-3.054326167E-3
5.965898560E-1,6.811147183E-2,2.848159075E-1,-1.267545391E-2
5.988162970E-1,4.169155285E-2,3.242167234E-1,-7.788531948E-3
6.010654420E-1,3.970623948E-3,3.419318199E-1,4.581489484E-4
6.033025640E-1,-2.229658142E-2,3.242167234E-1,2.596177394E-3
6.055412120E-1,-1.985312067E-2,2.658790946E-1,1.221730490E-3
6.077747930E-1,9.162978269E-3,1.766927689E-1,-3.817907767E-3
6.100113040E-1,4.566217586E-2,9.101892263E-2,-7.483099122E-3
6.122485480E-1,7.483099401E-2,1.527163107E-2,-3.054326226E-4
6.144862800E-1,6.719517708E-2,-5.131268129E-2,1.404990070E-2
6.167185790E-1,3.497203439E-2,-1.223257631E-1,2.214386500E-2
6.189464850E-1,-7.483099122E-3,-2.101376504E-1,1.649336144E-2
6.211956310E-1,-5.803219974E-2,-2.892446816E-1,-7.483099122E-3
6.234315920E-1,-1.032362282E-1,-3.332269788E-1,-2.275473066E-2
6.256714000E-1,-1.253800988E-1,-3.327688277E-1,-1.313360315E-2
6.279046760E-1,-1.075122803E-1,-2.942843437E-1,4.276056774E-3
6.301417970E-1,-5.207626149E-2,-2.286163121E-1,8.704829961E-3
6.323792240E-1,1.374446787E-2,-1.400408596E-1,4.734205548E-3
6.346146980E-1,6.490442902E-2,-5.009094998E-2,5.497787148E-3
6.368519410E-1,7.895433158E-2,3.466660157E-2,4.734205548E-3
6.390888190E-1,5.971207842E-2,1.139263660E-1,-6.108652335E-3
6.413221560E-1,1.924225502E-2,1.863138974E-1,-2.443460980E-3
6.435493900E-1,-2.535090782E-2,2.393064648E-1,1.695151068E-2
6.457978030E-1,-5.818491429E-2,2.641992271E-1,2.046398632E-2
6.480333990E-1,-6.520986557E-2,2.716823220E-1,6.872233935E-3
6.502690560E-1,-4.825835302E-2,2.530509233E-1,-6.414085161E-3
6.525082520E-1,-7.177666761E-3,2.194533348E-1,-8.704829961E-3
6.547450080E-1,2.901609987E-2,1.788308024E-1,-9.773843922E-3
6.569837160E-1,4.688390717E-2,1.481348276E-1,-1.710422710E-2
6.592181520E-1,4.276056588E-2,1.250746548E-1,-1.359175146E-2
6.614546030E-1,1.878410578E-2,1.024726480E-1,-3.970623948E-3
6.636905650E-1,-6.719517522E-3,6.169738993E-2,5.345070735E-3
6.659281740E-1,-3.237585723E-2,8.857546374E-3,0.000000000E0
6.681629760E-1,-5.772676691E-2,-3.436116874E-2,-1.496619824E-2
6.703897220E-1,-7.559457421E-2,-6.429356337E-2,-1.404990070E-2
6.726384400E-1,-6.902777404E-2,-9.605856240E-2,1.038470957E-2
6.748756230E-1,-4.077525437E-2,-1.511891484E-1,2.748893574E-2
6.771143930E-1,-3.970623948E-3,-2.211332172E-1,1.893682219E-2
6.793478520E-1,1.725694351E-2,-2.761110961E-1,-1.985311974E-3
6.815845470E-1,9.468411095E-3,-2.990185320E-1,-1.313360315E-2
6.838214240E-1,-1.725694351E-2,-2.802344263E-1,-1.572977938E-2
6.860590340E-1,-4.627304152E-2,-2.506074607E-1,-9.773843922E-3
6.882945680E-1,-6.154467165E-2,-2.150245607E-1,-5.955935922E-3
6.905317510E-1,-6.688974798E-2,-1.760819107E-1,-2.290744567E-3
6.927689340E-1,-4.841107130E-2,-1.110247597E-1,-6.108652451E-4
6.950045900E-1,-1.710422710E-2,-2.428189293E-2,9.773843922E-3
6.972413460E-1,2.138028387E-3,8.093964309E-2,2.260201424E-2
6.994776130E-1,1.802052557E-2,1.934915632E-1,2.443460934E-2
7.017147950E-1,1.756237634E-2,2.918408811E-1,1.511891466E-2
7.039522830E-1,1.160643995E-2,3.611740768E-1,3.054326167E-3
7.061879400E-1,7.788531948E-3,4.085161388E-1,-6.566801574E-3
7.084250610E-1,1.191187184E-2,4.303545654E-1,-1.863138936E-2
7.106637090E-1,2.657263726E-2,4.178318381E-1,-2.596177347E-2
7.129037600E-1,3.665191308E-2,3.691153228E-1,-1.878410578E-2
7.151346560E-1,4.810563847E-2,2.767219543E-1,-3.054326167E-3
7.173709230E-1,4.673119262E-2,1.469130963E-1,4.886921961E-3
7.196067020E-1,3.130684420E-2,-4.581489135E-3,-1.985311974E-3
7.218458380E-1,-5.955935922E-3,-1.446223408E-1,-1.267545391E-2
7.240812500E-1,-5.619960278E-2,-2.539672256E-1,-2.443460980E-3
7.263183110E-1,-9.743300825E-2,-3.381139040E-1,1.527163107E-2
7.285553110E-1,-1.075122803E-1,-4.095851481E-1,2.580905706E-2
7.307914560E-1,-9.147707373E-2,-4.705189466E-1,2.199114859E-2
7.330279670E-1,-5.268712714E-2,-5.041165352E-1,1.374446787E-2
7.352642950E-1,-1.679879427E-2,-4.987714589E-1,1.832595794E-3
7.375013550E-1,-1.527163113E-4,-4.699080884E-1,-6.566801574E-3
7.397389040E-1,-8.246680722E-3,-3.848451078E-1,-1.359175146E-2
7.419745000E-1,-2.641992271E-2,-2.484694421E-1,-1.313360315E-2
7.442114380E-1,-4.413501546E-2,-8.552113175E-2,-1.023199316E-2
7.464489260E-1,-5.543602258E-2,8.460483700E-2,-4.734205548E-3
7.486851930E-1,-5.115996301E-2,2.409863323E-1,3.207042580E-3
7.509230470E-1,-2.183843218E-2,3.532328308E-1,1.130100712E-2
7.531575450E-1,8.857546374E-3,4.097378552E-1,8.093964309E-3
7.553947270E-1,2.932153270E-2,4.396702647E-1,-9.926560335E-3
7.576320930E-1,3.558290005E-2,4.431827366E-1,-1.237002108E-2
7.598681160E-1,3.756821156E-2,4.201225638E-1,-6.261368748E-3
7.621049320E-1,3.145955876E-2,3.643811047E-1,-1.679879380E-3
7.643418710E-1,2.825251780E-2,2.698497176E-1,-2.138028387E-3
7.665747190E-1,1.603521220E-2,1.510364264E-1,-6.261368748E-3
7.688023810E-1,-5.803219974E-3,4.230241850E-2,-1.802052557E-2
7.710509160E-1,-3.940080851E-2,-3.833179548E-2,-2.596177347E-2
7.732880370E-1,-7.040221989E-2,-1.044579595E-1,-1.175915636E-2
7.755285770E-1,-9.132435173E-2,-1.647808999E-1,9.773843922E-3
7.777611210E-1,-9.040805697E-2,-2.315179259E-1,1.939497143E-2
7.799979980E-1,-6.963863969E-2,-3.011565804E-1,1.924225502E-2
7.822352420E-1,-4.718934000E-2,-3.561344445E-1,9.468411095E-3
7.844710820E-1,-3.512475267E-2,-3.672827184E-1,4.581489135E-3
7.867047850E-1,-4.413501546E-2,-3.295617998E-1,-2.596177394E-3
7.889325080E-1,-5.726861581E-2,-2.467895597E-1,-6.108652335E-3
7.911784180E-1,-6.841690838E-2,-1.311833113E-1,-5.803219974E-3
7.934071780E-1,-6.627888232E-2,-1.832595654E-2,4.581489135E-3
7.956574230E-1,-4.260785133E-2,5.757404864E-2,1.114829071E-2
7.978915530E-1,-1.099557430E-2,9.346238524E-2,6.108652451E-4
8.001314830E-1,1.527163107E-2,1.075122803E-1,-1.511891466E-2
8.023643930E-1,2.687807009E-2,1.314887404E-1,-1.970040426E-2
8.046009650E-1,1.038470957E-2,1.730275750E-1,-9.926560335E-3
8.068375370E-1,-1.481348183E-2,2.087631971E-1,9.621127509E-3
8.090746580E-1,-3.436116874E-2,2.225076705E-1,2.168571576E-2
8.113122070E-1,-3.023782931E-2,1.823432744E-1,1.786780916E-2
8.135477420E-1,-1.557706390E-2,1.104138941E-1,-6.108652451E-4
8.157846190E-1,-8.093964309E-3,4.963280261E-2,-2.290744707E-2
8.180218630E-1,-7.635815535E-3,9.621127509E-3,-2.183843218E-2
8.202577030E-1,-1.802052557E-2,-1.328631863E-2,-8.552113548E-3
8.224943360E-1,-2.092213556E-2,-3.268129006E-2,1.221730490E-3
8.247308480E-1,-1.908953860E-2,-5.818491429E-2,4.734205548E-3
8.269679080E-1,-1.725694351E-2,-8.979719132E-2,1.328631863E-2
8.292052740E-1,-1.435533352E-2,-1.285871267E-1,1.679879427E-2
8.314411140E-1,-2.458732575E-2,-1.490511149E-1,1.985311974E-3
8.336786620E-1,-4.520402849E-2,-1.401935667E-1,-1.420261711E-2
8.359171880E-1,-7.864890248E-2,-8.857546002E-2,-5.650503561E-3
8.381510140E-1,-9.575312585E-2,-1.908953860E-2,1.832595794E-3
8.403875250E-1,-8.368854225E-2,3.298672289E-2,8.246680722E-3
8.426234260E-1,-4.153883830E-2,4.428773001E-2,-1.069014193E-3
8.448612800E-1,1.527163113E-4,3.130684420E-2,-1.191187184E-2
8.470988290E-1,1.588249579E-2,1.756237634E-2,-1.542434748E-2
8.493344240E-1,9.162978968E-4,1.069014147E-2,-1.069014147E-2
8.515711800E-1,-3.726277873E-2,9.010262787E-3,-4.886921961E-3
8.538083010E-1,-8.246681094E-2,2.565634064E-2,9.162978968E-4
8.560445680E-1,-1.096503139E-1,2.367102914E-2,6.719517522E-3
8.582809570E-1,-9.407325089E-2,5.192354787E-3,4.428773187E-3
8.605152110E-1,-5.864306539E-2,-1.496619824E-2,-5.192354787E-3
8.627422000E-1,-2.229658142E-2,-3.863722831E-2,-2.443460980E-3
8.649810920E-1,-6.108652451E-4,-5.971207842E-2,8.552113548E-3
8.672327390E-1,3.054326226E-4,-7.437284291E-2,1.099557430E-2
8.694655890E-1,-1.939497143E-2,-7.635815442E-2,2.290744567E-3
8.716928840E-1,-5.360342562E-2,-6.719517708E-2,-1.679879380E-3
8.739364750E-1,-8.872817457E-2,-3.863722831E-2,-6.108652451E-4
8.761738410E-1,-1.090394482E-1,-7.788531948E-3,6.108652451E-4
8.784137090E-1,-1.009454802E-1,2.718350291E-2,1.985311974E-3
8.806475960E-1,-7.712173462E-2,5.100724846E-2,3.512475174E-3
8.828852060E-1,-3.970624134E-2,7.086037099E-2,1.527163113E-4
8.851209840E-1,-4.886921961E-3,8.842274547E-2,-6.719517522E-3
8.873578620E-1,1.496619824E-2,9.651670605E-2,-4.123340361E-3
8.895949220E-1,1.252273750E-2,9.651670605E-2,1.985311974E-3
8.918308840E-1,-2.596177394E-3,8.353582025E-2,1.832595794E-3
8.940673340E-1,-1.679879427E-2,5.100724846E-2,-9.162978968E-4
8.963040900E-1,-3.008511290E-2,-9.162978968E-4,-1.221730490E-3
8.985409060E-1,-3.726277873E-2,-5.299255997E-2,-7.635815535E-3
9.007785160E-1,-4.031710699E-2,-7.956519723E-2,-1.023199316E-2
9.030139900E-1,-4.031710699E-2,-8.200865984E-2,-5.345070735E-3
9.052509280E-1,-3.420845419E-2,-8.093964309E-2,5.803219974E-3
9.074881720E-1,-1.740965992E-2,-9.208793938E-2,1.939497143E-2
9.097240730E-1,-5.650503561E-3,-1.240056455E-1,2.412917651E-2
9.119609500E-1,-9.773843922E-3,-1.493565589E-1,9.315694682E-3
9.141974010E-1,-2.809980139E-2,-1.466076523E-1,-6.719517522E-3
9.164343390E-1,-5.070181563E-2,-1.061378345E-1,-1.038470957E-2
9.186720100E-1,-5.054909736E-2,-3.451388702E-2,-5.192354787E-3
9.209073610E-1,-3.420845419E-2,3.924809024E-2,5.039638374E-3
9.231444220E-1,-8.399397135E-3,1.006400511E-1,9.162978269E-3
9.253811770E-1,1.557706390E-2,1.340849251E-1,7.024950348E-3
9.276173830E-1,2.962696366E-2,1.496619880E-1,-2.596177394E-3
9.298541390E-1,2.977968007E-2,1.592831165E-1,-7.330383174E-3
9.320905280E-1,1.374446787E-2,1.583668143E-1,-5.039638374E-3
9.343275880E-1,-3.665191587E-3,1.490511149E-1,3.359758761E-3
9.365642210E-1,-2.397646010E-2,1.215621829E-1,-6.108652451E-4
9.387973150E-1,-3.313944116E-2,8.903361112E-2,-5.803219974E-3
9.410348020E-1,-3.023782931E-2,5.131268129E-2,-2.290744567E-3
9.432627690E-1,-1.756237634E-2,1.343903504E-2,8.704829961E-3
9.455112430E-1,-3.665191587E-3,-2.687807009E-2,8.704829961E-3
9.477472050E-1,-6.872233935E-3,-6.811147183E-2,-2.443460980E-3
9.499868290E-1,-3.451388702E-2,-1.027780771E-1,-1.267545391E-2
9.522212650E-1,-6.811147183E-2,-1.142318025E-1,-1.298088674E-2
9.544586920E-1,-8.674286306E-2,-1.223257631E-1,-8.246680722E-3
9.566910520E-1,-7.116580009E-2,-1.408044398E-1,2.748893574E-3
9.589190800E-1,-4.841107130E-2,-1.655444801E-1,1.267545391E-2
9.611680430E-1,-2.779436857E-2,-1.878410578E-1,1.267545391E-2
9.634039430E-1,-2.275473066E-2,-1.806633919E-1,7.941247895E-3
9.656435070E-1,-2.550362423E-2,-1.345430762E-1,-2.901609987E-3
9.678770880E-1,-3.741549700E-2,-5.299255997E-2,-1.527163084E-3
9.701142090E-1,-4.520402849E-2,5.283984542E-2,1.237002108E-2
9.723518190E-1,-3.573561832E-2,1.521054506E-1,1.404990070E-2
9.745875370E-1,-1.191187184E-2,2.269364446E-1,-1.527163113E-4
9.768241700E-1,8.857546374E-3,2.787072659E-1,-1.435533352E-2
9.790614750E-1,2.168571576E-2,3.039054573E-1,-1.420261711E-2
9.812944460E-1,2.519819140E-2,2.953533530E-1,-1.053742506E-2
9.835219240E-1,2.687807009E-2,2.588541508E-1,-8.246680722E-3
9.857703990E-1,2.901609987E-2,1.884519309E-1,2.443460980E-3
9.880061160E-1,2.351831272E-2,9.880745411E-2,1.313360315E-2
9.902426890E-1,1.664607786E-2,-6.108652451E-4,9.010262787E-3
9.924806640E-1,-7.330383174E-3,-9.239336848E-2,1.069014193E-3
9.947177250E-1,-3.481931984E-2,-1.682933718E-1,-7.635815418E-4
9.969560670E-1,-5.299255997E-2,-2.188424766E-1,2.596177394E-3
9.991905640E-1,-4.505131021E-2,-2.493857294E-1,3.817907767E-3
1.001424085E0,-2.321287990E-2,-2.643519342E-1,6.261368748E-3
1.003651502E0,-4.734205548E-3,-2.648100853E-1,9.010262787E-3
1.005900830E0,9.010262787E-3,-2.492330223E-1,1.282817032E-2
1.008135388E0,5.803219974E-3,-2.273945808E-1,7.941247895E-3
1.010362134E0,-5.497787148E-3,-1.834122837E-1,-4.581489484E-4
1.012599256E0,-1.389718428E-2,-1.128573567E-1,-5.192354787E-3
1.014847791E0,-1.206458826E-2,-2.061670274E-2,3.817907767E-3
1.017086866E0,1.328631863E-2,7.712173462E-2,1.175915636E-2
1.019320447E0,4.199698567E-2,1.627955884E-1,1.603521220E-2
1.021542371E0,6.902777404E-2,2.217440903E-1,1.771509275E-2
1.023782178E0,7.467827946E-2,2.567161322E-1,1.053742506E-2
1.026031690E0,6.780604273E-2,2.725986242E-1,-2.901609987E-3
1.028267713E0,5.681046844E-2,2.765692472E-1,-1.038470957E-2
1.030497144E0,4.169155285E-2,2.609921694E-1,-9.315694682E-3
1.032740613E0,2.611448988E-2,2.249511331E-1,-4.734205548E-3
1.034977186E0,1.130100712E-2,1.609629989E-1,-7.483099122E-3
1.037216260E0,8.704829961E-3,8.811730891E-2,-7.941247895E-3
1.039450513E0,2.031126991E-2,1.832595794E-3,4.123340361E-3
1.041687390E0,3.955352306E-2,-7.987063378E-2,1.374446787E-2
1.043924695E0,5.054909736E-2,-1.444696337E-1,1.237002108E-2
1.046160352E0,4.123340547E-2,-1.794416606E-1,4.734205548E-3
1.048397596E0,6.566801574E-3,-1.896736622E-1,5.650503561E-3
1.050634473E0,-3.543018550E-2,-1.962404549E-1,5.345070735E-3
1.052870557E0,-7.864890248E-2,-2.038762718E-1,1.221730490E-3
1.055107068E0,-9.590584040E-2,-2.119702399E-1,-1.114829071E-2
1.057343702E0,-8.139779419E-2,-2.243402600E-1,-7.483099122E-3
1.059580762E0,-3.359758854E-2,-2.264782935E-1,7.635815535E-3
1.061818250E0,2.580905706E-2,-2.095267773E-1,1.191187184E-2
1.064053602E0,6.017022580E-2,-1.580613852E-1,9.926560335E-3
1.066288038E0,6.582073122E-2,-6.108652428E-2,6.719517522E-3
1.068517225E0,5.345070735E-2,5.940664560E-2,7.024950348E-3
1.070763868E0,3.619376570E-2,1.725694388E-1,3.665191587E-3
1.073000379E0,2.825251780E-2,2.637410760E-1,-2.138028387E-3
1.075239392E0,2.687807009E-2,3.208569586E-1,-3.054326167E-3
1.077474012E0,3.848451003E-2,3.472768962E-1,-5.345070735E-3
1.079711316E0,4.703662544E-2,3.446807265E-1,-2.748893574E-3
1.081944043E0,5.894849449E-2,3.213151097E-1,-1.527163084E-3
1.084169324E0,6.032294407E-2,2.751947939E-1,5.497787148E-3
1.086409376E0,5.757404864E-2,2.000583708E-1,6.414085161E-3
1.088657178E0,4.703662544E-2,1.020144969E-1,3.512475174E-3
1.090896619E0,2.871066704E-2,-1.298088674E-2,1.679879380E-3
1.093132947E0,6.566801574E-3,-1.351539344E-1,-1.527163113E-4
1.095367139E0,-8.093964309E-3,-2.464841306E-1,1.679879380E-3
1.097604810E0,-1.328631863E-2,-3.240640163E-1,2.443460980E-3
1.099840039E0,-1.542434748E-2,-3.640756905E-1,1.206458826E-2
1.102077405E0,-4.428773187E-3,-3.617849350E-1,1.954768784E-2
1.104314588E0,1.007927675E-2,-3.196352422E-1,1.374446787E-2
1.106549879E0,3.268129006E-2,-2.435825169E-1,4.428773187E-3
1.108781323E0,4.688390717E-2,-1.479821056E-1,-1.221730490E-3
1.111011304E0,5.772676691E-2,-3.894266114E-2,1.832595794E-3
1.113260450E0,5.864306539E-2,6.780604273E-2,5.955935922E-3
1.115498792E0,5.299255997E-2,1.553124934E-1,3.817907767E-3
1.117733350E0,4.810563847E-2,2.124283910E-1,3.970623948E-3
1.119958692E0,4.734205827E-2,2.367102802E-1,1.679879380E-3
1.122207593E0,5.833763257E-2,2.376265824E-1,2.901609987E-3
1.124443555E0,6.795875728E-2,2.217440903E-1,1.679879380E-3
1.126680066E0,7.483099401E-2,1.973094791E-1,9.010262787E-3
1.128904920E0,7.284568250E-2,1.609629989E-1,1.130100712E-2
1.131139050E0,6.200282276E-2,1.137736514E-1,6.108652335E-3
1.133376721E0,3.390302137E-2,5.726861581E-2,-7.788531948E-3
1.135611890E0,4.428773187E-3,-3.970623948E-3,-1.435533352E-2
1.137852124E0,-2.260201424E-2,-5.558873713E-2,-8.704829961E-3
1.140090345E0,-2.855795063E-2,-1.041525230E-1,7.635815418E-4
1.142326856E0,-2.580905706E-2,-1.527163088E-1,1.832595794E-3
1.144561719E0,-1.649336144E-2,-1.759291887E-1,-4.276056774E-3
1.146798048E0,-6.261368748E-3,-1.640173197E-1,-4.123340361E-3
1.149034864E0,7.635815535E-3,-1.375973970E-1,5.955935922E-3
1.151272657E0,1.939497143E-2,-1.050688252E-1,1.710422710E-2
1.153508558E0,1.985312067E-2,-7.956519723E-2,1.603521220E-2
1.155745923E0,9.010262787E-3,-7.208210230E-2,9.773843922E-3
1.157986035E0,-1.160643995E-2,-5.467243865E-2,0.000000000E0
1.160233106E0,-3.894266114E-2,-1.404990070E-2,-9.926560335E-3
1.162469740E0,-5.619960278E-2,5.054909736E-2,-7.330383174E-3
1.164705884E0,-4.642575979E-2,1.073595658E-1,7.635815535E-3
1.166940625E0,-1.389718428E-2,1.383609772E-1,1.420261711E-2
1.169177869E0,2.428189293E-2,1.363756657E-1,1.069014193E-3
1.171413587E0,4.520402849E-2,1.287398487E-1,-9.773843922E-3
1.173650464E0,3.756821156E-2,1.191187203E-1,-3.817907767E-3
1.175887281E0,1.023199316E-2,1.087340117E-1,4.428773187E-3
1.178123243E0,-2.214386500E-2,9.117163718E-2,1.145372353E-2
1.180360242E0,-4.734205827E-2,6.490442902E-2,1.481348183E-2
1.182596631E0,-5.787948146E-2,3.237585723E-2,1.221730467E-2
1.184833814E0,-4.596760869E-2,1.038470957E-2,-1.374446787E-3
1.187071424E0,-2.351831272E-2,1.481348183E-2,-1.206458826E-2
1.189306775E0,4.123340361E-3,4.092797264E-2,-1.542434748E-2
1.191543592E0,3.161227703E-2,6.704246253E-2,-6.566801574E-3
1.193779187E0,4.382958263E-2,6.200282276E-2,-3.054326226E-4
1.196011121E0,4.291328415E-2,1.954768784E-2,1.985311974E-3
1.198253370E0,3.161227703E-2,-4.948008433E-2,3.970623948E-3
1.200489942E0,5.803219974E-3,-1.133155003E-1,2.290744567E-3
1.202728406E0,-3.054326214E-2,-1.440114826E-1,-5.497787148E-3
1.204964490E0,-6.597344577E-2,-1.311833113E-1,-1.985311974E-3
1.207199842E0,-8.139779419E-2,-9.453139454E-2,1.145372353E-2
1.209436963E0,-6.215553731E-2,-5.482515693E-2,1.786780916E-2
1.211674207E0,-1.603521220E-2,-3.512475267E-2,6.108652335E-3
1.213910047E0,3.084869497E-2,-2.993239649E-2,-4.428773187E-3
1.216146436E0,5.574145541E-2,-1.710422710E-2,-4.276056774E-3
1.218383131E0,5.772676691E-2,2.046398632E-2,-2.748893574E-3
1.220620069E0,3.420845419E-2,7.070764899E-2,-6.414085161E-3
1.222857862E0,-6.414085161E-3,1.394299865E-1,-4.581489484E-4
1.225093213E0,-4.688390717E-2,2.105957866E-1,8.093964309E-3
1.227330579E0,-4.703662544E-2,2.591595948E-1,5.803219974E-3
1.229567457E0,-8.704829961E-3,2.645046413E-1,-3.665191587E-3
1.231801343E0,3.878994286E-2,2.344195396E-1,-1.191187184E-2
1.234032605E0,6.841690838E-2,1.803579628E-1,-8.246680722E-3
1.236276502E0,7.147123665E-2,9.666942805E-2,6.108652335E-3
1.238513684E0,4.138612002E-2,5.039638374E-3,5.497787148E-3
1.240752942E0,-7.177666761E-3,-8.506298810E-2,1.069014193E-3
1.242986524E0,-5.772676691E-2,-1.533271819E-1,-8.246680722E-3
1.245223767E0,-9.682214260E-2,-1.950187236E-1,-1.237002108E-2
1.247460584E0,-1.131627858E-1,-2.104430795E-1,-1.374446787E-2
1.249696729E0,-1.007927656E-1,-2.083050460E-1,-2.596177394E-3
1.251933240E0,-6.841690838E-2,-1.882992089E-1,1.114829071E-2
1.254169813E0,-2.504547499E-2,-1.733330190E-1,1.404990070E-2
1.256406629E0,6.108652335E-3,-1.557706445E-1,7.024950348E-3
1.258644178E0,1.771509275E-2,-1.328631938E-1,-1.374446787E-3
1.260879773E0,6.108652335E-3,-9.254608303E-2,0.000000000E0
1.263116895E0,-2.351831272E-2,-3.863722831E-2,2.290744567E-3
1.265353895E0,-5.161811411E-2,3.344487399E-2,1.221730490E-3
1.267589734E0,-7.956519723E-2,1.153008118E-1,6.108652335E-3
1.269826246E0,-8.170322329E-2,1.942551434E-1,7.635815535E-3
1.272062635E0,-4.734205827E-2,2.457205504E-1,5.803219974E-3
1.274300000E0,-6.414085161E-3,2.535090744E-1,-6.108652335E-3
1.276536145E0,2.519819140E-2,2.310597748E-1,-1.817324013E-2
1.278767591E0,2.687807009E-2,1.933388561E-1,-1.832595654E-2
1.281010205E0,1.099557430E-2,1.438587606E-1,-1.496619824E-2
1.283247205E0,-1.099557430E-2,8.979719132E-2,-8.093964309E-3
1.285484449E0,-3.207042441E-2,2.703078650E-2,1.374446787E-3
1.287719678E0,-3.817907721E-2,-3.222314268E-2,1.084285788E-2
1.289956434E0,-3.573561832E-2,-8.933904022E-2,1.191187184E-2
1.292193372E0,-3.268129006E-2,-1.282816976E-1,4.428773187E-3
1.294431043E0,-4.062253982E-2,-1.487456858E-1,7.941247895E-3
1.296663159E0,-4.566217586E-2,-1.595885456E-1,1.023199316E-2
1.298891553E0,-3.375030309E-2,-1.780672222E-1,7.788531948E-3
1.301140455E0,-1.603521220E-2,-2.159408629E-1,1.679879380E-3
1.303376416E0,-9.162978269E-3,-2.452623993E-1,-8.093964309E-3
1.305615919E0,-2.260201424E-2,-2.388483137E-1,-8.246680722E-3
1.307849561E0,-5.467243865E-2,-1.824959964E-1,-3.359758761E-3
1.310086866E0,-8.353582025E-2,-8.597928286E-2,4.123340361E-3
1.312324170E0,-9.498954564E-2,2.214386500E-2,1.420261711E-2
1.314558911E0,-6.841690838E-2,1.200350225E-1,1.603521220E-2
1.316793347E0,-1.756237634E-2,1.954768747E-1,8.246680722E-3
1.319033826E0,3.039054573E-2,2.503020465E-1,-2.138028387E-3
1.321267957E0,6.185010448E-2,2.837468982E-1,-1.679879380E-3
1.323500257E0,6.826419383E-2,2.981022298E-1,4.428773187E-3
1.325742811E0,5.803219974E-2,2.788599730E-1,3.054326167E-3
1.327977124E0,4.230241850E-2,2.330450863E-1,-3.359758761E-3
1.330207898E0,1.924225502E-2,1.873829067E-1,-4.886921961E-3
1.332452832E0,-5.192354787E-3,1.345430762E-1,-9.010262787E-3
1.334690076E0,-2.840523422E-2,7.788532227E-2,-1.313360315E-2
1.336929701E0,-4.856378585E-2,-1.679879380E-3,-9.926560335E-3
1.339163099E0,-6.291911751E-2,-9.728029370E-2,6.108652451E-4
1.341400281E0,-6.139195710E-2,-2.029599845E-1,1.114829071E-2
1.343638135E0,-4.841107130E-2,-2.918408811E-1,1.206458826E-2
1.345873242E0,-4.108068720E-2,-3.562871516E-1,8.246680722E-3
1.348107739E0,-4.535674304E-2,-3.828597963E-1,8.093964309E-3
1.350333936E0,-5.742133409E-2,-3.680463135E-1,9.315694682E-3
1.352583387E0,-6.887505949E-2,-3.289509416E-1,9.315694682E-3
1.354820203E0,-6.887505949E-2,-2.683225572E-1,8.399397135E-3
1.357059278E0,-5.497787148E-2,-1.945605874E-1,3.970623948E-3
1.359292859E0,-3.222314268E-2,-1.076650023E-1,-4.581489484E-4
1.361526441E0,-9.315694682E-3,-1.221730467E-2,-8.399397135E-3
1.363754285E0,4.886921961E-3,8.582656831E-2,-1.404990070E-2
1.366003797E0,1.038470957E-2,1.705841124E-1,-9.926560335E-3
1.368236463E0,1.252273750E-2,2.252565622E-1,3.665191587E-3
1.370467786E0,9.315694682E-3,2.458732575E-1,9.926560335E-3
1.372713575E0,-6.108652451E-4,2.400700450E-1,7.330383174E-3
1.374949659E0,-1.328631863E-2,2.208277881E-1,4.734205548E-3
1.377189100E0,-2.489275858E-2,1.968513280E-1,8.246680722E-3
1.379422559E0,-2.321287990E-2,1.627955884E-1,1.298088674E-2
1.381659864E0,-2.641992271E-2,1.227839142E-1,5.497787148E-3
1.383897352E0,-2.993239649E-2,7.192938030E-2,1.527163084E-3
1.386132764E0,-3.481931984E-2,1.130100712E-2,-3.665191587E-3
1.388369764E0,-3.588833287E-2,-4.321871698E-2,-1.114829071E-2
1.390606824E0,-2.794708498E-2,-7.987063378E-2,-2.229658142E-2
1.392842969E0,-2.076941915E-2,-9.208793938E-2,-1.374446787E-2
1.395079541E0,-1.832595654E-2,-8.857546002E-2,3.359758761E-3
1.397313062E0,-2.183843218E-2,-7.269296050E-2,1.084285788E-2
1.399540906E0,-2.764165215E-2,-5.558873713E-2,7.177666761E-3
1.401790479E0,-3.191770986E-2,-2.641992271E-2,4.734205548E-3
1.404026258E0,-3.970624134E-2,1.145372353E-2,6.108652335E-3
1.406266126E0,-4.520402849E-2,4.550946131E-2,8.704829961E-3
1.408500135E0,-4.352414981E-2,6.734789163E-2,2.596177394E-3
1.410735914E0,-2.535090782E-2,5.726861581E-2,3.970623948E-3
1.412972608E0,-1.527163084E-3,1.679879427E-2,1.252273750E-2
1.415209424E0,1.710422710E-2,-3.100141138E-2,1.252273750E-2
1.417446546E0,2.015855350E-2,-6.856962293E-2,-1.069014193E-3
1.419684034E0,-4.581489135E-3,-7.666359097E-2,-1.114829071E-2
1.421919263E0,-3.115412779E-2,-5.543602258E-2,-1.252273750E-2
1.424156140E0,-4.886921868E-2,-1.389718428E-2,-6.261368748E-3
1.426393445E0,-4.932736978E-2,2.260201424E-2,3.665191587E-3
1.428629590E0,-3.680463135E-2,4.169155285E-2,1.237002108E-2
1.430866224E0,-1.939497143E-2,4.749477282E-2,1.252273750E-2
1.433102674E0,-5.803219974E-3,4.841107130E-2,9.010262787E-3
1.435339551E0,-4.428773187E-3,5.207626149E-2,9.010262787E-3
1.437577344E0,-1.924225502E-2,5.100724846E-2,1.527163084E-3
1.439809888E0,-4.138612002E-2,5.268712714E-2,-4.734205548E-3
1.442037793E0,-5.757404864E-2,3.848451003E-2,-4.886921961E-3
1.444286756E0,-6.582073122E-2,1.069014193E-3,-7.635815535E-3
1.446522779E0,-6.444628537E-2,-5.849034712E-2,-1.145372353E-2
1.448762159E0,-5.818491429E-2,-1.180497110E-1,-1.664607786E-2
1.450995801E0,-5.299255997E-2,-1.667662114E-1,-1.924225502E-2
1.453233045E0,-4.627304152E-2,-1.922698319E-1,-1.069014147E-2
1.455470411E0,-3.649919853E-2,-1.913535446E-1,4.123340361E-3
1.457705945E0,-2.901609987E-2,-1.780672222E-1,1.893682219E-2
1.459942762E0,-3.711006418E-2,-1.524108797E-1,2.015855350E-2
1.462180006E0,-5.497787148E-2,-1.253800988E-1,1.527163107E-2
1.464415662E0,-7.528914511E-2,-9.957103431E-2,6.566801574E-3
1.466649548E0,-8.475755155E-2,-8.109235764E-2,2.901609987E-3
1.468877149E0,-8.323039114E-2,-6.658431143E-2,4.581489484E-4
1.471126538E0,-6.933320314E-2,-4.993823543E-2,-1.679879380E-3
1.473363965E0,-5.192354694E-2,-4.169155285E-2,3.359758761E-3
1.475602308E0,-3.100141138E-2,-3.970624134E-2,3.512475174E-3
1.477836316E0,-1.710422710E-2,-3.145955876E-2,-8.552113548E-3
1.480073316E0,-2.275473066E-2,-8.246680722E-3,-1.588249579E-2
1.482306287E0,-3.069597855E-2,2.825251780E-2,-4.734205548E-3
1.484534070E0,-4.123340547E-2,6.490442902E-2,6.261368748E-3
1.486779492E0,-3.833179548E-2,8.536841720E-2,1.618792862E-2
1.489008008E0,-3.222314268E-2,8.536841720E-2,2.107485011E-2
1.491259901E0,-3.252857551E-2,7.070764899E-2,1.496619824E-2
1.493492383E0,-3.039054573E-2,5.009094998E-2,-1.069014193E-3
1.495732557E0,-2.367102914E-2,8.704829961E-3,-1.450804994E-2
1.497966688E0,-8.857546374E-3,-4.856378585E-2,-1.832595654E-2
1.500202588E0,-1.374446787E-3,-1.033889428E-1,-1.237002108E-2
1.502439100E0,-6.108652335E-3,-1.554652005E-1,-5.345070735E-3
1.504675672E0,-2.183843218E-2,-2.012801021E-1,-7.635815418E-4
1.506912793E0,-4.214970022E-2,-2.251038402E-1,3.054326226E-4
1.509150342E0,-5.192354694E-2,-2.212859392E-1,1.527163113E-4
1.511385877E0,-5.726861581E-2,-1.847867370E-1,3.054326226E-4
1.513622815E0,-5.619960278E-2,-1.339322031E-1,4.123340361E-3
1.515860242E0,-3.817907721E-2,-8.689557761E-2,1.557706390E-2
1.518095838E0,-7.177666761E-3,-8.017606288E-2,1.695151068E-2
1.520332471E0,2.306016348E-2,-1.026253626E-1,1.099557430E-2
1.522568922E0,2.871066704E-2,-1.366810948E-1,3.665191587E-3
1.524806104E0,5.955935922E-3,-1.653917581E-1,-3.054326226E-4
1.527039197E0,-2.871066704E-2,-1.756237596E-1,-4.428773187E-3
1.529258374E0,-6.032294407E-2,-1.556179225E-1,-5.803219974E-3
1.531504163E0,-7.299839705E-2,-1.081231460E-1,1.679879380E-3
1.533753553E0,-5.940664560E-2,-4.642575979E-2,3.207042580E-3
1.535993604E0,-2.733621933E-2,1.237002108E-2,-8.399397135E-3
1.538228773E0,7.024950348E-3,6.276640296E-2,-1.404990070E-2
1.540462171E0,2.809980139E-2,7.925976813E-2,-5.345070735E-3
1.542699109E0,2.977968007E-2,4.169155285E-2,-4.581489484E-4
1.544936658E0,1.679879427E-2,-5.283984542E-2,-3.512475174E-3
1.547172315E0,-6.719517522E-3,-1.846340150E-1,-4.581489484E-4
1.549409680E0,-3.191770986E-2,-3.321579695E-1,7.177666761E-3
1.551646680E0,-4.214970022E-2,-4.667010605E-1,1.267545391E-2
1.553882520E0,-5.115996301E-2,-5.502368808E-1,9.773843922E-3
1.556119031E0,-6.414084882E-2,-5.754350424E-1,1.817324013E-2
1.558355604E0,-8.338310570E-2,-5.557346344E-1,2.550362423E-2
1.560592725E0,-8.384125680E-2,-5.155702829E-1,1.710422710E-2
1.562830213E0,-6.643159688E-2,-4.589125216E-1,-2.138028387E-3
1.565065503E0,-3.420845419E-2,-3.854559660E-1,-8.857546374E-3
1.567302442E0,-4.428773187E-3,-3.119994104E-1,-1.069014193E-3
1.569539869E0,1.404990070E-2,-2.506074607E-1,9.162978269E-3
1.571775586E0,1.389718428E-2,-1.934915632E-1,4.428773187E-3
1.574012464E0,1.679879380E-3,-1.276708394E-1,2.290744567E-3
1.576248853E0,-1.267545391E-2,-4.734205827E-2,8.552113548E-3
1.578485852E0,-9.926560335E-3,2.657263726E-2,1.374446787E-2
1.580720654E0,1.084285788E-2,8.078692853E-2,1.053742506E-2
1.582944470E0,3.344487399E-2,1.021672115E-1,5.803219974E-3
1.585184339E0,5.803219974E-2,9.804387391E-2,-6.108652335E-3
1.587433240E0,7.192938030E-2,5.299255997E-2,-1.114829071E-2
1.589672010E0,7.009678334E-2,-3.924809024E-2,-1.145372353E-2
1.591908643E0,5.329799280E-2,-1.372919679E-1,-7.177666761E-3
1.594142225E0,3.084869497E-2,-2.131919712E-1,-3.054326226E-4
1.596379346E0,8.704829961E-3,-2.649627924E-1,9.010262787E-3
1.598616834E0,-4.123340361E-3,-2.878702581E-1,1.374446787E-2
1.600852186E0,-1.084285788E-2,-2.609921694E-1,8.857546374E-3
1.603089246E0,3.970623948E-3,-2.005165219E-1,9.315694682E-3
1.605323255E0,2.871066704E-2,-1.295034289E-1,9.773843922E-3
1.607547254E0,5.482515693E-2,-6.078109145E-2,7.788531948E-3
1.609787061E0,6.811147183E-2,-8.857546374E-3,4.428773187E-3
1.612035535E0,7.757988572E-2,2.855795063E-2,-3.817907767E-3
1.614275464E0,8.048149943E-2,4.673119262E-2,-6.261368748E-3
1.616513075E0,8.048149943E-2,4.673119262E-2,-2.596177394E-3
1.618745252E0,7.666359097E-2,4.428773001E-2,1.069014193E-3
1.620982617E0,7.162395120E-2,4.321871698E-2,9.621127509E-3
1.623219617E0,6.169738993E-2,3.985895589E-2,1.557706390E-2
1.625455762E0,5.192354694E-2,4.123340547E-2,8.246680722E-3
1.627689099E0,5.604688451E-2,5.803219974E-2,-2.748893574E-3
1.629913892E0,6.032294407E-2,8.475755155E-2,-2.596177394E-3
1.632153760E0,7.895433158E-2,9.773843735E-2,2.596177394E-3
1.634403516E0,9.590584040E-2,8.399397135E-2,1.527163113E-4
1.636638746E0,9.101892263E-2,8.048149943E-2,-9.621127509E-3
1.638866773E0,7.284568250E-2,9.789115191E-2,-6.108652335E-3
1.641113111E0,5.482515693E-2,1.175915599E-1,-3.665191587E-3
1.643348768E0,4.963280261E-2,1.079704314E-1,-1.374446787E-3
1.645588392E0,5.024366826E-2,7.513642311E-2,2.290744567E-3
1.647821790E0,5.528330430E-2,2.901609987E-2,1.069014147E-2
1.650058789E0,6.047565863E-2,-2.214386500E-2,3.207042580E-3
1.652296582E0,6.856962293E-2,-5.497787148E-2,-7.941247895E-3
1.654532178E0,7.070764899E-2,-6.841690838E-2,-1.832595794E-3
1.656769972E0,7.055493444E-2,-7.574728876E-2,6.719517522E-3
1.659008985E0,6.520986557E-2,-9.498954564E-2,9.010262787E-3
1.661240186E0,5.849034712E-2,-1.240056455E-1,2.748893574E-3
1.663470105E0,5.146539584E-2,-1.675297916E-1,0.000000000E0
1.665714551E0,4.062253982E-2,-2.110539377E-1,2.138028387E-3
1.667952344E0,3.619376570E-2,-2.461786866E-1,5.650503561E-3
1.670192273E0,4.092797264E-2,-2.559525371E-1,3.207042580E-3
1.672425489E0,4.993823543E-2,-2.391537428E-1,2.138028387E-3
1.674662488E0,6.520986557E-2,-2.127338201E-1,6.108652335E-3
1.676899183E0,7.238753140E-2,-1.655444801E-1,1.527163113E-4
1.679135145E0,7.024950534E-2,-9.392052889E-2,-6.872233935E-3
1.681371961E0,7.406741381E-2,-2.596177347E-2,7.635815418E-4
1.683608594E0,6.475171447E-2,1.053742506E-2,1.191187184E-2
1.685845716E0,5.497787148E-2,1.206458826E-2,1.786780916E-2
1.688080213E0,4.612032697E-2,1.221730490E-3,1.664607786E-2
1.690306775E0,5.115996301E-2,-1.221730490E-3,-4.123340361E-3
1.692555616E0,7.070764899E-2,-1.007927675E-2,-1.679879380E-3
1.694792737E0,9.728029370E-2,-3.375030309E-2,-3.054326226E-4
1.697031263E0,9.957103431E-2,-4.352414981E-2,-3.970623948E-3
1.699265577E0,9.117163718E-2,-2.748893574E-2,-3.970623948E-3
1.701501844E0,7.086037099E-2,3.207042580E-3,-2.748893574E-3
1.703739087E0,5.787948146E-2,2.886338346E-2,4.581489135E-3
1.705976453E0,4.993823543E-2,6.918048859E-2,1.206458826E-2
1.708209058E0,4.031710699E-2,1.372919679E-1,9.773843922E-3
1.710436902E0,2.321287990E-2,2.043344229E-1,9.926560335E-3
1.712685926E0,2.535090782E-2,2.455678284E-1,6.414085161E-3
1.714921949E0,5.497787148E-2,2.461786866E-1,-1.664607786E-2
1.717161329E0,8.170322329E-2,2.263255715E-1,-2.748893574E-2
1.719394910E0,9.392052889E-2,1.641700417E-1,-1.298088674E-2
1.721632032E0,8.155050874E-2,4.184427112E-2,-2.596177394E-3
1.723869886E0,5.513058975E-2,-1.093448773E-1,1.527163084E-3
1.726105420E0,2.474004216E-2,-2.046398520E-1,1.313360315E-2
1.728342237E0,1.221730490E-3,-2.078468949E-1,1.404990070E-2
1.730577466E0,-7.024950348E-3,-1.336267740E-1,5.803219974E-3
1.732808179E0,6.414085161E-3,-1.985312067E-2,7.635815535E-3
1.735051709E0,3.558290005E-2,8.643743396E-2,3.359758761E-3
1.737288465E0,5.558873713E-2,1.588249654E-1,1.374446787E-3
1.739527112E0,5.345070735E-2,1.747074574E-1,-1.069014193E-3
1.741763135E0,4.398229718E-2,1.262963861E-1,-1.237002108E-2
1.743998487E0,3.711006418E-2,3.054326214E-2,-1.527163107E-2
1.746235791E0,3.726277873E-2,-7.742717117E-2,-9.162978968E-4
1.748472547E0,4.306599870E-2,-1.504255682E-1,1.588249579E-2
1.750708631E0,3.924809024E-2,-1.527163088E-1,1.832595654E-2
1.752944959E0,3.222314268E-2,-7.849618047E-2,1.618792862E-2
1.755181776E0,3.313944116E-2,2.336559631E-2,1.038470957E-2
1.757418592E0,4.367686436E-2,1.189660057E-1,1.069014193E-3
1.759656202E0,5.940664560E-2,1.647808999E-1,-3.512475174E-3
1.761891675E0,6.658431143E-2,1.562287807E-1,1.527163084E-3
1.764128614E0,6.688974798E-2,1.076650023E-1,-2.443460980E-3
1.766365919E0,6.047565863E-2,3.619376570E-2,-6.414085161E-3
1.768601941E0,5.345070735E-2,-1.221730467E-2,-7.941247895E-3
1.770838331E0,4.612032697E-2,-7.177666761E-3,-1.160643995E-2
1.773071851E0,3.863722831E-2,4.627304152E-2,-7.788531948E-3
1.775299939E0,3.115412779E-2,1.094975919E-1,2.138028387E-3
1.777549512E0,2.367102914E-2,1.692096740E-1,1.221730467E-2
1.779785108E0,5.192354787E-3,2.278527319E-1,1.099557430E-2
1.782025159E0,-1.481348183E-2,2.706133127E-1,8.552113548E-3
1.784259229E0,-1.267545391E-2,2.573269904E-1,3.665191587E-3
1.786495252E0,1.420261711E-2,1.826487035E-1,-5.039638374E-3
1.788731580E0,3.802636266E-2,7.788532227E-2,-7.635815535E-3
1.790968152E0,3.497203439E-2,-1.191187184E-2,-5.650503561E-3
1.793205274E0,1.404990070E-2,-6.734789163E-2,1.527163113E-4
1.795443006E0,-1.527163084E-3,-1.033889428E-1,2.290744567E-3
1.797678113E0,-7.483099122E-3,-9.834930301E-2,1.069014193E-3
1.799915235E0,-1.496619824E-2,-4.123340547E-2,-2.443460980E-3
1.802152479E0,-2.489275858E-2,1.359175146E-2,5.039638374E-3
1.804388623E0,-2.840523422E-2,3.069597855E-2,1.847867295E-2
1.806623060E0,-3.237585723E-2,1.618792862E-2,2.214386500E-2
1.808853895E0,-4.046982154E-2,-1.771509275E-2,1.695151068E-2
1.811098523E0,-4.108068720E-2,-4.917465150E-2,8.246680722E-3
1.813336072E0,-2.580905706E-2,-8.842274547E-2,9.162978968E-4
1.815573316E0,-1.420261711E-2,-1.310305893E-1,-6.566801574E-3
1.817808484E0,-2.351831272E-2,-1.647808999E-1,-4.276056774E-3
1.820045606E0,-4.718934000E-2,-1.753183305E-1,5.345070735E-3
1.822281934E0,-6.536258012E-2,-1.591303945E-1,2.748893574E-3
1.824518262E0,-6.918048859E-2,-1.081231460E-1,-1.985311974E-3
1.826751844E0,-5.070181563E-2,-3.940080851E-2,3.359758761E-3
1.828979871E0,-2.687807009E-2,4.031710699E-2,-4.734205548E-3
1.831229444E0,-1.771509275E-2,1.250746548E-1,-1.282817032E-2
1.833465039E0,-1.160643995E-2,1.832595766E-1,-8.857546374E-3
1.835705091E0,-5.803219974E-3,2.231185287E-1,-9.926560335E-3
1.837939100E0,-8.093964309E-3,2.377792895E-1,-4.886921961E-3
1.840174939E0,-2.932153270E-2,2.211332172E-1,4.581489135E-3
1.842411451E0,-5.482515693E-2,1.840231568E-1,1.527163107E-2
1.844647840E0,-5.711590126E-2,1.343903542E-1,1.618792862E-2
1.846885571E0,-4.184427112E-2,9.514226019E-2,1.374446787E-2
1.849124219E0,-2.474004216E-2,8.872817457E-2,7.788531948E-3
1.851358411E0,-1.130100712E-2,1.383609772E-1,5.650503561E-3
1.853595349E0,6.261368748E-3,2.119702399E-1,-2.443460980E-3
1.855831800E0,1.847867295E-2,2.128865421E-1,-3.665191587E-3
1.858068250E0,1.603521220E-2,1.547016203E-1,2.290744567E-3
1.860301892E0,-1.206458826E-2,1.006400511E-1,-6.108652451E-4
1.862529737E0,-3.863722831E-2,6.123924255E-2,-4.734205548E-3
1.864778516E0,-5.192354694E-2,2.138028294E-2,4.886921961E-3
1.867016065E0,-5.161811411E-2,-2.351831272E-2,9.468411095E-3
1.869254469E0,-3.985895589E-2,-5.161811411E-2,-3.054326226E-4
1.871488172E0,-3.008511290E-2,-6.154467165E-2,-1.252273750E-2
1.873725477E0,-2.382374369E-2,-5.558873713E-2,-1.481348183E-2
1.875961561E0,-1.740965992E-2,-4.718934000E-2,-7.483099122E-3
1.878198194E0,-1.374446787E-2,-4.489859566E-2,1.221730490E-3
1.880434522E0,-1.588249579E-2,-2.306016348E-2,0.000000000E0
1.882671765E0,-2.489275858E-2,1.725694351E-2,5.039638374E-3
1.884909070E0,-3.436116874E-2,3.802636266E-2,1.114829071E-2
1.887144727E0,-3.680463135E-2,4.046982154E-2,7.483099122E-3
1.889381726E0,-3.787364438E-2,4.780020565E-2,7.483099122E-3
1.891618848E0,-4.520402849E-2,5.161811411E-2,1.114829071E-2
1.893854932E0,-4.184427112E-2,3.207042441E-2,9.773843922E-3
1.896091504E0,-3.023782931E-2,-8.246680722E-3,2.443460980E-3
1.898327589E0,-1.954768784E-2,-2.657263726E-2,-7.330383174E-3
1.900563184E0,-2.031126991E-2,-8.399397135E-3,-8.552113548E-3
1.902802686E0,-1.970040426E-2,2.809980139E-2,1.374446787E-3
1.905038221E0,-1.114829071E-2,8.735372871E-2,1.404990070E-2
1.907275525E0,-6.108652335E-3,1.576032341E-1,1.679879427E-2
1.909512098E0,-1.954768784E-2,2.160935849E-1,5.803219974E-3
1.911748182E0,-3.268129006E-2,2.406809032E-1,4.581489135E-3
1.913984815E0,-3.268129006E-2,2.345722616E-1,9.162978968E-4
1.916221448E0,-3.711006418E-2,2.031126916E-1,-4.581489484E-4
1.918458692E0,-4.199698567E-2,1.424843222E-1,1.679879380E-3
1.920696790E0,-4.352414981E-2,6.734789163E-2,-3.512475174E-3
1.922934705E0,-4.352414981E-2,5.497787148E-3,-9.926560335E-3
1.925168286E0,-2.794708498E-2,-1.908953860E-2,-1.466076635E-2
1.927405408E0,-2.031126991E-2,-1.084285788E-2,-1.710422710E-2
1.929640698E0,-2.367102914E-2,9.926560335E-3,-1.572977938E-2
1.931878125E0,-2.244929783E-2,8.704829961E-3,-4.734205548E-3
1.934114637E0,-2.932153270E-2,-1.786780916E-2,0.000000000E0
1.936351514E0,-4.550946131E-2,-2.367102914E-2,9.621127509E-3
1.938586194E0,-5.742133409E-2,-6.414085161E-3,1.328631863E-2
1.940812330E0,-5.574145541E-2,1.786780916E-2,9.621127509E-3
1.943061475E0,-3.909537569E-2,4.169155285E-2,1.374446787E-3
1.945298658E0,-1.725694351E-2,3.283400834E-2,6.414085161E-3
1.947537672E0,-7.024950348E-3,-9.773843922E-3,1.237002108E-2
1.949771436E0,-3.359758761E-3,-7.544185966E-2,8.552113548E-3
1.952007764E0,-1.664607786E-2,-1.249219403E-1,5.803219974E-3
1.954245069E0,-4.230241850E-2,-1.183551401E-1,6.108652451E-4
1.956482312E0,-5.238169432E-2,-6.475171447E-2,6.872233935E-3
1.958717969E0,-3.375030309E-2,3.970623948E-3,9.773843922E-3
1.960954969E0,-2.244929783E-2,7.422012836E-2,2.901609987E-3
1.963192090E0,-2.855795063E-2,1.374446750E-1,-6.108652451E-4
1.965428113E0,-3.069597855E-2,1.519527286E-1,-7.941247895E-3
1.967664441E0,-1.878410578E-2,1.250746548E-1,-2.015855350E-2
1.969901014E0,-8.552113548E-3,8.368854225E-2,-1.786780916E-2
1.972138135E0,-3.665191587E-3,3.008511290E-2,-5.803219974E-3
1.974375867E0,-5.192354787E-3,-3.894266114E-2,1.114829071E-2
1.976607435E0,-9.926560335E-3,-9.224065393E-2,1.939497143E-2
1.978833936E0,-2.107485011E-2,-9.575312585E-2,1.435533352E-2
1.981085279E0,-3.344487399E-2,-3.848451003E-2,5.955935922E-3
1.983321241E0,-3.772092983E-2,5.390885845E-2,1.527163113E-4
1.985561353E0,-2.244929783E-2,1.336267740E-1,-1.832595794E-3
1.987794324E0,-9.468411095E-3,1.661553532E-1,9.162978968E-4
1.990031446E0,-8.704829961E-3,1.467603743E-1,7.635815418E-4
1.992268995E0,-2.138028294E-2,6.688974798E-2,3.970623948E-3
1.994504590E0,-2.932153270E-2,-2.153299935E-2,-1.221730490E-3
1.996738721E0,-3.894266114E-2,-7.590000331E-2,-1.389718428E-2
1.998966932E0,-4.398229718E-2,-7.712173462E-2,-1.267545391E-2
2.001214490E0,-3.848451003E-2,-4.688390717E-2,9.162978968E-4
2.003451001E0,-3.100141138E-2,-3.481931984E-2,2.061670274E-2
2.005690320E0,-3.130684420E-2,-5.177082866E-2,2.672535367E-2
2.007924756E0,-4.657847434E-2,-7.345654815E-2,2.153299935E-2
2.010162305E0,-5.910121277E-2,-9.010262042E-2,1.160643995E-2
2.012397962E0,-5.451972410E-2,-1.084285825E-1,-3.054326167E-3
2.014634961E0,-4.230241850E-2,-1.171334088E-1,-5.497787148E-3
2.016871900E0,-3.497203439E-2,-1.172861308E-1,-4.581489484E-4
2.019107557E0,-3.604105115E-2,-1.099557430E-1,-4.581489484E-4
2.021344312E0,-3.298672289E-2,-7.971791178E-2,-6.414085161E-3
2.023580701E0,-2.916881628E-2,-2.031126991E-2,-1.099557430E-2
2.025818311E0,-1.695151068E-2,3.649919853E-2,-8.246680722E-3
2.028052442E0,1.221730490E-3,8.949175477E-2,-6.108652451E-4
2.030275586E0,9.162978269E-3,1.209513173E-1,8.246680722E-3
2.032527967E0,1.832595794E-3,1.258382350E-1,2.031126991E-2
2.034764844E0,-1.160643995E-2,7.391469181E-2,2.611448988E-2
2.037004956E0,-2.290744707E-2,-3.512475174E-3,1.970040426E-2
2.039237500E0,-1.756237634E-2,-4.718934000E-2,-1.221730490E-3
2.041474256E0,-1.114829071E-2,-4.489859566E-2,-1.588249579E-2
2.043711133E0,-3.512475174E-3,-2.687807009E-2,-1.939497143E-2
2.045948926E0,1.832595794E-3,-3.970623948E-3,-8.246680722E-3
2.048181287E0,9.315694682E-3,4.428773187E-3,1.023199316E-2
2.050409619E0,4.428773187E-3,8.093964309E-3,1.618792862E-2
2.052658338E0,-3.817907767E-3,2.657263726E-2,3.970623948E-3
2.054894483E0,-8.093964309E-3,5.085453019E-2,-5.650503561E-3
2.057133924E0,7.635815418E-4,6.398813426E-2,-6.872233935E-3
2.059367383E0,1.130100712E-2,4.077525437E-2,4.276056774E-3
2.061604627E0,1.511891466E-2,-1.145372353E-2,1.252273750E-2
2.063838941E0,7.635815535E-3,-7.330382615E-2,1.343903504E-2
2.066065625E0,-6.108652451E-4,-1.180497110E-1,7.177666761E-3
2.068314649E0,-1.679879380E-3,-1.178969890E-1,-1.374446787E-3
2.070551893E0,4.276056774E-3,-7.070764899E-2,-8.552113548E-3
2.072790540E0,1.695151068E-2,9.162978269E-3,-9.315694682E-3
2.075024305E0,2.031126991E-2,6.001751125E-2,1.985311974E-3
2.077260572E0,2.977968007E-2,4.046982154E-2,1.298088674E-2
2.079494886E0,2.733621933E-2,-1.542434748E-2,9.010262787E-3
2.081720838E0,1.786780916E-2,-6.246097013E-2,-1.069014193E-3
2.083959241E0,2.107485011E-2,-8.933904022E-2,-1.069014193E-3
2.086208203E0,2.947424725E-2,-9.789115191E-2,-2.290744567E-3
2.088444837E0,3.573561832E-2,-8.949175477E-2,8.704829961E-3
2.090671888E0,3.390302137E-2,-5.803219974E-2,1.863138936E-2
2.092917798E0,1.618792862E-2,-1.878410578E-2,1.618792862E-2
2.095154004E0,6.872233935E-3,1.053742506E-2,1.511891466E-2
2.097394300E0,1.603521220E-2,3.344487399E-2,5.497787148E-3
2.099628492E0,2.641992271E-2,5.024366826E-2,-1.038470957E-2
2.101864148E0,2.886338346E-2,5.131268129E-2,-1.145372353E-2
2.104100904E0,3.909537569E-2,1.237002108E-2,-6.719517522E-3
2.106338026E0,5.024366826E-2,-4.489859566E-2,4.581489484E-4
2.108571118E0,5.696318299E-2,-7.299839705E-2,4.581489484E-4
2.110798780E0,5.115996301E-2,-5.955936015E-2,4.581489484E-4
2.113047315E0,4.780020565E-2,-4.245513305E-2,7.788531948E-3
2.115284436E0,4.825835302E-2,-1.817324013E-2,1.527163107E-2
2.117525159E0,4.856378585E-2,1.221730490E-3,1.908953860E-2
2.119757520E0,4.276056588E-2,1.832595654E-2,1.664607786E-2
2.121994580E0,3.527746722E-2,1.359175146E-2,1.282817032E-2
2.124231519E0,4.214970022E-2,-1.450804994E-2,5.497787148E-3
2.126464551E0,5.421429127E-2,-3.527746722E-2,-1.038470957E-2
2.128689527E0,6.536258012E-2,-3.436116874E-2,-1.160643995E-2
2.130928663E0,6.414084882E-2,-2.703078650E-2,-5.345070735E-3
2.133177991E0,6.047565863E-2,-2.336559631E-2,-2.901609987E-3
2.135418348E0,5.482515693E-2,-2.596177394E-3,-4.581489484E-4
2.137650831E0,5.192354694E-2,3.512475267E-2,-2.748893574E-3
2.139875867E0,4.612032697E-2,6.078109145E-2,3.359758761E-3
2.142124830E0,4.505131021E-2,6.444628537E-2,2.138028387E-3
2.144360730E0,4.214970022E-2,4.138612002E-2,1.985311974E-3
2.146597791E0,3.878994286E-2,-1.069014193E-3,1.160643995E-2
2.148820874E0,4.642575979E-2,-4.489859566E-2,1.634064503E-2
2.151059033E0,5.558873713E-2,-8.139779419E-2,4.123340361E-3
2.153308484E0,5.910121277E-2,-9.728029370E-2,-7.024950348E-3
2.155546399E0,4.718934000E-2,-7.528914511E-2,-1.069014147E-2
2.157784192E0,4.291328415E-2,-4.230241850E-2,-3.207042580E-3
2.160018262E0,4.214970022E-2,-1.572977938E-2,6.719517522E-3
2.162254346E0,4.276056588E-2,1.710422710E-2,1.053742506E-2
2.164490613E0,3.497203439E-2,5.115996301E-2,1.985311974E-3
2.166724195E0,3.283400834E-2,6.826419383E-2,-1.679879380E-3
2.168952283E0,4.016438872E-2,6.688974798E-2,-3.970623948E-3
2.171201795E0,5.711590126E-2,5.207626149E-2,-2.748893574E-3
2.173437146E0,5.894849449E-2,2.535090782E-2,5.803219974E-3
2.175677198E0,4.734205827E-2,-1.221730490E-3,1.298088674E-2
2.177911268E0,3.054326214E-2,-3.237585723E-2,2.367102914E-2
2.180147413E0,2.275473066E-2,-5.283984542E-2,2.229658142E-2
2.182383924E0,2.336559631E-2,-2.871066704E-2,1.007927675E-2
2.184620313E0,2.947424725E-2,2.825251780E-2,3.054326167E-3
2.186857678E0,3.527746722E-2,6.948592514E-2,3.359758761E-3
2.189095350E0,4.031710699E-2,7.666359097E-2,-1.527163084E-3
2.191328382E0,4.382958263E-2,6.078109145E-2,-1.527163084E-3
2.193555981E0,5.054909736E-2,3.145955876E-2,-5.345070735E-3
2.195792493E0,5.009094998E-2,2.443460980E-3,-1.145372353E-2
2.198040418E0,3.985895589E-2,-1.435533352E-2,-5.497787148E-3
2.200279187E0,3.130684420E-2,-5.803219974E-3,-7.635815418E-4
2.202516859E0,2.809980139E-2,1.618792862E-2,3.054326167E-3
2.204751050E0,2.932153270E-2,2.336559631E-2,1.160643995E-2
2.206988782E0,2.657263726E-2,1.007927675E-2,2.015855350E-2
2.209224012E0,1.695151068E-2,1.878410578E-2,1.267545391E-2
2.211460828E0,6.566801574E-3,5.054909736E-2,-6.108652451E-4
2.213697828E0,1.069014147E-2,6.872233748E-2,-5.497787148E-3
2.215933973E0,3.023782931E-2,6.352998316E-2,-7.788531948E-3
2.218170606E0,3.756821156E-2,5.604688451E-2,-4.123340361E-3
2.220407117E0,2.489275858E-2,4.291328415E-2,5.497787148E-3
2.222643933E0,-1.221730490E-3,3.375030309E-2,4.123340361E-3
2.224881421E0,-1.130100712E-2,1.695151068E-2,3.970623948E-3
2.227116834E0,4.276056774E-3,-3.054326226E-4,5.192354787E-3
2.229354383E0,9.468411095E-3,1.160643995E-2,1.679879380E-3
2.231588087E0,-7.177666761E-3,3.985895589E-2,9.010262787E-3
2.233811780E0,-1.084285788E-2,4.367686436E-2,1.756237634E-2
2.236063916E0,5.955935922E-3,2.260201424E-2,1.267545391E-2
2.238300306E0,2.076941915E-2,2.367102914E-2,4.276056774E-3
2.240541394E0,2.229658142E-2,3.451388702E-2,-6.719517522E-3
2.242774793E0,1.267545391E-2,4.321871698E-2,-5.497787148E-3
2.245010389E0,4.886921961E-3,2.993239649E-2,1.679879380E-3
2.247247510E0,5.803219974E-3,1.298088674E-2,-3.359758761E-3
2.249484815E0,-3.054326226E-4,1.557706390E-2,3.054326226E-4
2.251720594E0,-1.343903504E-2,3.634648025E-2,1.527163084E-3
2.253956922E0,-2.535090782E-2,4.993823543E-2,3.054326226E-4
2.256193433E0,-2.138028294E-2,6.566801667E-2,3.970623948E-3
2.258430555E0,-1.007927675E-2,7.635815442E-2,4.581489484E-4
2.260668164E0,-3.817907767E-3,7.987063378E-2,-5.497787148E-3
2.262903699E0,-2.901609987E-3,6.780604273E-2,-9.315694682E-3
2.265140515E0,-5.803219974E-3,4.230241850E-2,-1.191187184E-2
2.267377637E0,-1.038470957E-2,2.290744567E-3,-7.177666761E-3
2.269613965E0,-1.863138936E-2,-3.756821156E-2,1.221730490E-3
2.271847547E0,-2.412917651E-2,-6.902777404E-2,7.177666761E-3
2.274074903E0,-2.290744707E-2,-6.658431143E-2,9.621127509E-3
2.276323926E0,-2.458732575E-2,-2.641992271E-2,1.221730490E-3
2.278561658E0,-2.611448988E-2,1.725694351E-2,5.039638374E-3
2.280800062E0,-2.092213556E-2,3.405573592E-2,1.496619824E-2
2.283034192E0,-1.588249579E-2,4.123340547E-2,1.618792862E-2
2.285271314E0,-8.246680722E-3,4.963280261E-2,1.267545391E-2
2.287507032E0,-1.557706390E-2,5.345070735E-2,1.527163084E-3
2.289743726E0,-2.306016348E-2,4.382958263E-2,-2.138028387E-3
2.291979810E0,-2.580905706E-2,3.176499158E-2,2.596177394E-3
2.294217237E0,-3.420845419E-2,4.046982154E-2,5.039638374E-3
2.296454664E0,-3.787364438E-2,4.046982154E-2,1.374446787E-3
2.298690137E0,-3.772092983E-2,4.535674304E-2,-3.512475174E-3
2.300927259E0,-3.634648025E-2,5.146539584E-2,-1.084285788E-2
2.303164686E0,-3.497203439E-2,6.108652428E-2,-8.399397135E-3
2.305400342E0,-3.130684420E-2,6.108652428E-2,-7.024950348E-3
2.307636914E0,-3.558290005E-2,3.436116874E-2,-5.955935922E-3
2.309873365E0,-4.153883830E-2,-1.282817032E-2,3.512475174E-3
2.312110547E0,-5.345070735E-2,-5.619960278E-2,7.635815418E-4
2.314348035E0,-5.971207842E-2,-6.215553731E-2,-4.123340361E-3
2.316580396E0,-5.192354694E-2,-4.657847434E-2,-5.192354787E-3
2.318808484E0,-4.673119262E-2,-2.962696366E-2,-1.527163084E-3
2.321057508E0,-4.276056588E-2,-1.527163107E-2,5.955935922E-3
2.323293653E0,-4.764748737E-2,-9.010262787E-3,1.328631863E-2
2.325533216E0,-5.986479297E-2,-2.748893574E-3,1.695151068E-2
2.327766797E0,-6.612616032E-2,-9.926560335E-3,2.168571576E-2
2.330003858E0,-6.276640296E-2,-2.809980139E-2,2.046398632E-2
2.332241346E0,-5.528330430E-2,-2.229658142E-2,1.435533352E-2
2.334476758E0,-5.864306539E-2,-6.414085161E-3,9.468411095E-3
2.336711072E0,-5.971207842E-2,2.138028387E-3,8.399397135E-3
2.338939100E0,-4.886921868E-2,-1.145372353E-2,5.955935922E-3
2.341185559E0,-3.665191308E-2,-1.649336144E-2,-1.527163113E-4
2.343417798E0,-3.252857551E-2,1.527163084E-3,-3.665191587E-3
2.345662793E0,-4.932736978E-2,2.489275858E-2,-3.665191587E-3
2.347897168E0,-5.528330430E-2,3.359758854E-2,0.000000000E0
2.350136121E0,-5.742133409E-2,4.581489414E-2,-2.443460980E-3
2.352370313E0,-6.475171447E-2,5.314527452E-2,-5.039638374E-3
2.354607068E0,-6.612616032E-2,4.108068720E-2,-5.039638374E-3
2.356844007E0,-6.200282276E-2,7.024950348E-3,-3.054326226E-4
2.359076673E0,-5.299255997E-2,-3.084869497E-2,4.581489135E-3
2.361305249E0,-4.795292020E-2,-3.451388702E-2,-3.970623948E-3
2.363555860E0,-4.627304152E-2,-9.010262787E-3,-1.114829071E-2
2.365790601E0,-4.780020565E-2,3.344487399E-2,-1.099557430E-2
2.368028516E0,-4.459316283E-2,7.223481685E-2,-4.734205548E-3
2.370252699E0,-5.070181563E-2,8.200865984E-2,8.704829961E-3
2.372500379E0,-6.704246253E-2,7.024950534E-2,1.832595654E-2
2.374737379E0,-7.987063378E-2,4.138612002E-2,1.695151068E-2
2.376975842E0,-7.055493444E-2,1.450804994E-2,8.246680722E-3
2.379210157E0,-4.367686436E-2,1.832595794E-3,-1.527163113E-4
2.381443738E0,-2.779436857E-2,-5.803219974E-3,3.665191587E-3
2.383671887E0,-2.596177347E-2,-3.619376570E-2,1.466076635E-2
2.385921216E0,-3.313944116E-2,-7.849618047E-2,2.290744707E-2
2.388153333E0,-5.436700583E-2,-9.636399150E-2,1.404990070E-2
2.390384473E0,-7.101308554E-2,-7.055493444E-2,4.276056774E-3
2.392630750E0,-6.994406879E-2,-2.321287990E-2,7.635815418E-4
2.394866956E0,-6.032294407E-2,2.764165215E-2,5.955935922E-3
2.397106458E0,-5.604688451E-2,6.154467165E-2,1.099557430E-2
2.399339734E0,-5.726861581E-2,5.910121277E-2,8.552113548E-3
2.401576795E0,-6.536258012E-2,2.290744707E-2,2.290744567E-3
2.403814283E0,-5.497787148E-2,-1.740965992E-2,-7.635815535E-3
2.406049756E0,-3.817907721E-2,-3.588833287E-2,-1.847867295E-2
2.408287061E0,-3.543018550E-2,-2.504547499E-2,-1.970040426E-2
2.410524122E0,-4.016438872E-2,-1.038470957E-2,-7.483099122E-3
2.412760206E0,-4.001167417E-2,-7.635815418E-4,0.000000000E0
2.414996473E0,-4.459316283E-2,1.389718428E-2,2.443460980E-3
2.417232984E0,-6.017022580E-2,3.848451003E-2,7.330383174E-3
2.419469922E0,-6.887505949E-2,3.619376570E-2,7.177666761E-3
2.421707959E0,-6.200282276E-2,1.069014147E-2,8.399397135E-3
2.423943311E0,-5.635231733E-2,-1.374446787E-2,5.803219974E-3
2.426180432E0,-5.910121277E-2,-3.191770986E-2,2.138028387E-3
2.428417310E0,-5.222897977E-2,-5.986479297E-2,3.207042580E-3
2.430653211E0,-4.642575979E-2,-7.223481685E-2,-4.581489484E-4
2.432889783E0,-4.856378585E-2,-5.513058975E-2,2.138028387E-3
2.435126295E0,-6.383541971E-2,-1.847867295E-2,9.468411095E-3
2.437359388E0,-7.177666575E-2,1.572977938E-2,9.468411095E-3
2.439582593E0,-6.475171447E-2,5.558873713E-2,9.773843922E-3
2.441824353E0,-4.917465150E-2,9.407325089E-2,1.252273750E-2
2.444073438E0,-4.016438872E-2,1.145372316E-1,4.123340361E-3
2.446314283E0,-4.550946131E-2,9.162978828E-2,1.527163084E-3
2.448549573E0,-4.673119262E-2,2.855795063E-2,3.665191587E-3
2.450783216E0,-4.948008433E-2,-4.306599870E-2,9.162978968E-4
2.453019971E0,-5.543602258E-2,-9.269879758E-2,-6.108652451E-4
2.455256787E0,-5.558873713E-2,-1.035416573E-1,-7.941247895E-3
2.457494336E0,-5.238169432E-2,-7.086037099E-2,-1.634064503E-2
2.459729871E0,-5.390885845E-2,-2.107485011E-2,-1.007927675E-2
2.461966992E0,-4.337143153E-2,1.634064503E-2,-1.221730490E-3
2.464203992E0,-3.176499158E-2,3.802636266E-2,-7.177666761E-3
2.466439832E0,-2.993239649E-2,6.459899992E-2,-8.246680722E-3
2.468676343E0,-3.695734590E-2,8.292495459E-2,-4.581489135E-3
2.470912733E0,-4.978551716E-2,6.383541971E-2,2.596177394E-3
2.473150098E0,-5.543602258E-2,2.382374369E-2,1.069014193E-3
2.475387647E0,-5.039638281E-2,-2.474004216E-2,4.581489135E-3
2.477623243E0,-4.856378585E-2,-6.246097013E-2,1.985311974E-3
2.479857068E0,-5.268712714E-2,-7.819075137E-2,-4.581489484E-4
2.482085340E0,-5.375614017E-2,-6.963863969E-2,3.207042580E-3
2.484333143E0,-4.581489414E-2,-4.428773001E-2,4.581489135E-3
2.486567457E0,-3.161227703E-2,-1.175915636E-2,4.886921961E-3
2.488800000E0,-2.504547499E-2,1.114829071E-2,8.704829961E-3
2.491043469E0,-2.977968007E-2,1.847867295E-2,7.483099122E-3
2.493281202E0,-4.077525437E-2,2.351831272E-2,6.108652335E-3
2.495518811E0,-3.481931984E-2,1.496619824E-2,6.108652335E-3
2.497753308E0,-2.382374369E-2,7.483099122E-3,8.704829961E-3
2.499990308E0,-1.756237634E-2,1.466076635E-2,3.817907767E-3
2.502226453E0,-2.977968007E-2,1.847867295E-2,3.817907767E-3
2.504463086E0,-3.741549700E-2,6.566801574E-3,7.330383174E-3
2.506696729E0,-2.672535367E-2,-1.313360315E-2,4.886921961E-3
2.508921521E0,-1.359175146E-2,-3.039054573E-2,4.886921961E-3
2.511157605E0,-1.970040426E-2,-3.145955876E-2,3.665191587E-3
2.513398816E0,-3.894266114E-2,-1.527163107E-2,-5.039638374E-3
2.515649549E0,-3.039054573E-2,-1.420261711E-2,-9.773843922E-3
2.517887159E0,-8.093964309E-3,-1.221730467E-2,-1.206458826E-2
2.520122511E0,-7.635815535E-3,1.084285788E-2,-8.246680722E-3
2.522356336E0,-2.458732575E-2,3.054326214E-2,2.596177394E-3
2.524592725E0,-3.207042441E-2,3.069597855E-2,6.261368748E-3
2.526826978E0,-2.107485011E-2,1.832595654E-2,1.527163113E-4
2.529055311E0,-1.145372353E-2,5.955935922E-3,-2.290744567E-3
2.531302991E0,-2.275473066E-2,-1.069014193E-3,-6.108652335E-3
2.533540174E0,-3.909537569E-2,-1.771509275E-2,-6.261368748E-3
2.535780041E0,-3.741549700E-2,-5.299255997E-2,-3.054326226E-4
2.538013074E0,-3.084869497E-2,-9.315694869E-2,9.162978968E-4
2.540249402E0,-2.886338346E-2,-1.162171140E-1,7.635815418E-4
2.542486219E0,-2.993239649E-2,-1.149953827E-1,-4.581489484E-4
2.544723035E0,-2.580905706E-2,-9.071348608E-2,-1.527163084E-3
2.546960706E0,-1.756237634E-2,-4.841107130E-2,-5.039638374E-3
2.549196363E0,-3.359758761E-3,-1.603521220E-2,1.374446787E-3
2.551432996E0,-3.970623948E-3,1.435533352E-2,6.414085161E-3
2.553670057E0,-1.970040426E-2,3.161227703E-2,1.374446787E-2
2.555906080E0,-2.489275858E-2,1.603521220E-2,7.483099122E-3
2.558142835E0,-2.168571576E-2,-8.399397135E-3,-4.886921961E-3
2.560379651E0,-1.221730467E-2,-2.794708498E-2,-2.443460980E-3
2.562616651E0,-4.123340361E-3,-4.871650413E-2,4.886921961E-3
2.564853956E0,-1.175915636E-2,-6.200282276E-2,7.177666761E-3
2.567089490E0,-1.069014147E-2,-6.918048859E-2,1.206458826E-2
2.569326551E0,-2.901609987E-3,-5.604688451E-2,0.000000000E0
2.571563611E0,-2.290744567E-3,-2.565634064E-2,-1.084285788E-2
2.573799451E0,-1.282817032E-2,3.665191587E-3,-4.734205548E-3
2.576036023E0,-2.244929783E-2,1.237002108E-2,3.817907767E-3
2.578269666E0,-1.282817032E-2,4.886921961E-3,7.483099122E-3
2.580495068E0,-1.832595794E-3,-3.817907767E-3,-9.162978968E-4
2.582735547E0,2.901609987E-3,-1.603521220E-2,-5.955935922E-3
2.584982862E0,2.596177394E-3,-3.191770986E-2,-7.177666761E-3
2.587219861E0,1.206458826E-2,-4.291328415E-2,-3.512475174E-3
2.589444898E0,1.572977938E-2,-4.550946131E-2,2.596177394E-3
2.591680860E0,7.024950348E-3,-4.535674304E-2,9.926560335E-3
2.593929639E0,2.290744567E-3,-3.787364438E-2,9.926560335E-3
2.596169142E0,3.054326226E-4,-1.359175146E-2,7.483099122E-3
2.598406019E0,9.162978968E-4,1.420261711E-2,1.130100712E-2
2.600640455E0,-7.330383174E-3,3.145955876E-2,1.130100712E-2
2.602875806E0,-1.527163113E-4,2.641992271E-2,7.788531948E-3
2.605112928E0,2.061670274E-2,1.145372353E-2,-1.985311974E-3
2.607349988E0,2.779436857E-2,-1.985311974E-3,-9.315694682E-3
2.609586133E0,1.756237634E-2,-1.634064503E-2,-3.359758761E-3
2.611822706E0,8.399397135E-3,-4.657847434E-2,-1.069014193E-3
2.614059278E0,1.145372353E-2,-7.208210230E-2,-2.290744567E-3
2.616296338E0,1.664607786E-2,-6.123924255E-2,-1.069014193E-3
2.618533826E0,7.483099122E-3,-2.718350291E-2,3.970623948E-3
2.620769178E0,-4.581489484E-4,9.468411095E-3,1.130100712E-2
2.623006238E0,3.817907767E-3,3.604105115E-2,1.023199316E-2
2.625240369E0,1.282817032E-2,6.017022580E-2,9.162978269E-3
2.627464856E0,1.542434748E-2,6.017022580E-2,1.038470957E-2
2.629702100E0,1.572977938E-2,1.756237634E-2,4.123340361E-3
2.631942823E0,1.588249579E-2,-4.062253982E-2,-3.359758761E-3
2.634192579E0,1.511891466E-2,-7.819075137E-2,2.596177394E-3
2.636430006E0,1.588249579E-2,-9.773843735E-2,2.443460980E-3
2.638664929E0,1.603521220E-2,-9.040805697E-2,1.221730490E-3
2.640899549E0,2.519819140E-2,-6.261368841E-2,1.527163084E-3
2.643136609E0,2.962696366E-2,-2.626720630E-2,4.581489484E-4
2.645372754E0,3.252857551E-2,-4.581489135E-3,4.276056774E-3
2.647606336E0,2.916881628E-2,1.007927675E-2,9.162978269E-3
2.649833936E0,2.550362423E-2,1.496619824E-2,6.719517522E-3
2.652082959E0,2.657263726E-2,2.901609987E-3,5.345070735E-3
2.654320386E0,3.619376570E-2,-1.191187184E-2,4.581489484E-4
2.656559827E0,3.955352306E-2,-2.901609987E-2,-5.650503561E-3
2.658797986E0,4.184427112E-2,-3.634648025E-2,-3.207042580E-3
2.661029920E0,3.207042441E-2,-3.008511290E-2,-4.428773187E-3
2.663266126E0,2.871066704E-2,-1.664607786E-2,-5.650503561E-3
2.665501355E0,3.008511290E-2,-4.428773187E-3,-5.650503561E-3
2.667739210E0,3.039054573E-2,5.192354787E-3,-9.315694682E-3
2.669976270E0,3.420845419E-2,1.114829071E-2,-1.160643995E-2
2.672213758E0,3.298672289E-2,1.007927675E-2,-9.162978269E-3
2.674447034E0,3.039054573E-2,7.635815535E-3,-1.832595794E-3
2.676674878E0,3.329215571E-2,-2.397646010E-2,1.145372353E-2
2.678911207E0,3.878994286E-2,-5.436700583E-2,1.511891466E-2
2.681159131E0,3.649919853E-2,-4.825835302E-2,7.788531948E-3
2.683397962E0,3.207042441E-2,-3.130684420E-2,4.123340361E-3
2.685635266E0,2.871066704E-2,-1.664607786E-2,-1.985311974E-3
2.687869641E0,2.138028294E-2,-9.162978269E-3,1.679879380E-3
2.690107068E0,2.367102914E-2,-1.893682219E-2,9.010262787E-3
2.692342542E0,3.176499158E-2,-4.214970022E-2,7.635815535E-3
2.694579724E0,3.130684420E-2,-6.520986557E-2,5.192354787E-3
2.696816480E0,3.344487399E-2,-7.864890248E-2,2.748893574E-3
2.699052442E0,3.237585723E-2,-7.620543987E-2,-2.138028387E-3
2.701286145E0,3.665191308E-2,-4.581489414E-2,-7.635815418E-4
2.703513624E0,4.214970022E-2,-1.572977938E-2,1.832595794E-3
2.705762952E0,4.123340547E-2,1.374446787E-3,3.054326167E-3
2.707997510E0,3.543018550E-2,1.847867295E-2,3.054326167E-3
2.710227247E0,2.947424725E-2,2.703078650E-2,4.276056774E-3
2.712472547E0,3.176499158E-2,1.603521220E-2,5.497787148E-3
2.714709791E0,3.588833287E-2,-1.802052557E-2,5.345070735E-3
2.716948560E0,4.153883830E-2,-4.963280261E-2,4.581489484E-4
2.719182325E0,3.756821156E-2,-6.047565863E-2,-4.581489135E-3
2.721415784E0,3.283400834E-2,-5.558873713E-2,-4.581489135E-3
2.723643750E0,3.787364438E-2,-4.948008433E-2,-4.428773187E-3
2.725893506E0,4.413501546E-2,-4.367686436E-2,4.581489484E-4
2.728126111E0,5.314527452E-2,-1.832595654E-2,6.108652451E-4
2.730357252E0,5.497787148E-2,4.734205548E-3,7.635815418E-4
2.732603162E0,4.780020565E-2,1.939497143E-2,7.635815418E-4
2.734839002E0,3.863722831E-2,-2.290744567E-3,1.038470957E-2
2.737078503E0,3.817907721E-2,-2.886338346E-2,1.145372353E-2
2.739311902E0,3.420845419E-2,-4.214970022E-2,6.566801574E-3
2.741549268E0,2.672535367E-2,-5.177082866E-2,6.414085161E-3
2.743786756E0,2.138028294E-2,-6.872233748E-2,1.114829071E-2
2.746022229E0,2.550362423E-2,-4.932736978E-2,3.054326226E-4
2.748259473E0,4.352414981E-2,-1.450804994E-2,-5.497787148E-3
2.750496473E0,5.360342562E-2,-2.596177394E-3,-1.679879380E-3
2.752729321E0,4.871650413E-2,3.665191587E-3,6.872233935E-3
2.754956617E0,4.459316283E-2,-1.695151068E-2,1.282817032E-2
2.757205213E0,4.153883830E-2,-4.230241850E-2,9.010262787E-3
2.759442578E0,1.954768784E-2,-3.833179548E-2,3.054326226E-4
2.761683118E0,1.374446787E-2,-2.596177347E-2,-9.162978968E-4
2.763915479E0,3.588833287E-2,-2.397646010E-2,-6.872233935E-3
2.766152539E0,4.413501546E-2,1.588249579E-2,-1.023199316E-2
2.768389783E0,3.833179548E-2,3.787364438E-2,-1.679879380E-3
2.770625623E0,3.649919853E-2,1.114829071E-2,4.276056774E-3
2.772861951E0,4.489859566E-2,-5.955935922E-3,3.054326167E-3
2.775098524E0,4.978551716E-2,-3.665191587E-3,3.207042580E-3
2.777335828E0,4.245513305E-2,-2.290744567E-3,-6.719517522E-3
2.779573255E0,2.153299935E-2,-7.941247895E-3,-5.650503561E-3
2.781809034E0,1.603521220E-2,-3.084869497E-2,2.748893574E-3
2.784045789E0,1.679879427E-2,-5.283984542E-2,1.114829071E-2
2.786282911E0,1.328631863E-2,-4.184427112E-2,9.926560335E-3
2.788518934E0,9.315694682E-3,-4.581489484E-4,3.970623948E-3
2.790755567E0,2.214386500E-2,2.474004216E-2,3.054326167E-3
2.792992078E0,3.848451003E-2,4.382958263E-2,-1.679879380E-3
2.795224744E0,4.382958263E-2,6.444628537E-2,-5.192354787E-3
2.797449842E0,3.756821156E-2,5.849034712E-2,-4.581489484E-4
2.799702100E0,2.825251780E-2,2.580905706E-2,6.108652451E-4
2.801939405E0,2.015855350E-2,-7.941247895E-3,4.123340361E-3
2.804180310E0,1.954768784E-2,-4.062253982E-2,3.054326226E-4
2.806412061E0,8.552113548E-3,-3.436116874E-2,-1.069014193E-3
2.808648755E0,1.389718428E-2,-1.023199316E-2,1.374446787E-2
2.810885206E0,2.886338346E-2,-7.635815418E-4,2.138028294E-2
2.813122571E0,3.069597855E-2,3.191770986E-2,1.404990070E-2
2.815360059E0,2.535090782E-2,6.352998316E-2,6.872233935E-3
2.817595594E0,3.145955876E-2,6.215553731E-2,7.635815418E-4
2.819832166E0,3.115412779E-2,4.398229718E-2,-4.123340361E-3
2.822069410E0,3.573561832E-2,2.932153270E-2,-5.497787148E-3
2.824305250E0,3.283400834E-2,2.748893574E-3,-7.941247895E-3
2.826539197E0,2.275473066E-2,-6.719517522E-3,-4.428773187E-3
2.828767530E0,1.893682219E-2,-7.941247895E-3,-7.635815418E-4
2.831015821E0,2.932153270E-2,1.252273750E-2,-4.276056774E-3
2.833253186E0,2.779436857E-2,6.475171447E-2,1.985311974E-3
2.835491712E0,2.107485011E-2,1.000291854E-1,1.069014147E-2
2.837725721E0,2.672535367E-2,7.681630552E-2,1.298088674E-2
2.839959851E0,2.015855350E-2,5.757404864E-2,9.315694682E-3
2.842186841E0,-6.108652451E-4,6.047565863E-2,2.901609987E-3
2.844435193E0,-7.330383174E-3,3.390302137E-2,-2.138028387E-3
2.846668836E0,1.832595794E-3,-6.414085161E-3,-1.435533352E-2
2.848900098E0,9.926560335E-3,-3.084869497E-2,-1.572977938E-2
2.851146436E0,3.665191587E-3,-4.153883830E-2,-1.450804994E-2
2.853382032E0,-5.192354787E-3,-4.993823543E-2,-6.108652335E-3
2.855622022E0,-3.054326226E-4,-4.520402849E-2,3.817907767E-3
2.857856153E0,1.252273750E-2,-1.878410578E-2,1.007927675E-2
2.860092237E0,9.773843922E-3,2.993239649E-2,1.634064503E-2
2.862328748E0,-1.832595794E-3,6.536258012E-2,1.771509275E-2
2.864565015E0,-1.282817032E-2,6.673702598E-2,1.267545391E-2
2.866799451E0,-2.275473066E-2,6.078109145E-2,7.635815535E-3
2.869029920E0,-2.901609987E-2,5.131268129E-2,-3.512475174E-3
2.871275342E0,-2.199114859E-2,3.543018550E-2,-1.450804994E-2
2.873512403E0,-1.282817032E-2,-0.000000000E0,-1.572977938E-2
2.875751599E0,-6.261368748E-3,-4.016438872E-2,-6.108652335E-3
2.877983289E0,-5.497787148E-3,-5.833763257E-2,-1.221730490E-3
2.880214002E0,-1.557706390E-2,-1.328631863E-2,-6.108652335E-3
2.882458448E0,-3.420845419E-2,4.046982154E-2,-3.512475174E-3
2.884695508E0,-4.138612002E-2,5.390885845E-2,1.114829071E-2
2.886935010E0,-3.130684420E-2,6.704246253E-2,1.618792862E-2
2.889168592E0,-2.733621933E-2,8.032877743E-2,1.267545391E-2
2.891405408E0,-3.008511290E-2,6.459899992E-2,7.635815535E-3
2.893642469E0,-3.313944116E-2,3.069597855E-2,-1.084285788E-2
2.895878553E0,-3.008511290E-2,-5.803219974E-3,-2.076941915E-2
2.898115186E0,-2.092213556E-2,-3.390302137E-2,-1.343903504E-2
2.900351758E0,-1.267545391E-2,-5.467243865E-2,-7.330383174E-3
2.902585828E0,-2.382374369E-2,-5.314527452E-2,-1.527163113E-4
2.904814405E0,-4.214970022E-2,-4.077525437E-2,1.313360315E-2
2.907061963E0,-4.886921868E-2,-9.010262787E-3,2.306016348E-2
2.909299024E0,-3.787364438E-2,5.146539584E-2,1.725694351E-2
2.911539014E0,-2.321287990E-2,1.021672115E-1,7.788531948E-3
2.913771863E0,-1.206458826E-2,1.067487001E-1,7.941247895E-3
2.916008436E0,-1.160643995E-2,6.795875728E-2,6.566801574E-3
2.918245008E0,-1.527163107E-2,8.552113548E-3,6.261368748E-3
2.920479077E0,-8.857546374E-3,-4.505131021E-2,-1.221730490E-3
2.922708508E0,-3.054326167E-3,-6.811147183E-2,-8.552113548E-3
2.924959363E0,-6.566801574E-3,-5.238169432E-2,-1.221730490E-3
2.927192090E0,-1.679879427E-2,-9.621127509E-3,3.817907767E-3
2.929432386E0,-2.947424725E-2,3.191770986E-2,7.483099122E-3
2.931664136E0,-3.023782931E-2,5.742133409E-2,1.252273750E-2
2.933901807E0,-2.764165215E-2,6.826419383E-2,1.374446787E-2
2.936138257E0,-2.382374369E-2,7.177666575E-2,5.192354787E-3
2.938375196E0,-2.382374369E-2,6.811147183E-2,-8.246680722E-3
2.940612928E0,-2.535090782E-2,4.627304152E-2,-1.206458826E-2
2.942848279E0,-4.581489484E-4,5.803219974E-3,-8.246680722E-3
2.945085401E0,1.985312067E-2,-2.977968007E-2,-1.191187184E-2
2.947322401E0,6.566801574E-3,-1.618792862E-2,-2.138028387E-3
2.949558545E0,-2.626720630E-2,9.926560335E-3,8.704829961E-3
2.951795118E0,-3.130684420E-2,8.857546374E-3,9.773843922E-3
2.954031690E0,-2.015855350E-2,8.552113548E-3,1.114829071E-2
2.956268811E0,-1.970040426E-2,2.809980139E-2,7.635815535E-3
2.958506482E0,-3.191770986E-2,3.313944116E-2,9.926560335E-3
2.960741651E0,-3.222314268E-2,1.618792862E-2,6.108652335E-3
2.962976209E0,-2.061670274E-2,-1.679879427E-2,0.000000000E0
2.965204847E0,-5.345070735E-3,-5.482515693E-2,0.000000000E0
2.967451612E0,4.581489484E-4,-6.948592514E-2,-3.665191587E-3
2.969688306E0,-1.496619824E-2,-4.367686436E-2,-8.552113548E-3
2.971927380E0,-3.405573592E-2,-1.175915636E-2,-6.108652335E-3
2.974161878E0,-3.741549700E-2,5.345070735E-3,-7.330383174E-3
2.976399549E0,-2.596177347E-2,1.847867295E-2,-2.290744567E-3
2.978634961E0,-1.954768784E-2,3.405573592E-2,5.192354787E-3
2.980872022E0,-3.054326214E-2,4.276056588E-2,1.481348183E-2
2.983108961E0,-4.337143153E-2,1.878410578E-2,2.199114859E-2
2.985344861E0,-3.436116874E-2,-1.786780916E-2,1.832595654E-2
2.987581495E0,-1.863138936E-2,-3.512475267E-2,9.773843922E-3
2.989818250E0,-1.328631863E-2,-2.183843218E-2,2.443460980E-3
2.992055188E0,-2.779436857E-2,-7.024950348E-3,-2.443460980E-3
2.994292920E0,-3.145955876E-2,-5.650503561E-3,-2.443460980E-3
2.996528211E0,-2.275473066E-2,-1.069014193E-3,-2.443460980E-3
2.998765332E0,-1.481348183E-2,2.428189293E-2,-3.359758761E-3
3.001002271E0,-3.054326214E-2,4.031710699E-2,-7.177666761E-3
3.003238172E0,-4.795292020E-2,2.611448988E-2,-4.886921961E-3
3.005474744E0,-4.260785133E-2,-1.038470957E-2,-1.527163113E-4
3.007711073E0,-2.932153270E-2,-2.641992271E-2,-5.039638374E-3
3.009947461E0,-1.847867295E-2,-3.268129006E-2,2.443460980E-3
3.012185926E0,-2.367102914E-2,-4.230241850E-2,9.621127509E-3
3.014421277E0,-2.626720630E-2,-5.314527452E-2,7.177666761E-3
3.016655653E0,-2.107485011E-2,-4.108068720E-2,2.443460980E-3
3.018883680E0,-2.550362423E-2,-1.069014147E-2,2.443460980E-3
3.021131543E0,-3.359758854E-2,1.374446787E-2,4.886921961E-3
3.023368116E0,-3.344487399E-2,2.107485011E-2,5.039638374E-3
3.025607617E0,-3.069597855E-2,3.191770986E-2,-3.512475174E-3
3.027841809E0,-3.191770986E-2,3.191770986E-2,1.374446787E-3
3.030079541E0,-2.748893574E-2,8.704829961E-3,6.261368748E-3
3.032314893E0,-1.817324013E-2,-1.817324013E-2,4.886921961E-3
3.034551892E0,-1.099557430E-2,-2.916881628E-2,1.221730490E-3
3.036788587E0,-3.665191587E-3,-3.176499158E-2,1.527163113E-4
3.039024549E0,-3.512475174E-3,-2.443460934E-2,-1.069014193E-3
3.041261670E0,-2.138028387E-3,-1.359175146E-2,3.817907767E-3
3.043499219E0,1.985311974E-3,8.246680722E-3,7.635815535E-3
3.045735059E0,-5.345070735E-3,1.435533352E-2,1.618792862E-2
3.047971815E0,-1.038470957E-2,4.734205548E-3,1.740965992E-2
3.050205640E0,-5.650503561E-3,-5.039638374E-3,9.926560335E-3
3.052445020E0,6.108652451E-4,-2.748893574E-3,1.527163084E-3
3.054682264E0,-1.374446787E-3,1.924225502E-2,-2.138028387E-3
3.056918408E0,-1.145372353E-2,1.328631863E-2,2.748893574E-3
3.059154737E0,-1.313360315E-2,-7.330383174E-3,5.039638374E-3
3.061388379E0,-1.710422710E-2,-2.306016348E-2,-2.443460980E-3
3.063616956E0,-1.588249579E-2,-3.268129006E-2,-1.221730467E-2
3.065865857E0,-8.704829961E-3,-3.772092983E-2,-1.099557430E-2
3.068098279E0,-7.024950348E-3,-1.343903504E-2,-7.177666761E-3
3.070329481E0,-8.704829961E-3,2.168571576E-2,1.527163084E-3
3.072575574E0,1.221730490E-3,3.252857551E-2,6.566801574E-3
3.074811414E0,1.191187184E-2,1.038470957E-2,4.123340361E-3
3.077047803E0,8.857546374E-3,-1.496619824E-2,6.414085161E-3
3.079269910E0,-1.099557430E-2,-2.794708498E-2,6.108652335E-3
3.081509900E0,-2.947424725E-2,-2.886338346E-2,5.955935922E-3
3.083758985E0,-2.962696366E-2,-3.481931984E-2,4.734205548E-3
3.085997816E0,-1.282817032E-2,-5.467243865E-2,4.886921961E-3
3.088232984E0,6.108652451E-4,-6.582073122E-2,1.221730490E-3
3.090453748E0,-1.053742506E-2,-6.795875728E-2,-3.817907767E-3
3.092692823E0,-2.290744707E-2,-6.780604273E-2,-2.596177394E-3
3.094940992E0,-2.138028294E-2,-5.574145541E-2,-1.527163113E-4
3.097180859E0,-1.725694351E-2,-3.512475267E-2,-2.443460980E-3
3.099417676E0,-1.786780916E-2,1.527163113E-4,2.596177394E-3
3.101652234E0,-2.718350291E-2,2.336559631E-2,2.596177394E-3
3.103887830E0,-3.069597855E-2,3.787364438E-2,6.261368748E-3
3.106124951E0,-2.336559631E-2,2.932153270E-2,6.261368748E-3
3.108361951E0,-3.008511290E-2,6.414085161E-3,3.665191587E-3
3.110597791E0,-3.802636266E-2,-2.504547499E-2,-1.374446787E-3
3.112834424E0,-3.497203439E-2,-6.032294407E-2,-3.970623948E-3
3.115071180E0,-2.794708498E-2,-7.864890248E-2,-6.414085161E-3
3.117308057E0,-3.405573592E-2,-7.727445662E-2,-1.007927675E-2
3.119545606E0,-3.405573592E-2,-7.360926270E-2,-5.192354787E-3
3.121781141E0,-2.046398632E-2,-6.658431143E-2,1.069014193E-3
3.124015393E0,-1.511891466E-2,-4.978551716E-2,6.108652335E-3
3.126240918E0,-2.122756653E-2,-4.352414981E-2,1.466076635E-2
3.128478162E0,-2.596177347E-2,-3.863722831E-2,7.177666761E-3
3.130721814E0,-2.214386500E-2,-2.657263726E-2,7.330383174E-3
3.132967114E0,-9.621127509E-3,-1.466076635E-2,9.926560335E-3
3.135204297E0,-9.621127509E-3,-1.466076635E-2,9.926560335E-3
3.137440626E0,-1.603521220E-2,-2.779436857E-2,1.221730467E-2
3.139674512E0,-1.130100712E-2,-4.489859566E-2,6.108652335E-3
3.141911573E0,1.069014147E-2,-5.390885845E-2,-3.512475174E-3
3.144148572E0,1.557706390E-2,-5.161811411E-2,-4.734205548E-3
3.146384656E0,7.177666761E-3,-4.169155285E-2,-4.734205548E-3
3.148618054E0,-3.054326226E-4,-4.398229718E-2,1.374446787E-3
3.150845838E0,5.955935922E-3,-3.802636266E-2,8.704829961E-3
3.153094617E0,1.359175146E-2,-2.718350291E-2,7.635815535E-3
3.155332166E0,1.389718428E-2,-1.634064503E-2,5.192354787E-3
3.157567457E0,7.788531948E-3,-1.496619824E-2,1.527163084E-3
3.159792676E0,1.481348183E-2,-2.840523422E-2,-2.138028387E-3
3.162041822E0,2.046398632E-2,-5.528330430E-2,1.374446787E-3
3.164277539E0,1.160643995E-2,-6.841690838E-2,2.596177394E-3
3.166517347E0,-7.635815418E-4,-7.070764899E-2,1.221730490E-3
3.168750867E0,3.054326226E-4,-7.910704613E-2,0.000000000E0
3.170988050E0,4.581489135E-3,-5.253441259E-2,-4.734205548E-3
3.173223097E0,4.276056774E-3,-6.414085161E-3,-2.138028387E-3
3.175451551E0,9.621127509E-3,2.138028294E-2,4.123340361E-3
3.177698926E0,1.099557430E-2,2.871066704E-2,6.566801574E-3
3.179935193E0,8.399397135E-3,2.260201424E-2,1.023199316E-2
3.182173474E0,4.581489135E-3,1.298088674E-2,3.970623948E-3
3.184407422E0,1.985311974E-3,2.138028387E-3,-3.359758761E-3
3.186641126E0,4.123340361E-3,-1.007927675E-2,-4.581489135E-3
3.188869092E0,9.621127509E-3,-4.046982154E-2,2.596177394E-3
3.191118787E0,1.145372353E-2,-7.452555746E-2,6.108652335E-3
3.193354139E0,9.773843922E-3,-9.758572280E-2,7.330383174E-3
3.195594251E0,1.328631863E-2,-1.061378345E-1,2.443460980E-3
3.197828260E0,2.611448988E-2,-8.323039114E-2,-2.290744567E-3
3.200064405E0,2.443460934E-2,-3.955352306E-2,-2.138028387E-3
3.202300916E0,1.175915636E-2,-4.581489484E-4,3.054326226E-4
3.204537366E0,7.330383174E-3,2.138028294E-2,-3.207042580E-3
3.206771985E0,1.954768784E-2,1.756237634E-2,-7.635815418E-4
3.209000623E0,2.397646010E-2,-7.635815418E-4,1.679879380E-3
3.211244458E0,8.093964309E-3,6.872233935E-3,2.748893574E-3
3.213472242E0,5.803219974E-3,9.315694682E-3,-9.162978968E-4
3.215724438E0,2.031126991E-2,-6.108652451E-4,-3.207042580E-3
3.217957654E0,3.863722831E-2,-1.313360315E-2,-6.719517522E-3
3.220197095E0,3.711006418E-2,-2.168571576E-2,-3.207042580E-3
3.222430799E0,1.863138936E-2,-2.244929783E-2,1.527163084E-3
3.224667676E0,1.114829071E-2,-2.596177347E-2,3.970623948E-3
3.226905530E0,2.336559631E-2,-3.344487399E-2,-2.138028387E-3
3.229141004E0,3.817907721E-2,-3.741549700E-2,-9.315694682E-3
3.231377881E0,3.940080851E-2,-3.375030309E-2,-8.093964309E-3
3.233614881E0,3.436116874E-2,-3.741549700E-2,4.123340361E-3
3.235850904E0,3.787364438E-2,-4.352414981E-2,7.788531948E-3
3.238087354E0,4.260785133E-2,-5.085453019E-2,1.145372353E-2
3.240324170E0,3.894266114E-2,-5.436700583E-2,1.023199316E-2
3.242561170E0,2.428189293E-2,-4.810563847E-2,5.192354787E-3
3.244798597E0,1.237002108E-2,-2.962696366E-2,3.970623948E-3
3.247034314E0,1.267545391E-2,-1.511891466E-2,6.414085161E-3
3.249271192E0,2.611448988E-2,-1.527163107E-2,1.145372353E-2
3.251508436E0,3.375030309E-2,-4.581489135E-3,1.038470957E-2
3.253743970E0,3.375030309E-2,-4.581489135E-3,3.054326167E-3
3.255980603E0,3.008511290E-2,-8.093964309E-3,4.581489484E-4
3.258217115E0,1.908953860E-2,-5.497787148E-3,-5.650503561E-3
3.260454358E0,2.122756653E-2,-1.771509275E-2,1.679879380E-3
3.262692151E0,3.298672289E-2,-4.337143153E-2,2.901609987E-3
3.264927686E0,2.321287990E-2,-3.833179548E-2,3.054326226E-4
3.267164502E0,1.007927675E-2,-2.474004216E-2,-9.162978968E-4
3.269401441E0,1.588249579E-2,-3.695734590E-2,-3.359758761E-3
3.271637342E0,2.336559631E-2,-3.833179548E-2,-1.191187184E-2
3.273874158E0,2.244929783E-2,-1.771509275E-2,-8.093964309E-3
3.276110547E0,1.771509275E-2,-1.389718428E-2,-4.581489135E-3
3.278347852E0,6.261368748E-3,-2.351831272E-2,3.054326226E-4
3.280585096E0,3.817907767E-3,-2.336559631E-2,-1.069014193E-3
3.282820691E0,6.719517522E-3,-6.414085161E-3,3.054326226E-4
3.285057447E0,1.450804994E-2,1.404990070E-2,-4.428773187E-3
3.287294629E0,1.084285788E-2,1.893682219E-2,-1.985311974E-3
3.289530896E0,6.566801574E-3,-1.130100712E-2,2.748893574E-3
3.291767347E0,-7.330383174E-3,-3.039054573E-2,3.817907767E-3
3.294004529E0,-1.710422710E-2,-1.939497143E-2,9.773843922E-3
3.296242566E0,-1.557706390E-2,-6.108652335E-3,5.039638374E-3
3.298478528E0,-1.023199316E-2,7.177666761E-3,-3.512475174E-3
3.300714185E0,-7.788531948E-3,7.177666761E-3,-2.138028387E-3
3.302950452E0,-5.192354787E-3,1.191187184E-2,-9.162978968E-4
3.305188123E0,-4.581489484E-4,8.246680722E-3,5.192354787E-3
3.307423963E0,4.276056774E-3,-3.970623948E-3,5.192354787E-3
3.309660779E0,2.748893574E-3,-2.214386500E-2,-8.399397135E-3
3.311896863E0,0.000000000E0,-3.543018550E-2,-5.955935922E-3
3.314134229E0,9.162978968E-4,-5.131268129E-2,0.000000000E0
3.316371656E0,-1.252273750E-2,-4.123340547E-2,4.886921961E-3
3.318607190E0,-2.565634064E-2,-1.679879427E-2,1.343903504E-2
3.320844434E0,-1.175915636E-2,2.443460980E-3,1.970040426E-2
3.323081434E0,1.710422710E-2,2.977968007E-2,1.404990070E-2
3.325317273E0,1.954768784E-2,8.185594529E-2,7.635815418E-4
3.327553602E0,6.566801574E-3,1.064432710E-1,-7.788531948E-3
3.329790418E0,-5.650503561E-3,5.207626149E-2,1.679879380E-3
3.332027600E0,-2.290744567E-3,-2.214386500E-2,8.704829961E-3
3.334265332E0,8.246680722E-3,-5.375614017E-2,-1.069014193E-3
3.336500440E0,-2.596177394E-3,-4.382958263E-2,-1.710422710E-2
3.338739026E0,-2.046398632E-2,-1.084285788E-2,-1.343903504E-2
3.340980237E0,-1.282817032E-2,1.221730490E-3,-1.069014193E-3
3.343211866E0,1.282817032E-2,-4.581489484E-4,9.010262787E-3
3.345445203E0,1.313360315E-2,1.282817032E-2,1.634064503E-2
3.347682447E0,-7.635815535E-3,1.802052557E-2,1.740965992E-2
3.349920423E0,-1.175915636E-2,-6.108652335E-3,6.261368748E-3
3.352158826E0,-2.138028387E-3,-1.970040426E-2,-1.084285788E-2
3.354393689E0,6.566801574E-3,-1.740965992E-2,-1.557706390E-2
3.356627759E0,-8.399397135E-3,-2.199114859E-2,-2.290744567E-3
3.358855848E0,-1.618792862E-2,-4.001167417E-2,7.330383174E-3
3.361103956E0,-1.130100712E-2,-3.772092983E-2,6.108652335E-3
3.363340467E0,-1.679879427E-2,-8.399397135E-3,1.237002108E-2
3.365579785E0,-2.687807009E-2,3.787364438E-2,6.261368748E-3
3.367813916E0,-2.138028294E-2,6.688974798E-2,-9.162978968E-4
3.370051709E0,-4.276056774E-3,6.291911751E-2,1.679879380E-3
3.372287305E0,-2.290744567E-3,3.741549700E-2,7.788531948E-3
3.374524121E0,-1.679879427E-2,-3.512475174E-3,1.481348183E-2
3.376758130E0,-2.733621933E-2,-3.985895589E-2,9.621127509E-3
3.378985181E0,-2.977968007E-2,-4.337143153E-2,1.069014193E-3
3.381233472E0,-2.061670274E-2,-1.924225502E-2,-3.665191587E-3
3.383469922E0,-1.634064503E-2,9.773843922E-3,-7.177666761E-3
3.385710462E0,-2.229658142E-2,2.443460934E-2,-1.069014193E-3
3.387945081E0,-2.458732575E-2,2.809980139E-2,2.596177394E-3
3.390180677E0,-2.214386500E-2,2.932153270E-2,1.374446787E-3
3.392417371E0,-2.092213556E-2,3.176499158E-2,8.857546374E-3
3.394654432E0,-2.015855350E-2,8.552113548E-3,1.481348183E-2
3.396890455E0,-1.557706390E-2,-1.328631863E-2,-1.069014193E-3
3.399126905E0,-2.031126991E-2,-4.734205548E-3,-8.552113548E-3
3.401364087E0,-2.382374369E-2,3.817907767E-3,-1.221730467E-2
3.403602185E0,-2.764165215E-2,1.527163084E-3,-8.552113548E-3
3.405838025E0,-2.000583708E-2,9.773843922E-3,-3.512475174E-3
3.408072400E0,-1.114829071E-2,2.550362423E-2,-4.581489135E-3
3.410306409E0,-1.588249579E-2,3.649919853E-2,1.527163084E-3
3.412547742E0,-2.092213556E-2,3.176499158E-2,1.007927675E-2
3.414783643E0,-1.007927675E-2,1.817324013E-2,8.857546374E-3
3.417021131E0,9.162978968E-4,1.191187184E-2,3.970623948E-3
3.419253736E0,-1.832595794E-3,3.359758761E-3,8.857546374E-3
3.421481885E0,-7.177666761E-3,-1.832595654E-2,1.114829071E-2
3.423731397E0,-1.252273750E-2,-4.367686436E-2,2.443460980E-3
3.425966993E0,-1.374446787E-2,-4.489859566E-2,-2.443460980E-3
3.428204175E0,-9.926560335E-3,-4.016438872E-2,-4.886921961E-3
3.430429639E0,-2.443460980E-3,-3.298672289E-2,-4.734205548E-3
3.432677137E0,3.817907767E-3,-2.336559631E-2,-1.069014193E-3
3.434913465E0,-3.207042580E-3,-1.237002108E-2,-2.290744567E-3
3.437152905E0,-1.404990070E-2,2.443460980E-3,2.596177394E-3
3.439387097E0,-9.010262787E-3,1.695151068E-2,1.496619824E-2
3.441624707E0,-3.970623948E-3,2.412917651E-2,1.985312067E-2
3.443860303E0,-1.023199316E-2,1.572977938E-2,2.229658142E-2
3.446097364E0,-2.901609987E-3,8.246680722E-3,8.857546374E-3
3.448334302E0,8.093964309E-3,4.428773187E-3,-4.581489135E-3
3.450569959E0,2.000583708E-2,-1.771509275E-2,3.970623948E-3
3.452806775E0,3.940080851E-2,-3.375030309E-2,-1.985311974E-3
3.455043409E0,3.451388702E-2,-3.741549700E-2,-1.175915636E-2
3.457280713E0,1.572977938E-2,-4.306599870E-2,1.527163084E-3
3.459517774E0,-1.420261711E-2,-5.940664560E-2,1.588249579E-2
3.461751905E0,-1.175915636E-2,-5.833763257E-2,1.710422710E-2
3.463983777E0,1.023199316E-2,-1.023199316E-2,7.635815535E-3
3.466227796E0,1.527163107E-2,5.528330430E-2,1.832595794E-3
3.468463758E0,2.535090782E-2,6.841690838E-2,1.985311974E-3
3.470701795E0,3.817907721E-2,3.176499158E-2,7.635815418E-4
3.472936658E0,4.993823543E-2,2.443460980E-3,1.985311974E-3
3.475173719E0,3.726277873E-2,-1.557706390E-2,4.276056774E-3
3.477411268E0,1.679879427E-2,-4.917465150E-2,1.130100712E-2
3.479646680E0,2.031126991E-2,-6.017022580E-2,8.704829961E-3
3.481883985E0,2.244929783E-2,-2.015855350E-2,-7.635815418E-4
3.484120984E0,1.343903504E-2,2.489275858E-2,4.123340361E-3
3.486356885E0,7.483099122E-3,3.604105115E-2,2.901609987E-3
3.488593396E0,1.450804994E-2,1.527163107E-2,1.679879380E-3
3.490829969E0,2.260201424E-2,-6.719517522E-3,2.901609987E-3
3.493067090E0,2.107485011E-2,-2.489275858E-2,6.414085161E-3
3.495304578E0,1.939497143E-2,-4.306599870E-2,1.007927675E-2
3.497539930E0,3.680463135E-2,-4.108068720E-2,2.901609987E-3
3.499777051E0,4.245513305E-2,-5.955935922E-3,-1.038470957E-2
3.502014295E0,3.298672289E-2,1.481348183E-2,-5.497787148E-3
3.504250196E0,2.550362423E-2,1.374446787E-2,-6.108652451E-4
3.506483716E0,2.168571576E-2,7.788531948E-3,6.566801574E-3
3.508708203E0,1.802052557E-2,1.389718428E-2,1.511891466E-2
3.510948865E0,8.399397135E-3,2.138028294E-2,1.145372353E-2
3.513197645E0,7.177666761E-3,2.260201424E-2,5.345070735E-3
3.515436292E0,2.428189293E-2,1.267545391E-2,3.054326167E-3
3.517673231E0,3.634648025E-2,3.054326226E-4,6.719517522E-3
3.519907667E0,3.527746722E-2,9.926560335E-3,5.497787148E-3
3.522143445E0,3.100141138E-2,3.802636266E-2,-1.679879380E-3
3.524379834E0,3.008511290E-2,5.375614017E-2,-7.788531948E-3
3.526616773E0,3.008511290E-2,5.131268129E-2,-7.788531948E-3
3.528854444E0,2.626720630E-2,4.535674304E-2,-6.719517522E-3
3.531091260E0,2.626720630E-2,4.657847434E-2,-6.108652451E-4
3.533326612E0,2.107485011E-2,3.695734590E-2,3.054326167E-3
3.535563672E0,1.328631863E-2,1.771509275E-2,2.901609987E-3
3.537800611E0,2.031126991E-2,-4.276056774E-3,1.679879380E-3
3.540036512E0,3.863722831E-2,-7.024950348E-3,1.832595794E-3
3.542273023E0,4.001167417E-2,1.527163113E-4,1.832595794E-3
3.544509656E0,2.061670274E-2,1.023199316E-2,1.679879380E-3
3.546743909E0,6.108652451E-4,3.359758761E-3,5.192354787E-3
3.548972852E0,1.420261711E-2,4.276056774E-3,4.123340361E-3
3.551219922E0,3.298672289E-2,1.725694351E-2,-1.832595794E-3
3.553456983E0,2.596177347E-2,3.191770986E-2,6.108652451E-4
3.555696851E0,7.330383174E-3,2.748893574E-2,-1.985311974E-3
3.557929883E0,8.399397135E-3,1.420261711E-2,-1.985311974E-3
3.560166639E0,2.275473066E-2,4.581489484E-4,1.023199316E-2
3.562402967E0,3.008511290E-2,-5.650503561E-3,1.023199316E-2
3.564640149E0,1.007927675E-2,-1.496619824E-2,1.007927675E-2
3.566877393E0,-1.985311974E-3,-8.704829961E-3,7.635815535E-3
3.569111524E0,7.024950348E-3,9.315694682E-3,5.192354787E-3
3.571350232E0,1.817324013E-2,1.267545391E-2,6.566801574E-3
3.573587049E0,1.191187184E-2,1.038470957E-2,6.566801574E-3
3.575820935E0,7.635815418E-4,8.246680722E-3,3.970623948E-3
3.578045300E0,9.315694682E-3,4.428773187E-3,2.748893574E-3
3.580284681E0,1.313360315E-2,7.941247895E-3,-7.635815418E-4
3.582533521E0,1.099557430E-2,2.138028294E-2,4.581489484E-4
3.584770521E0,1.374446787E-3,3.252857551E-2,-1.985311974E-3
3.586997205E0,0.000000000E0,3.008511290E-2,-1.985311974E-3
3.589243299E0,-1.374446787E-3,2.046398632E-2,-9.162978968E-4
3.591480665E0,-7.941247895E-3,3.512475174E-3,-2.290744567E-3
3.593719495E0,-2.153299935E-2,-3.512475174E-3,1.374446787E-3
3.595953077E0,-1.664607786E-2,-4.734205548E-3,1.527163113E-4
3.598189588E0,-4.428773187E-3,-6.261368748E-3,-1.069014193E-3
3.600426709E0,9.315694682E-3,-4.581489484E-4,-9.162978968E-4
3.602664197E0,-4.123340361E-3,1.069014147E-2,3.054326226E-4
3.604899610E0,-2.367102914E-2,1.954768784E-2,5.039638374E-3
3.607136914E0,-2.107485011E-2,2.565634064E-2,1.359175146E-2
3.609373914E0,-1.007927675E-2,2.290744707E-2,1.252273750E-2
3.611609815E0,-9.926560335E-3,3.023782931E-2,7.635815535E-3
3.613846326E0,-3.161227703E-2,4.520402849E-2,1.527163113E-4
3.616082899E0,-3.787364438E-2,4.169155285E-2,-1.069014193E-3
3.618320020E0,-2.244929783E-2,1.588249579E-2,1.527163113E-4
3.620557508E0,-1.145372353E-2,5.955935922E-3,-1.069014193E-3
3.622789929E0,-2.382374369E-2,9.926560335E-3,1.527163113E-4
3.625015271E0,-2.840523422E-2,2.458732575E-2,-5.955935922E-3
3.627256788E0,-2.061670274E-2,4.260785133E-2,-1.313360315E-2
3.629507459E0,-4.428773187E-3,5.314527452E-2,-5.650503561E-3
3.631735487E0,-5.497787148E-3,5.803219974E-2,1.679879380E-3
3.633979017E0,-1.924225502E-2,4.993823543E-2,7.635815535E-3
3.636212049E0,-2.474004216E-2,2.809980139E-2,7.483099122E-3
3.638452588E0,-1.786780916E-2,1.527163113E-4,1.527163113E-4
3.640686231E0,-1.343903504E-2,-2.550362423E-2,3.665191587E-3
3.642923169E0,-1.725694351E-2,-3.023782931E-2,3.665191587E-3
3.645160291E0,-1.939497143E-2,-1.450804994E-2,1.221730490E-3
3.647396497E0,-1.145372353E-2,5.955935922E-3,-2.290744567E-3
3.649633191E0,-2.443460980E-3,2.519819140E-2,-9.162978968E-4
3.651869337E0,-5.039638374E-3,2.535090782E-2,2.748893574E-3
3.654106641E0,-1.481348183E-2,3.161227703E-2,5.192354787E-3
3.656344068E0,-1.725694351E-2,3.161227703E-2,3.970623948E-3
3.658579541E0,-2.000583708E-2,1.588249579E-2,3.817907767E-3
3.660816602E0,-2.397646010E-2,-1.069014193E-3,4.886921961E-3
3.663053846E0,-2.306016348E-2,-1.313360315E-2,7.330383174E-3
3.665289747E0,-1.695151068E-2,-1.817324013E-2,9.773843922E-3
3.667523328E0,-2.046398632E-2,-5.955935922E-3,1.114829071E-2
3.669750867E0,-2.260201424E-2,7.483099122E-3,8.704829961E-3
3.671999890E0,-1.374446787E-2,2.061670274E-2,-9.162978968E-4
3.674237134E0,-9.621127509E-3,4.245513305E-2,-2.138028387E-3
3.676475538E0,-1.557706390E-2,4.856378585E-2,3.970623948E-3
3.678709851E0,-2.703078650E-2,3.176499158E-2,6.261368748E-3
3.680946973E0,-3.222314268E-2,1.863138936E-2,2.596177394E-3
3.683183118E0,-2.611448988E-2,1.481348183E-2,-1.069014193E-3
3.685419629E0,-2.229658142E-2,1.954768784E-2,-4.734205548E-3
3.687656202E0,-2.825251780E-2,2.947424725E-2,1.374446787E-3
3.689893201E0,-2.336559631E-2,3.054326214E-2,8.704829961E-3
3.692130506E0,-1.832595654E-2,3.283400834E-2,3.054326226E-4
3.694366102E0,-2.321287990E-2,3.665191308E-2,-2.290744567E-3
3.696601331E0,-3.084869497E-2,2.214386500E-2,1.527163113E-4
3.698832899E0,-2.993239649E-2,3.970623948E-3,-7.330383174E-3
3.701076062E0,-3.237585723E-2,5.192354787E-3,-1.099557430E-2
3.703312635E0,-3.878994286E-2,-4.428773187E-3,-2.596177394E-3
3.705551099E0,-3.665191308E-2,-1.771509275E-2,8.399397135E-3
3.707786573E0,-3.039054573E-2,-9.315694682E-3,1.099557430E-2
3.710021802E0,-2.244929783E-2,1.588249579E-2,6.261368748E-3
3.712251111E0,-2.306016348E-2,4.382958263E-2,1.527163084E-3
3.714496228E0,-2.794708498E-2,4.764748737E-2,2.748893574E-3
3.716730969E0,-2.244929783E-2,1.954768784E-2,7.483099122E-3
3.718961194E0,-1.679879427E-2,-1.206458826E-2,7.483099122E-3
3.721206006E0,-2.443460934E-2,-2.290744707E-2,7.330383174E-3
3.723442518E0,-3.313944116E-2,-2.748893574E-2,7.177666761E-3
3.725682264E0,-2.657263726E-2,-5.803219974E-3,0.000000000E0
3.727917432E0,-1.572977938E-2,4.001167417E-2,-7.024950348E-3
3.730152784E0,-3.054326167E-3,6.169738993E-2,1.679879380E-3
3.732389783E0,-1.069014193E-3,4.337143153E-2,1.756237634E-2
3.734626539E0,-8.857546374E-3,2.657263726E-2,1.985312067E-2
3.736862684E0,-1.634064503E-2,1.588249579E-2,1.114829071E-2
3.739099256E0,-1.618792862E-2,1.588249579E-2,-4.734205548E-3
3.741335889E0,-1.725694351E-2,2.076941915E-2,-9.621127509E-3
3.743573011E0,-7.788531948E-3,5.955935922E-3,1.527163084E-3
3.745810682E0,-7.024950348E-3,-8.704829961E-3,8.704829961E-3
3.748042676E0,-1.313360315E-2,-9.773843922E-3,1.114829071E-2
3.750270398E0,-1.435533352E-2,-1.206458826E-2,5.039638374E-3
3.752516858E0,-4.581489135E-3,-1.954768784E-2,-9.621127509E-3
3.754744031E0,4.276056774E-3,-8.857546374E-3,-1.557706390E-2
3.756995435E0,2.138028387E-3,8.246680722E-3,-1.313360315E-2
3.759228956E0,-4.123340361E-3,9.468411095E-3,-9.162978968E-4
3.761469251E0,-1.191187184E-2,-9.773843922E-3,1.481348183E-2
3.763703870E0,-6.108652335E-3,-2.565634064E-2,1.970040426E-2
3.765939466E0,-5.955935922E-3,-1.588249579E-2,1.237002108E-2
3.768173535E0,-8.704829961E-3,2.290744707E-2,3.970623948E-3
3.770401746E0,3.054326226E-4,4.459316283E-2,2.901609987E-3
3.772649305E0,1.237002108E-2,3.711006418E-2,6.719517522E-3
3.774885877E0,1.206458826E-2,1.893682219E-2,1.267545391E-2
3.777125317E0,-8.093964309E-3,-2.596177394E-3,1.603521220E-2
3.779359326E0,-2.428189293E-2,-1.435533352E-2,7.330383174E-3
3.781597120E0,-2.687807009E-2,-2.397646010E-2,0.000000000E0
3.783832654E0,-1.450804994E-2,-2.183843218E-2,-4.886921961E-3
3.786069532E0,-8.093964309E-3,-8.552113548E-3,-5.955935922E-3
3.788306531E0,-1.389718428E-2,1.328631863E-2,6.261368748E-3
3.790542615E0,-2.000583708E-2,1.588249579E-2,1.603521220E-2
3.792779187E0,-9.010262787E-3,1.572977938E-2,1.374446787E-2
3.795015516E0,3.665191587E-3,2.764165215E-2,1.679879380E-3
3.797252576E0,5.345070735E-3,4.810563847E-2,-5.650503561E-3
3.799490186E0,-7.941247895E-3,5.696318299E-2,-4.428773187E-3
3.801726026E0,-1.328631863E-2,3.756821156E-2,-2.138028387E-3
3.803962842E0,-1.145372353E-2,1.084285788E-2,-1.069014193E-3
3.806199903E0,-1.069014147E-2,-1.588249579E-2,2.596177394E-3
3.808435926E0,-1.603521220E-2,-3.512475267E-2,3.665191587E-3
3.810672559E0,-2.229658142E-2,-3.863722831E-2,1.221730490E-3
3.812909131E0,-1.710422710E-2,-2.306016348E-2,-2.443460980E-3
3.815146192E0,-8.093964309E-3,-7.330383174E-3,3.817907767E-3
3.817383680E0,-7.635815418E-4,-8.704829961E-3,7.635815535E-3
3.819619031E0,-4.428773187E-3,-8.704829961E-3,8.704829961E-3
3.821856092E0,-1.145372353E-2,1.206458826E-2,2.748893574E-3
3.824093152E0,-9.926560335E-3,2.535090782E-2,-2.138028387E-3
3.826329297E0,1.069014193E-3,2.031126991E-2,-9.162978968E-4
3.828565809E0,6.108652335E-3,2.382374369E-2,-7.635815418E-4
3.830802137E0,1.527163113E-4,3.741549700E-2,1.679879380E-3
3.833039258E0,-9.468411095E-3,4.596760869E-2,1.527163084E-3
3.835276990E0,-3.512475174E-3,3.985895589E-2,4.123340361E-3
3.837512342E0,7.330383174E-3,2.748893574E-2,4.123340361E-3
3.839748792E0,7.330383174E-3,2.504547499E-2,4.123340361E-3
3.841984632E0,-2.596177394E-3,2.168571576E-2,5.192354787E-3
3.844222120E0,-1.175915636E-2,-3.665191587E-3,3.817907767E-3
3.846459241E0,-6.261368748E-3,-3.894266114E-2,2.443460980E-3
3.848696119E0,-1.679879380E-3,-5.726861581E-2,1.221730490E-3
3.850932691E0,-8.704829961E-3,-4.016438872E-2,0.000000000E0
3.853170301E0,-1.786780916E-2,-3.512475174E-3,-5.955935922E-3
3.855405713E0,-1.740965992E-2,1.588249579E-2,-9.621127509E-3
3.857643018E0,-1.343903504E-2,2.672535367E-2,-9.468411095E-3
3.859879774E0,-1.817324013E-2,3.894266114E-2,-2.138028387E-3
3.862115857E0,-2.687807009E-2,4.031710699E-2,5.039638374E-3
3.864352186E0,-3.329215571E-2,2.825251780E-2,1.374446787E-3
3.866586072E0,-3.481931984E-2,7.635815535E-3,-2.443460980E-3
3.868814160E0,-2.061670274E-2,-1.679879427E-2,-2.443460980E-3
3.871063672E0,-7.483099122E-3,-4.016438872E-2,1.221730490E-3
3.873298963E0,-7.788531948E-3,-4.993823543E-2,1.099557430E-2
3.875538953E0,-2.138028294E-2,-4.718934000E-2,2.199114859E-2
3.877770093E0,-2.474004216E-2,-3.497203439E-2,1.588249579E-2
3.879998243E0,-1.679879427E-2,-1.206458826E-2,5.039638374E-3
3.882245740E0,-4.886921961E-3,3.023782931E-2,-8.246680722E-3
3.884482190E0,-1.145372353E-2,6.185010448E-2,-1.420261711E-2
3.886719373E0,-2.672535367E-2,4.642575979E-2,-5.955935922E-3
3.888945691E0,-2.916881628E-2,-1.298088674E-2,7.330383174E-3
3.891192334E0,-2.183843218E-2,-7.269296050E-2,8.399397135E-3
3.893429334E0,-1.847867295E-2,-9.086620808E-2,-1.527163084E-3
3.895669141E0,-2.779436857E-2,-6.520986557E-2,-5.192354787E-3
3.897902234E0,-1.832595654E-2,-2.779436857E-2,-6.108652335E-3
3.900135816E0,4.581489484E-4,-5.192354787E-3,6.414085161E-3
3.902363416E0,-3.054326167E-3,3.359758761E-3,1.740965992E-2
3.904612500E0,-3.252857551E-2,7.635815535E-3,2.321287990E-2
3.906847119E0,-5.238169432E-2,-4.581489484E-4,1.572977938E-2
3.909076856E0,-3.665191308E-2,-2.015855350E-2,-2.596177394E-3
3.911322461E0,-2.565634064E-2,-2.275473066E-2,-9.773843922E-3
3.913559705E0,-2.244929783E-2,-4.474587739E-2,-5.039638374E-3
3.915798475E0,-2.306016348E-2,-7.864890248E-2,-3.054326226E-4
3.918032117E0,-2.336559631E-2,-9.575312585E-2,-1.527163084E-3
3.920268384E0,-2.229658142E-2,-9.697485715E-2,-2.748893574E-3
3.922505567E0,-2.657263726E-2,-7.254024595E-2,-2.748893574E-3
3.924743299E0,-2.687807009E-2,-2.397646010E-2,1.221730490E-3
3.926978711E0,-2.718350291E-2,3.054326214E-2,1.237002108E-2
3.929215833E0,-2.687807009E-2,4.642575979E-2,2.107485011E-2
3.931453077E0,-3.207042441E-2,3.680463135E-2,2.703078650E-2
3.933689161E0,-3.726277873E-2,1.863138936E-2,1.588249579E-2
3.935925550E0,-3.115412779E-2,1.007927675E-2,0.000000000E0
3.938162244E0,-2.138028294E-2,2.596177394E-3,-1.466076635E-2
3.940399060E0,-1.313360315E-2,-1.572977938E-2,-1.710422710E-2
3.942636609E0,-1.970040426E-2,-3.268129006E-2,-8.552113548E-3
3.944871900E0,-3.344487399E-2,-3.970624134E-2,-2.596177394E-3
3.947109143E0,-3.970624134E-2,-4.321871698E-2,7.177666761E-3
3.949346570E0,-3.329215571E-2,-2.993239649E-2,7.177666761E-3
3.951582227E0,-2.519819140E-2,-9.162978968E-4,1.221730490E-3
3.953818799E0,-2.580905706E-2,3.054326214E-2,-1.069014193E-3
3.956055311E0,-2.443460934E-2,3.420845419E-2,-1.069014193E-3
3.958292615E0,-2.092213556E-2,3.176499158E-2,1.374446787E-3
3.960529676E0,-1.511891466E-2,1.221730467E-2,9.926560335E-3
3.962765271E0,-2.046398632E-2,-8.399397135E-3,1.237002108E-2
3.965002271E0,-3.054326214E-2,-1.908953860E-2,4.886921961E-3
3.967239454E0,-3.161227703E-2,-1.175915636E-2,2.443460980E-3
3.969475538E0,-2.290744707E-2,-7.177666761E-3,1.221730490E-3
3.971712171E0,-1.527163107E-2,2.443460980E-3,6.261368748E-3
3.973948865E0,-2.382374369E-2,9.926560335E-3,1.237002108E-2
3.976185498E0,-2.886338346E-2,8.857546374E-3,1.359175146E-2
3.978423230E0,-2.000583708E-2,1.221730467E-2,3.817907767E-3
3.980658521E0,-7.483099122E-3,2.412917651E-2,-2.138028387E-3
3.982895703E0,-2.443460980E-3,2.764165215E-2,-3.359758761E-3
3.985132703E0,-3.665191587E-3,2.764165215E-2,-3.359758761E-3
3.987368909E0,3.665191587E-3,2.397646010E-2,1.679879380E-3
3.989605664E0,1.069014147E-2,1.282817032E-2,5.345070735E-3
3.991841993E0,1.557706390E-2,9.162978269E-3,4.123340361E-3
3.994079053E0,1.191187184E-2,1.038470957E-2,5.345070735E-3
3.996316480E0,5.955935922E-3,1.908953860E-2,9.010262787E-3
3.998551954E0,2.290744567E-3,2.641992271E-2,9.010262787E-3
4.000789197E0,-1.252273750E-2,1.817324013E-2,5.192354787E-3
4.003026014E0,-2.412917651E-2,-1.069014147E-2,1.221730490E-3
4.005259168E0,-1.939497143E-2,-2.168571576E-2,-6.108652335E-3
4.007486768E0,-5.803219974E-3,-1.832595654E-2,-4.734205548E-3
4.009735547E0,2.901609987E-3,-8.857546374E-3,5.192354787E-3
4.011972364E0,2.031126991E-2,-6.108652451E-4,6.566801574E-3
4.014212904E0,3.680463135E-2,1.725694351E-2,-3.054326167E-3
4.016445447E0,3.711006418E-2,3.665191308E-2,-4.123340361E-3
4.018682508E0,1.527163107E-2,5.161811411E-2,6.719517522E-3
4.020919263E0,1.527163084E-3,4.948008433E-2,1.023199316E-2
4.023155164E0,-2.290744567E-3,4.230241850E-2,1.023199316E-2
4.025391980E0,-1.084285788E-2,4.123340547E-2,1.007927675E-2
4.027628614E0,-1.237002108E-2,2.550362423E-2,5.192354787E-3
4.029865735E0,-3.207042580E-3,-9.926560335E-3,-2.290744567E-3
4.032103223E0,1.252273750E-2,-2.474004216E-2,-9.468411095E-3
4.034338758E0,2.229658142E-2,-2.855795063E-2,-4.581489135E-3
4.036572583E0,1.695151068E-2,-4.306599870E-2,1.252273750E-2
4.038800611E0,9.315694682E-3,-5.268712714E-2,1.359175146E-2
4.041048475E0,1.466076635E-2,-3.451388702E-2,6.414085161E-3
4.043281934E0,1.038470957E-2,-2.901609987E-3,6.414085161E-3
4.045511183E0,-3.970623948E-3,2.168571576E-2,1.130100712E-2
4.047758802E0,-1.710422710E-2,3.894266114E-2,7.635815535E-3
4.049996473E0,-1.817324013E-2,4.382958263E-2,1.527163084E-3
4.052235242E0,-1.237002108E-2,2.672535367E-2,2.748893574E-3
4.054468946E0,3.054326167E-3,-5.192354787E-3,2.748893574E-3
4.056703747E0,1.634064503E-2,-1.756237634E-2,-8.246680722E-3
4.058933301E0,1.175915636E-2,-6.566801574E-3,-1.191187184E-2
4.061178663E0,8.093964309E-3,3.207042580E-3,-5.803219974E-3
4.063415174E0,1.435533352E-2,6.719517522E-3,-3.207042580E-3
4.065654248E0,2.443460934E-2,1.863138936E-2,-1.832595794E-3
4.067889722E0,1.130100712E-2,4.199698567E-2,1.038470957E-2
4.070124830E0,-5.955935922E-3,4.718934000E-2,2.244929783E-2
4.072361951E0,-9.773843922E-3,4.245513305E-2,2.244929783E-2
4.074596021E0,-3.665191587E-3,3.130684420E-2,1.145372353E-2
4.076820447E0,1.572977938E-2,1.160643995E-2,-7.635815418E-4
4.079059766E0,2.886338346E-2,-6.872233935E-3,-1.298088674E-2
4.081305310E0,3.115412779E-2,-2.031126991E-2,-1.175915636E-2
4.083533399E0,2.351831272E-2,-2.504547499E-2,-2.138028387E-3
4.085774122E0,1.588249579E-2,-3.451388702E-2,7.635815535E-3
4.088016309E0,1.679879427E-2,-4.917465150E-2,1.374446787E-2
4.090250745E0,2.809980139E-2,-3.604105115E-2,1.145372353E-2
4.092495557E0,2.504547499E-2,-4.428773187E-3,1.023199316E-2
4.094728711E0,1.053742506E-2,9.162978269E-3,1.634064503E-2
4.096966870E0,1.267545391E-2,-1.023199316E-2,2.107485011E-2
4.099201368E0,2.855795063E-2,-1.420261711E-2,1.634064503E-2
4.101435864E0,3.512475267E-2,2.748893574E-3,1.282817032E-2
4.103664258E0,3.145955876E-2,7.635815535E-3,9.162978269E-3
4.105911878E0,2.397646010E-2,4.581489484E-4,1.679879380E-3
4.108145947E0,3.772092983E-2,6.261368748E-3,-9.162978269E-3
4.110377454E0,4.917465150E-2,2.183843218E-2,-1.267545391E-2
4.112621961E0,4.825835302E-2,3.512475267E-2,-1.023199316E-2
4.114858289E0,3.481931984E-2,4.398229718E-2,-1.679879380E-3
4.117097669E0,3.466660157E-2,4.153883830E-2,4.428773187E-3
4.119331678E0,3.970624134E-2,4.871650413E-2,8.093964309E-3
4.121566541E0,3.604105115E-2,4.642575979E-2,1.298088674E-2
4.123790173E0,3.191770986E-2,2.458732575E-2,1.160643995E-2
4.126027295E0,3.894266114E-2,3.817907767E-3,6.108652451E-4
4.128264234E0,4.108068720E-2,-9.621127509E-3,-4.276056774E-3
4.130506116E0,2.947424725E-2,-3.604105115E-2,4.123340361E-3
4.132754835E0,2.611448988E-2,-7.605272532E-2,6.261368748E-3
4.134991162E0,3.344487399E-2,-8.216137439E-2,1.527163084E-3
4.137228223E0,4.016438872E-2,-5.925392732E-2,-4.581489135E-3
4.139462537E0,3.329215571E-2,-3.252857551E-2,-4.428773187E-3
4.141698377E0,2.260201424E-2,-9.162978269E-3,2.901609987E-3
4.143935193E0,2.168571576E-2,7.788531948E-3,1.023199316E-2
4.146172315E0,2.321287990E-2,2.351831272E-2,1.771509275E-2
4.148408338E0,2.428189293E-2,1.985312067E-2,2.504547499E-2
4.150644971E0,1.527163107E-2,6.108652451E-4,2.122756653E-2
4.152881544E0,1.649336144E-2,-1.832595794E-3,1.023199316E-2
4.155118604E0,2.428189293E-2,9.010262787E-3,1.679879380E-3
4.157356092E0,3.787364438E-2,9.926560335E-3,-1.832595794E-3
4.159591443E0,4.138612002E-2,1.374446787E-3,-1.832595794E-3
4.161828504E0,3.390302137E-2,3.054326226E-4,-6.108652451E-4
4.164065565E0,1.802052557E-2,3.054326167E-3,4.581489484E-4
4.166301709E0,1.298088674E-2,1.832595794E-3,2.901609987E-3
4.168538282E0,2.321287990E-2,1.863138936E-2,6.108652451E-4
4.170774793E0,2.855795063E-2,3.802636266E-2,-1.832595794E-3
4.173008618E0,2.641992271E-2,5.742133409E-2,-4.123340361E-3
4.175237195E0,2.153299935E-2,5.879577994E-2,-1.679879380E-3
4.177481824E0,1.496619824E-2,3.955352306E-2,6.719517522E-3
4.179710218E0,1.175915636E-2,6.719517522E-3,6.566801574E-3
4.181962110E0,6.719517522E-3,-7.635815535E-3,3.054326226E-4
4.184194776E0,8.857546374E-3,-2.107485011E-2,-5.803219974E-3
4.186434522E0,1.863138936E-2,-2.733621933E-2,-4.581489135E-3
4.188668043E0,2.977968007E-2,-2.031126991E-2,-1.985311974E-3
4.190905042E0,2.871066704E-2,-1.053742506E-2,2.901609987E-3
4.193142713E0,2.748893574E-2,-1.420261711E-2,4.123340361E-3
4.195378064E0,2.474004216E-2,-2.260201424E-2,6.566801574E-3
4.197615186E0,2.703078650E-2,-3.115412779E-2,9.010262787E-3
4.199852186E0,2.458732575E-2,-2.871066704E-2,1.389718428E-2
4.202088331E0,1.267545391E-2,-1.023199316E-2,1.496619824E-2
4.204324842E0,1.527163107E-2,-4.276056774E-3,1.511891466E-2
4.206561109E0,2.993239649E-2,-8.093964309E-3,1.267545391E-2
4.208794995E0,3.344487399E-2,-1.664607786E-2,9.010262787E-3
4.211023816E0,2.626720630E-2,-8.093964309E-3,5.345070735E-3
4.213271497E0,1.786780916E-2,-1.832595794E-3,2.901609987E-3
4.215508802E0,1.664607786E-2,-1.832595794E-3,2.901609987E-3
4.217748548E0,2.550362423E-2,9.010262787E-3,1.679879380E-3
4.219981580E0,2.809980139E-2,2.107485011E-2,3.054326167E-3
4.222217847E0,1.603521220E-2,3.466660157E-2,4.276056774E-3
4.224454603E0,1.527163084E-3,4.214970022E-2,7.788531948E-3
4.226689099E0,2.596177394E-3,3.481931984E-2,9.010262787E-3
4.228914563E0,1.832595654E-2,2.489275858E-2,1.832595794E-3
4.231153272E0,2.321287990E-2,1.985312067E-2,-5.497787148E-3
4.233401685E0,7.024950348E-3,1.420261711E-2,4.581489484E-4
4.235641736E0,-3.207042580E-3,-3.817907767E-3,3.970623948E-3
4.237877515E0,1.527163113E-4,-2.703078650E-2,2.596177394E-3
4.240111219E0,1.069014193E-3,-4.153883830E-2,1.527163113E-4
4.242347791E0,-5.192354787E-3,-4.016438872E-2,7.483099122E-3
4.244584973E0,-8.857546374E-3,-4.260785133E-2,8.552113548E-3
4.246819715E0,-1.588249579E-2,-2.672535367E-2,4.886921961E-3
4.249046094E0,-1.313360315E-2,-1.099557430E-2,7.483099122E-3
4.251292126E0,-4.428773187E-3,-6.261368748E-3,9.926560335E-3
4.253517041E0,4.123340361E-3,-3.970623948E-3,1.130100712E-2
4.255758741E0,1.985311974E-3,8.246680722E-3,8.857546374E-3
4.258004529E0,-7.788531948E-3,8.399397135E-3,5.192354787E-3
4.260244093E0,-8.093964309E-3,-6.108652335E-3,3.817907767E-3
4.262481275E0,2.748893574E-3,-1.603521220E-2,1.527163084E-3
4.264715711E0,9.315694682E-3,3.207042580E-3,3.054326226E-4
4.266951123E0,-1.374446787E-3,2.641992271E-2,5.192354787E-3
4.269188428E0,-1.725694351E-2,2.794708498E-2,1.007927675E-2
4.271425428E0,-1.496619824E-2,2.183843218E-2,1.252273750E-2
4.273661329E0,-6.414085161E-3,1.802052557E-2,1.007927675E-2
4.275897840E0,-5.192354787E-3,1.435533352E-2,7.635815535E-3
4.278134412E0,1.069014193E-3,2.031126991E-2,3.054326226E-4
4.280371533E0,6.108652335E-3,2.382374369E-2,-1.985311974E-3
4.282609082E0,1.817324013E-2,1.389718428E-2,-7.635815418E-4
4.284844678E0,2.061670274E-2,1.634064503E-2,-7.635815418E-4
4.287081739E0,1.084285788E-2,1.771509275E-2,6.566801574E-3
4.289318738E0,-3.054326226E-4,1.557706390E-2,1.496619824E-2
4.291555738E0,-1.374446787E-3,2.397646010E-2,7.635815535E-3
4.293795789E0,2.443460980E-3,2.764165215E-2,5.345070735E-3
4.296027723E0,1.099557430E-2,2.382374369E-2,6.566801574E-3
4.298264844E0,1.588249579E-2,2.367102914E-2,-7.635815418E-4
4.300501172E0,1.206458826E-2,2.015855350E-2,1.679879380E-3
4.302737745E0,1.802052557E-2,4.276056774E-3,1.679879380E-3
4.304974988E0,2.275473066E-2,-3.207042580E-3,-4.428773187E-3
4.307211805E0,2.138028294E-2,-7.941247895E-3,1.679879380E-3
4.309447950E0,1.878410578E-2,-1.282817032E-2,6.566801574E-3
4.311684522E0,1.160643995E-2,-5.345070735E-3,1.252273750E-2
4.313921338E0,1.298088674E-2,7.941247895E-3,1.878410578E-2
4.316158155E0,2.168571576E-2,1.389718428E-2,2.015855350E-2
4.318395643E0,2.687807009E-2,2.596177347E-2,1.649336144E-2
4.320630933E0,2.703078650E-2,2.947424725E-2,1.404990070E-2
4.322868116E0,1.832595654E-2,2.611448988E-2,5.497787148E-3
4.325105359E0,1.557706390E-2,1.160643995E-2,1.679879380E-3
4.327341321E0,1.557706390E-2,3.054326167E-3,-1.985311974E-3
4.329578077E0,1.053742506E-2,-4.581489484E-4,-4.581489135E-3
4.331814344E0,2.138028387E-3,1.053742506E-2,-2.138028387E-3
4.334051465E0,4.886921961E-3,2.748893574E-2,-3.207042580E-3
4.336288892E0,1.374446787E-2,3.955352306E-2,1.832595794E-3
4.338521253E0,1.786780916E-2,5.879577994E-2,6.719517522E-3
4.340746289E0,1.710422710E-2,8.307767659E-2,4.428773187E-3
4.342984021E0,1.603521220E-2,9.285151958E-2,3.207042580E-3
4.345219983E0,1.191187184E-2,7.116580009E-2,-3.054326167E-3
4.347459668E0,8.704829961E-3,3.359758854E-2,-7.635815418E-4
4.349695386E0,6.719517522E-3,-5.192354787E-3,1.527163084E-3
4.351932813E0,3.970623948E-3,-2.092213556E-2,-1.069014193E-3
4.354170789E0,-9.162978968E-4,-2.214386500E-2,-4.734205548E-3
4.356407239E0,-1.221730490E-3,-3.054326214E-2,-1.069014193E-3
4.358643018E0,7.483099122E-3,-2.596177347E-2,3.970623948E-3
4.360880018E0,1.908953860E-2,-1.832595794E-3,5.345070735E-3
4.363115980E0,1.710422710E-2,2.244929783E-2,7.788531948E-3
4.365353223E0,7.177666761E-3,2.504547499E-2,1.145372353E-2
4.367589612E0,5.803219974E-3,1.298088674E-2,7.788531948E-3
4.369827649E0,8.246680722E-3,1.175915636E-2,4.123340361E-3
4.372064100E0,1.450804994E-2,1.893682219E-2,5.345070735E-3
4.374299878E0,8.246680722E-3,1.420261711E-2,9.010262787E-3
4.376539869E0,3.054326167E-3,-3.054326226E-4,7.635815535E-3
4.378786085E0,6.566801574E-3,-7.635815535E-3,3.970623948E-3
4.381011853E0,1.038470957E-2,-5.345070735E-3,2.748893574E-3
4.383255201E0,1.053742506E-2,7.635815418E-4,7.788531948E-3
4.385484571E0,7.024950348E-3,1.420261711E-2,1.679879380E-3
4.387719556E0,4.886921961E-3,2.504547499E-2,-7.635815418E-4
4.389955579E0,1.130100712E-2,3.711006418E-2,-4.428773187E-3
4.392192945E0,1.496619824E-2,3.711006418E-2,-4.276056774E-3
4.394429700E0,1.237002108E-2,2.977968007E-2,2.901609987E-3
4.396667005E0,1.221730490E-3,2.764165215E-2,5.345070735E-3
4.398901868E0,-3.970623948E-3,1.802052557E-2,7.635815535E-3
4.401139417E0,-6.719517522E-3,3.512475174E-3,2.748893574E-3
4.403376355E0,-4.581489135E-3,-1.359175146E-2,1.527163113E-4
4.405617261E0,1.527163084E-3,-2.092213556E-2,-4.734205548E-3
4.407865186E0,2.901609987E-3,-1.481348183E-2,-7.024950348E-3
4.410100904E0,6.414085161E-3,-2.351831272E-2,-5.955935922E-3
4.412338270E0,-3.970623948E-3,-4.260785133E-2,1.221730490E-3
4.414571912E0,-2.000583708E-2,-4.596760869E-2,4.886921961E-3
4.416807691E0,-2.962696366E-2,-3.359758854E-2,2.290744567E-3
4.419043836E0,-2.092213556E-2,-3.023782931E-2,-4.886921961E-3
4.421277600E0,-2.092213556E-2,-3.145955876E-2,1.221730490E-3
4.423505811E0,-1.343903504E-2,-2.428189293E-2,1.237002108E-2
4.425755567E0,3.970623948E-3,-1.496619824E-2,1.496619824E-2
4.427989636E0,1.038470957E-2,7.635815418E-4,9.010262787E-3
4.430225904E0,5.650503561E-3,8.093964309E-3,8.857546374E-3
4.432465223E0,1.527163084E-3,-1.603521220E-2,1.252273750E-2
4.434701123E0,-8.857546374E-3,-4.260785133E-2,7.330383174E-3
4.436938917E0,-3.100141138E-2,-4.337143153E-2,8.399397135E-3
4.439173902E0,-4.612032697E-2,-5.635231733E-2,1.313360315E-2
4.441408399E0,-3.894266114E-2,-6.750060618E-2,4.581489135E-3
