"Time (s)","Linear Acceleration x (m/s^2)","Linear Acceleration y (m/s^2)","Linear Acceleration z (m/s^2)"
1.537331060E-1,-6.137461066E-1,2.354001999E-2,1.672369957E0
1.716264160E-1,-4.759302735E-1,3.377999663E-1,-6.455135345E-1
1.895194220E-1,5.112033486E-1,-3.555929661E-1,-2.112512589E-1
2.074130980E-1,-8.171303272E-1,-3.923040628E-2,-2.389345169E-1
2.253061040E-1,-6.010692194E-2,5.113731623E-1,-1.130277634E0
2.431994140E-1,6.339325309E-1,1.324165463E-1,4.110832214E-1
2.610929690E-1,-1.003876090E0,1.429684162E-1,6.608533859E-1
2.789740730E-1,1.773226410E-1,-6.521399617E-1,8.713626862E-2
2.968795900E-1,4.213265181E-1,2.452441454E-1,-2.309885025E-1
3.147725350E-1,-3.637700379E-1,-2.524311543E-1,-4.630260468E-1
3.326659060E-1,1.466383599E-2,-6.969631910E-1,4.882793427E-1
3.505592780E-1,1.206449568E-1,-2.879114151E-1,-2.851772308E-1
3.684526490E-1,-2.410110533E-1,1.449148655E-1,-1.020808220E0
3.863458380E-1,6.345800310E-2,-4.544342160E-1,4.424009323E-1
4.042392090E-1,-4.686035514E-1,-5.816277862E-1,1.168395996E0
4.221325200E-1,2.445970476E-1,3.254629374E-1,-4.013347626E-2
4.400255860E-1,-4.163255990E-1,-6.611149311E-1,9.583406448E-1
4.579188360E-1,-3.717614412E-1,-2.805281878E-1,1.383724213E-1
4.758122070E-1,6.173815727E-1,-7.856155634E-1,-5.788154602E-1
4.936898320E-1,-1.699954420E-1,9.167301655E-2,-6.140041351E-1
5.115988280E-1,-5.159862638E-1,-1.608607173E-1,-6.738281250E-2
5.294950690E-1,3.580687344E-1,-3.923845291E-1,1.442733765E0
5.473854500E-1,-4.956930876E-1,-4.779288769E-1,4.961719513E-1
5.652670410E-1,-4.001685381E-1,-3.772541285E-1,-1.362126350E0
5.831692020E-1,6.876156926E-1,-6.729481220E-1,-8.898448944E-2
6.010654420E-1,-3.837251365E-1,-2.052232027E-1,-7.900714874E-2
6.189464850E-1,2.410452813E-1,5.155578852E-1,-1.587025642E0
6.368519410E-1,2.981897891E-1,-3.130902648E-1,8.769989014E-1
6.547450080E-1,-3.494146764E-1,-5.920208097E-1,5.777664185E-1
6.726384400E-1,-1.317757964E0,-1.089903474E0,-1.807403564E-1
6.905317510E-1,9.598067999E-1,-1.174412966E-1,-5.054788589E-1
7.084250610E-1,-8.657470345E-1,-7.470029593E-1,3.782033920E-1
7.263183110E-1,-7.425464392E-1,-7.684552670E-2,-1.076025963E0
7.442114380E-1,3.835563958E-1,2.713972330E-1,-6.806802750E-1
7.621049320E-1,-3.096273839E-1,-6.620333791E-1,-5.642375946E-1
7.799979980E-1,-3.220322132E-1,-3.585349917E-1,-6.375494003E-1
7.978915530E-1,2.637577355E-1,-7.265622020E-1,5.913772583E-1
8.157846190E-1,1.801748276E-1,-8.866910934E-1,-2.692804337E-1
8.336786620E-1,2.029221877E-2,-4.564595222E-2,-1.537345886E0
8.515711800E-1,-4.008634016E-2,-1.732981205E-2,-1.142247200E0
8.694655890E-1,2.199037224E-1,-9.659564495E-2,-1.342284203E0
8.873578620E-1,-6.102383137E-1,-8.807240725E-1,5.774021149E-1
9.052509280E-1,-3.309695125E-1,-3.247289658E-1,-1.624994278E-1
9.231444220E-1,-2.696695626E-1,-9.060126543E-1,-1.948699951E-1
9.410348020E-1,-3.675266802E-1,-1.552910805E-1,-5.917644501E-1
9.589190800E-1,3.237936497E-1,-5.421130657E-1,-6.534061432E-1
9.768241700E-1,-5.638777018E-1,-1.000269055E0,5.593566895E-1
9.947177250E-1,-2.627935410E-1,-3.323057890E-1,-4.726896286E-1
1.012599256E0,5.028978586E-1,-1.196749568E0,3.879632950E-1
1.030497144E0,-3.589134216E-1,-5.047312975E-1,-8.780860901E-2
1.048397596E0,-3.658786118E-1,1.705933809E-1,-1.805187225E0
1.066288038E0,3.931033909E-1,-1.213702559E0,7.389011383E-1
1.084169324E0,-8.782606721E-1,-6.625437737E-2,1.679897308E-1
1.102077405E0,-1.757777333E-1,-1.313535094E0,5.819978714E-1
1.119958692E0,1.109496132E-1,-3.814985752E-1,1.331639290E0
1.137852124E0,-2.182284892E-1,-3.756170273E-1,-6.430740356E-1
1.155745923E0,3.409518003E-1,-6.841135025E-2,-9.347057343E-2
1.173650464E0,-3.809810430E-2,-2.302613258E-1,2.078723907E-2
1.191543592E0,-1.221508980E0,-9.964644909E-1,7.480792999E-1
1.209436963E0,-2.760798931E-1,-4.111031294E-1,2.298164368E-2
1.227330579E0,-3.705770969E-1,-8.050020933E-1,-2.252483368E-1
1.245223767E0,4.507256299E-2,-2.106451988E-2,-1.640055656E0
1.263116895E0,2.243785262E-1,-4.108464718E-1,-7.163162231E-1
1.281010205E0,-4.788876176E-1,-9.193190336E-1,8.397579193E-2
1.298891553E0,-9.623639286E-3,-3.340809345E-1,-2.823734283E-1
1.316793347E0,-6.615753472E-2,-1.304138422E0,8.136243820E-1
1.334690076E0,-5.127938986E-1,2.012681961E-2,-2.063540936E0
1.352583387E0,6.082654372E-2,-7.878308296E-1,-9.162273407E-1
1.370467786E0,-1.336196363E-1,3.613853455E-2,-5.614519119E-1
1.388369764E0,-8.002245426E-2,-8.785198927E-1,-2.489051819E-1
1.406266126E0,-2.790612876E-1,-8.019745350E-1,4.296331406E-1
1.424156140E0,-1.985083073E-1,-1.701683998E-1,-1.015851974E0
1.442037793E0,-5.248241425E-1,-4.508625269E-1,-1.647181511E0
1.459942762E0,-3.318266198E-2,5.263292789E-2,-9.576482773E-1
1.477836316E0,1.425410062E-1,-7.182259560E-1,-3.701381683E-1
1.495732557E0,-8.617194295E-1,-1.417922020E0,-1.249456406E-1
1.513622815E0,-1.722388566E-1,-6.805150509E-1,1.494464874E-1
1.531504163E0,2.433373779E-1,-4.832904339E-1,-5.605716705E-1
1.549409680E0,-7.639646530E-1,-3.533267975E-1,-3.940601349E-1
1.567302442E0,4.396285713E-1,-1.240040660E0,4.668445587E-1
1.585184339E0,-6.883203387E-1,-1.446298361E0,1.001015663E0
1.603089246E0,-6.255967915E-2,-6.147545576E-1,3.422555923E-1
1.620982617E0,-2.742251754E-1,-4.336156845E-1,-1.627883911E-1
1.638866773E0,1.272349060E-2,-5.663053989E-1,2.031660080E-1
1.656769972E0,-7.692689300E-1,-1.009447336E0,1.777660370E0
1.674662488E0,1.435353011E-1,-7.299559116E-1,1.761375427E0
1.692555616E0,7.381089032E-2,-1.306635499E0,1.608459473E0
1.710436902E0,-2.992721796E-1,-5.802261829E-2,-4.341859818E-1
1.728342237E0,-4.858571291E-2,-2.497233152E-1,-5.667591095E-1
1.746235791E0,1.283754259E-1,-1.122698545E0,1.108429909E0
1.764128614E0,-8.424975872E-1,-4.524010420E-1,7.283163071E-1
1.782025159E0,-3.862274885E-1,-5.900764465E-2,-3.865728378E-1
1.799915235E0,5.402438045E-1,1.117897034E-2,4.042158127E-1
1.817808484E0,-6.355968714E-1,-2.482596636E-1,1.055916786E0
1.835705091E0,3.105235994E-1,-5.830192566E-2,-6.825170517E-1
1.853595349E0,-5.457788110E-1,-1.595526576E0,-3.188858032E-1
1.871488172E0,-8.294230103E-1,-1.087666035E0,1.067390442E-1
1.889381726E0,5.058045387E-1,-1.002501249E-1,-7.889747620E-2
1.907275525E0,-1.577699333E-1,3.446302414E-1,-1.783274651E0
1.925168286E0,-7.102462053E-1,-1.707669973E0,-7.510375977E-1
1.943061475E0,1.450064778E-1,-1.434095740E0,6.255083084E-1
1.960954969E0,-2.500585020E-1,2.975126505E-1,-8.756656647E-1
1.978833936E0,2.310224324E-1,-8.176027536E-1,-1.384140015E0
1.996738721E0,3.962558210E-1,-6.747665405E-1,-2.657327652E-1
2.014634961E0,-3.771317005E-1,-9.119632244E-1,4.004487991E-1
2.032527967E0,-9.686286449E-1,-3.754310608E-1,-3.578853607E-2
2.050409619E0,1.160094365E-1,-6.786252260E-1,-6.126232147E-1
2.068314649E0,2.715125680E-1,-1.423540473E0,-1.931953430E-1
2.086208203E0,-2.874221802E-1,-5.129761696E-1,3.394126892E-1
2.104100904E0,-4.850585163E-1,-1.883197784E0,5.631456375E-1
2.121994580E0,-6.209713966E-2,-6.018033028E-1,7.049560547E-2
2.139875867E0,-2.315053642E-1,-1.710978746E-1,1.947994232E-1
2.157784192E0,1.736496091E-1,-4.349288940E-1,4.576625824E-1
2.175677198E0,-7.122569084E-1,-4.666956663E-1,8.156557083E-1
2.193555981E0,-6.194178462E-1,-1.079015136E0,9.741411209E-1
2.211460828E0,4.970979095E-1,-2.077482939E-1,-3.427133560E-1
2.229354383E0,5.711759627E-2,-4.929974079E-1,-5.680561066E-1
2.247247510E0,-5.124261379E-1,-1.390835047E-1,-1.095905304E-1
2.265140515E0,-2.148538232E-1,-8.609093428E-1,6.258707047E-1
2.283034192E0,1.979648769E-1,-5.808602571E-1,-2.904691696E-1
2.300927259E0,-1.206611395E0,-4.075373411E-1,-9.751768112E-1
2.318808484E0,5.806508064E-1,-9.527883530E-1,-4.859180450E-1
2.336711072E0,-1.226016432E-1,-7.526732683E-1,-4.855279922E-1
2.354607068E0,-1.817893028E0,-4.097226858E-1,-1.023754120E0
2.372500379E0,1.144061089E0,-5.927691460E-1,-1.315394402E0
2.390384473E0,6.689864397E-2,3.209654093E-1,-1.241951942E0
2.408287061E0,-6.324276328E-1,-1.300019860E0,-2.003927231E-1
2.426180432E0,8.868259192E-2,-7.462651730E-1,-6.409463882E-1
2.444073438E0,-1.316581070E-1,-8.291226625E-1,-9.001779556E-1
2.461966992E0,-8.242973089E-1,-7.539710999E-1,-9.301919937E-1
2.479857068E0,2.964665890E-1,-8.128470182E-1,-4.830369949E-1
2.497753308E0,-4.468576908E-1,-6.156954765E-1,-8.763523102E-1
2.515649549E0,2.049534321E-1,-8.224222660E-1,-8.034791946E-1
2.533540174E0,-3.707134724E-1,-6.562293768E-1,-4.316186905E-1
2.551432996E0,1.092243493E-1,-6.402366161E-1,-3.697443008E-1
2.569326551E0,-3.696267605E-1,-4.503952265E-1,-9.185123444E-2
2.587219861E0,1.349936724E-1,-1.038932920E0,3.794736862E-1
2.605112928E0,-9.156627655E-1,-1.009388685E0,5.156326294E-2
2.623006238E0,2.697654665E-1,-5.673038960E-1,-3.695640564E-1
2.640899549E0,2.127294689E-1,-9.592856169E-1,2.428979874E-1
2.658797986E0,-6.832213402E-1,-6.378765106E-1,3.202056885E-2
2.676674878E0,-2.219135165E-1,-1.034182906E0,1.913280487E-1
2.694579724E0,6.978107244E-2,-9.278191328E-1,1.013726234E0
2.712472547E0,-8.123900890E-1,-7.687197924E-1,9.883155823E-1
2.730357252E0,2.899484038E-1,-3.711100817E-1,9.367122650E-1
2.748259473E0,2.488236725E-1,-8.449774981E-1,2.733745575E-1
2.766152539E0,-5.098900199E-1,-7.950257063E-1,-1.799325943E-1
2.784045789E0,1.907785833E-1,-9.827256203E-2,-4.033184052E-2
2.801939405E0,-4.494332671E-1,-1.876848936E-1,5.483579636E-1
2.819832166E0,-4.905520976E-1,-7.113053799E-1,6.176595688E-1
2.837725721E0,-4.534514844E-1,2.954745889E-1,-1.280918121E-1
2.855622022E0,7.636822462E-1,-7.705699205E-1,1.540880203E-1
2.873512403E0,-3.228982985E-1,-7.715079784E-1,2.867994308E-1
2.891405408E0,-9.196219444E-1,-4.786130190E-1,-2.643976212E-1
2.909299024E0,9.547365308E-1,-1.887776852E-1,-4.031515121E-1
2.927192090E0,-4.231887758E-1,4.434671998E-1,-9.856481552E-1
2.945085401E0,-1.585019082E-1,-1.081109405E0,-2.596788406E-1
2.962976209E0,6.511603296E-2,-1.060777068E0,5.332612991E-1
2.980872022E0,-1.504417360E-1,-6.112766266E-2,-5.251750946E-1
2.998765332E0,-3.423970044E-1,9.735834599E-2,-2.830686569E-1
3.016655653E0,-3.580179214E-1,2.659856677E-1,-6.942062378E-1
3.034551892E0,2.667518333E-2,-1.381092906E0,-3.403739929E-1
3.052445020E0,-4.238832295E-1,-1.893258095E-2,-2.679224014E-1
3.070329481E0,1.787270457E-1,-4.540346861E-1,-6.881904602E-1
3.088232984E0,9.753555804E-2,-5.916663408E-1,-1.956110001E-1
3.106124951E0,-9.891831875E-1,1.386944056E-1,3.308963776E-2
3.124015393E0,2.520017326E-1,-4.179731607E-1,6.129283905E-1
3.141911573E0,7.384327799E-2,-8.830981255E-1,7.178192139E-1
3.159792676E0,-1.206355214E0,-7.731926441E-2,-4.218053818E-1
3.177698926E0,2.071627975E-1,-7.060062885E-2,-1.389152527E0
3.195594251E0,1.516501009E-1,-7.111845016E-1,2.160854340E-1
3.213472242E0,-6.018124819E-1,-6.409788132E-1,6.430454254E-1
3.231377881E0,3.358615190E-2,-3.691453934E-1,1.147340775E0
3.249271192E0,2.445271313E-1,3.092169762E-2,-5.255584717E-1
3.267164502E0,-5.649102330E-1,-6.054488420E-1,1.175880432E-1
3.285057447E0,3.426048458E-1,2.553342581E-1,7.112808228E-1
3.302950452E0,-1.978968680E-1,-5.042140484E-1,-4.865360260E-2
3.320844434E0,2.041123807E-2,-2.795832157E-1,-9.129190445E-1
3.338739026E0,-1.025167480E-1,-1.476408243E-1,1.957464218E-1
3.356627759E0,1.340217292E-1,7.843518257E-2,1.308937073E-1
3.374524121E0,-4.318633676E-1,-1.935100555E-1,-1.225767136E-1
3.392417371E0,-1.329490691E-1,-1.256375313E-1,2.279672623E-1
3.410306409E0,1.190440282E-1,-3.948801756E-1,3.418350220E-2
3.428204175E0,-6.030824035E-2,-4.543912411E-2,3.057527542E-1
3.446097364E0,-2.179277986E-1,-7.213758230E-1,4.399299622E-2
3.463983777E0,5.000488162E-1,-2.224310637E-1,-4.158191681E-1
3.481883985E0,-1.456183195E-1,4.355585575E-1,-3.734893799E-1
3.499777051E0,7.849816233E-2,-1.983697414E-1,1.808872223E-1
3.517673231E0,3.133500218E-1,-5.678880215E-1,-1.198005676E-2
3.535563672E0,-5.260586143E-1,-4.978067875E-1,6.337890625E-1
3.553456983E0,4.237960279E-1,1.096602678E-1,4.076910019E-1
3.571350232E0,-5.080077052E-1,8.374488354E-2,-5.895423889E-2
3.589243299E0,-3.003368676E-1,2.589592934E-1,-2.715177536E-1
3.607136914E0,1.529346257E-1,2.863087058E-1,-6.426353455E-1
3.625015271E0,-2.458755672E-1,-4.908167124E-1,-9.637832642E-2
3.642923169E0,-5.760898441E-2,-2.032860518E-1,5.112485886E-1
3.660816602E0,1.088521630E-1,1.637518406E-2,-4.049263000E-1
3.678709851E0,-4.445977509E-1,1.317211390E-1,-8.867683411E-1
3.696601331E0,-3.885024786E-1,7.697260380E-2,-2.809791565E-1
3.714496228E0,2.337699682E-1,-3.860578537E-1,5.476856232E-2
3.732389783E0,-1.006798029E0,4.402542114E-2,-2.543716431E-1
3.750270398E0,-1.856621206E-1,-3.502081633E-1,-2.795858383E-1
3.768173535E0,7.128160000E-1,-3.914282322E-1,-4.717502594E-1
3.786069532E0,-2.319235355E-2,1.553478241E-1,-2.543592453E-1
3.803962842E0,-1.012459874E0,1.706544161E-1,3.629016876E-2
3.821856092E0,6.973474622E-1,-2.687238455E-1,-5.469932556E-1
3.839748792E0,-7.756024003E-1,-7.948243618E-2,-1.212186813E-1
3.857643018E0,2.902609855E-2,5.588846207E-1,-1.069636345E0
3.875538953E0,9.269842505E-2,-2.804833651E-1,-3.701114655E-1
3.893429334E0,6.061200798E-2,1.304638386E-2,2.298059464E-1
3.911322461E0,-2.493663877E-1,-5.304700136E-1,5.450210571E-1
3.929215833E0,-4.154748917E-1,3.753278852E-1,-9.108266830E-1
3.947109143E0,8.356626332E-2,4.008214474E-1,-8.842554092E-1
3.965002271E0,2.465196550E-1,-2.087894678E-1,-2.031364441E-1
3.982895703E0,-1.408443749E-1,-6.791824102E-1,4.686784744E-1
4.000789197E0,-5.915293694E-1,8.139528036E-1,-1.040927887E0
4.018682508E0,1.545630991E-1,-1.280157566E-1,-5.109014511E-1
4.036572583E0,-1.657325402E-2,3.091242313E-1,3.790588379E-1
4.054468946E0,-5.294100046E-1,-1.204010129E0,2.280988693E-1
4.072361951E0,-1.435426623E-2,-8.274137974E-2,5.052175522E-1
4.090250745E0,1.940616071E-1,6.833264828E-1,1.110696793E-1
4.108145947E0,-3.236114681E-1,-8.699424267E-1,-1.500167847E-1
4.126027295E0,-2.903928757E-1,-9.151506424E-2,6.517438889E-1
4.143935193E0,5.039367676E-1,3.493992090E-1,-3.667449951E-1
4.161828504E0,-8.273209333E-1,-1.828765869E-2,1.958103180E-1
4.179710218E0,-4.102419615E-1,1.832693815E-1,6.671924591E-1
4.197615186E0,3.828541040E-1,3.397762775E-2,9.363899231E-1
4.215508802E0,-4.937373698E-1,1.414576769E-1,1.102724075E-1
4.233401685E0,-6.739109755E-1,1.257987022E-1,2.079010010E-2
4.251292126E0,6.953519583E-1,-5.620285273E-1,3.252029419E-3
4.269188428E0,-3.512414098E-1,1.847600937E-1,3.032007217E-1
4.287081739E0,-8.571017981E-1,2.901512384E-1,3.863477707E-1
4.304974988E0,5.262130499E-1,-1.173250675E-1,3.809070587E-1
4.322868116E0,-3.008453250E-1,-8.115196228E-2,-2.598514557E-1
4.340746289E0,-8.420503736E-1,-4.672530890E-1,4.934453964E-1
4.358643018E0,5.223987103E-1,1.556122303E-2,1.584339142E-1
4.376539869E0,-3.431391418E-1,-1.222916842E-1,-5.531129837E-1
4.394429700E0,-6.903859973E-1,4.415987730E-1,-2.439861298E-1
4.412338270E0,-1.344088614E-1,5.127457380E-1,-4.277782440E-1
4.430225904E0,1.671675146E-1,-2.476581335E-1,7.156934738E-1
4.448118359E0,-3.279169202E-1,-1.767280102E-1,3.264751434E-1
4.466014661E0,2.215955406E-3,-5.121637583E-1,-1.026721954E0
4.483907666E0,4.818336070E-1,3.179099560E-1,-7.385282516E-1
4.501801221E0,3.048664629E-1,5.760377049E-1,-4.711227417E-1
4.519691419E0,-1.333817959E0,-3.249454498E-2,7.563018799E-2
4.537587598E0,7.771910727E-2,-2.301009893E-1,-6.971721649E-1
4.555481701E0,2.711646557E-1,-4.244154692E-1,-9.025964737E-1
4.573371717E0,-2.609261870E-1,-2.666623592E-1,-3.857192993E-1
4.591270643E0,-1.170712411E-1,-7.327537537E-1,-2.282915115E-1
4.609162061E0,4.428174496E-1,-3.996497393E-1,-2.645111084E-2
4.627054456E0,-2.004723549E-1,5.753374100E-1,-8.311166763E-1
4.644947461E0,-1.219606161E0,-2.641659975E-1,-1.419906616E-1
4.662840772E0,7.872490883E-1,-6.781209707E-1,-2.790613174E-1
4.680734082E0,-2.053396404E-1,-5.744643211E-1,2.178106308E-1
4.698627637E0,-8.519423604E-1,1.857409477E-1,-1.962442398E-1
4.716520642E0,5.099145174E-1,-6.928921938E-1,3.777694702E-2
4.734416944E0,3.742994666E-1,-3.781338930E-1,-1.209583282E-1
4.752307325E0,-1.127373934E0,-2.533745766E-1,5.589818954E-1
4.770185682E0,3.603618443E-1,-3.766202927E-2,6.051445007E-2
4.788090955E0,4.226629436E-1,-7.482926846E-1,1.806144714E-1
4.805987195E0,-1.065619826E0,-5.006653070E-1,4.225740433E-1
4.823880262E0,-2.520676702E-3,-3.760719299E-1,4.921617508E-1
4.841773877E0,-2.302865312E-2,-7.298572063E-1,5.035276413E-1
4.859666700E0,-7.936133742E-1,-2.047768831E-1,4.318685532E-1
4.877560254E0,-4.137305617E-1,-5.370950699E-2,-1.449642181E-1
4.895453565E0,1.728259027E-1,-2.471988201E-1,-2.466068268E-1
4.913346814E0,-4.935082197E-1,-3.274465799E-1,-1.157722473E-1
4.931240613E0,-3.233953416E-1,-9.511868954E-1,8.591651917E-3
4.949133802E0,1.824830174E-1,-1.395999193E-1,3.861532211E-1
4.967026807E0,-7.320505381E-1,-4.057112932E-1,8.567895889E-1
4.984919812E0,-3.842237592E-1,-8.453364372E-1,-2.926006317E-1
5.002813306E0,-1.131167531E0,3.375777006E-1,-7.256813049E-1
5.020703810E0,5.599442124E-1,-2.700589895E-1,-7.885160446E-1
5.038599988E0,-5.248924494E-1,-9.630550146E-1,-1.086454391E-1
5.056494581E0,-7.644965649E-1,-4.024702311E-1,-5.614299774E-1
5.074372082E0,-1.802209020E-1,-2.977850437E-1,-5.092144012E-2
5.092280225E0,1.167239994E-1,5.371131897E-1,-2.193374634E-1
5.110173047E0,-1.497154832E0,-8.609908819E-1,-2.663631439E-1
5.128066480E0,-1.406015903E-1,1.514874697E-1,-7.681083679E-1
5.145959607E0,1.003569365E0,-6.237373352E-1,1.928615570E-2
5.163852979E0,-9.998053312E-1,-1.463639736E-1,-7.282609940E-1
5.181746594E0,-1.205798864E0,-6.865581274E-1,-1.066473961E0
5.199639539E0,1.266710877E0,3.611680269E-1,-7.904233932E-1
5.217533094E0,-8.302888870E-1,-6.043127775E-1,4.445075989E-2
5.235426160E0,-1.529848933E0,3.702636957E-1,-1.824569702E-2
5.253319532E0,1.291584015E0,-2.055853605E-1,-1.011929512E0
5.271200879E0,-1.390519977E0,-6.189173460E-1,-5.889568329E-1
5.289094739E0,-1.103154182E0,-1.359260082E-1,-3.375844955E-1
5.306996411E0,8.209313750E-1,-3.488403559E-1,1.275720596E-1
5.324892530E0,4.601386487E-1,-4.267227650E-1,-3.646354675E-1
5.342786084E0,-2.538557053E0,-6.238284111E-1,9.426784515E-2
5.360679700E0,1.393179536E0,8.593920469E-1,-1.579299927E0
5.378572705E0,-2.812572122E-1,-1.459401965E0,6.501798630E-1
5.396465955E0,-2.392601252E0,-1.977336407E-1,8.676481247E-1
5.414359571E0,6.747903824E-1,-4.457309246E-1,5.945243835E-1
5.432249707E0,6.976677179E-1,4.144548774E-1,-4.780702591E-1
5.450146009E0,-2.406920671E0,-5.912343264E-1,4.877939224E-1
5.468038037E0,9.924324751E-1,-1.050876498E0,3.862657547E-1
5.485932569E0,1.070548415E0,-4.055368900E-2,1.567766190E0
5.503825879E0,-2.264756441E0,6.905489564E-1,5.411491394E-1
5.521704236E0,8.160077780E-2,-1.180460215E0,-4.810914993E-1
5.539612256E0,1.938957125E-1,2.710647583E-1,9.325971603E-1
5.557502759E0,-9.270322919E-1,8.880444765E-1,3.558254242E-1
5.575387219E0,-1.229143292E-1,-4.772579670E-1,2.832927704E-1
5.593292432E0,4.442269206E-1,-4.816877842E-2,6.644506454E-1
5.611185437E0,-1.292161107E0,6.295504570E-1,4.961833954E-1
5.629067029E0,-2.171968073E-1,-3.185778856E-1,1.147279739E-1
5.646972425E0,3.529597521E-1,-1.925432682E-1,5.950250626E-1
5.664865430E0,-1.261829376E0,7.837133408E-1,-8.436756134E-1
5.682758985E0,8.726696968E-1,-6.034299135E-1,-7.435789108E-1
5.700652051E0,2.549868226E-1,-3.546160460E-1,9.016857147E-1
5.718545545E0,-1.342525363E0,-2.566932440E-1,8.572568893E-1
5.736438855E0,6.087794304E-1,8.024716377E-2,-6.789493561E-2
5.754332105E0,-5.940756202E-2,1.023530960E-1,-5.987720490E-1
5.772226453E0,-1.393929601E0,2.056527138E-1,-1.193338394E0
5.790118665E0,1.631054282E-1,2.885019779E-2,-6.505193710E-1
5.807997510E0,3.301672041E-1,8.929920197E-2,-1.618671417E-2
5.825905408E0,-1.642593026E0,3.395247459E-1,-8.114347458E-1
5.843798474E0,-3.523063660E-1,-4.752674103E-1,-8.657140732E-1
5.861692700E0,6.043790579E-1,5.165092349E-1,8.364105225E-2
5.879585157E0,-8.154035807E-1,2.395344973E-1,1.595506668E-1
5.897482739E0,-6.274134517E-1,1.764258146E-1,-3.557739258E-1
5.915371717E0,-3.350463212E-1,4.967852235E-1,-3.102979660E-1
5.933253125E0,-6.134558842E-2,-3.147139549E-1,-5.196189880E-1
5.951158338E0,-1.670368671E0,-1.257923841E-1,-2.161579132E-1
5.969039746E0,6.262202561E-2,6.243448257E-1,-2.368278503E-1
5.986945081E0,-1.787233353E-2,-2.177366018E-1,1.060247421E-1
6.004838330E0,-7.238745689E-1,-1.641666889E-1,1.016155243E0
6.022727979E0,-2.930679917E-1,-2.345442772E-2,1.991481781E-1
6.040624890E0,1.208178625E-1,-7.294209003E-1,-4.775142670E-2
6.058518262E0,-8.782780170E-1,1.046553731E0,-1.789865494E-1
6.076411756E0,-4.519258440E-1,4.878102541E-1,2.245607376E-1
6.094305188E0,1.198413670E-1,1.356428862E-1,3.809938431E-1
6.112198255E0,-1.075789928E0,-4.700664282E-1,7.845420837E-1
6.130091504E0,-1.149571165E-1,3.050695062E-1,1.307954788E-1
6.147984510E0,-7.032218855E-3,4.860712290E-1,1.093635559E-1
6.165878369E0,-7.193702459E-1,5.213443637E-1,3.207530975E-1
6.183771436E0,1.843143702E-1,2.062113285E-1,1.359996796E-1
6.201664685E0,-3.690622449E-1,-4.908877611E-1,7.983074188E-1
6.219558057E0,-4.887700677E-1,1.095426083E-2,1.727809906E-1
6.237454297E0,8.741517365E-2,-2.623283863E-1,-2.289962769E-1
6.255347669E0,1.026780307E-1,7.807448506E-1,-1.282558441E-1
6.273238172E0,-7.504706383E-1,2.238409519E-1,-1.185626984E-1
6.291128614E0,-4.206473827E-1,8.642387390E-2,-5.718803406E-2
6.309012647E0,-3.109994531E-1,3.242492676E-5,-1.213684082E-1
6.326918225E0,-3.313527256E-2,1.174614429E-1,7.097434998E-2
6.344811170E0,-2.018902749E-1,4.399881363E-1,-1.446723938E-3
6.362704785E0,-3.130677044E-1,3.294444084E-1,-2.278299332E-1
6.380600721E0,-7.671081424E-1,2.381310463E-1,-4.718217850E-1
6.398491162E0,-8.023592830E-1,1.559370756E-1,-3.163471222E-1
6.416372510E0,3.966394067E-1,3.036004305E-1,-2.050275803E-1
6.434278089E0,-5.801606774E-1,2.870725393E-1,8.986568451E-2
6.452171094E0,-1.065119147E0,8.613538742E-1,-2.141675949E-1
6.470064649E0,2.872225642E-1,2.259279490E-1,-2.607536316E-1
6.487957959E0,-7.773516178E-1,-1.068004370E-1,3.156375885E-1
6.505850965E0,-5.701025724E-1,-6.765842438E-3,-7.222175598E-2
6.523744336E0,1.970177889E-1,7.825362682E-2,-3.625307083E-1
6.541637525E0,-4.791240990E-1,5.279841423E-1,5.421066284E-2
6.559530896E0,-1.053680539E0,5.204142928E-1,-2.859783173E-2
6.577427381E0,8.940108120E-2,1.339361668E-1,1.492033005E-1
6.595317762E0,-8.845143914E-1,7.050943971E-1,4.470252991E-2
6.613211194E0,-7.589524388E-1,-4.198956490E-2,-6.176757812E-2
6.631092481E0,-5.621856451E-1,2.493262291E-2,2.835998535E-1
6.648986768E0,-5.901936293E-1,4.545524120E-1,2.698516846E-2
6.666888196E0,-3.905137181E-1,2.737002969E-1,4.144954681E-2
6.684784131E0,-1.180952862E-1,3.119263649E-1,-4.685878754E-2
6.702677686E0,-5.501398444E-1,-5.906212330E-2,-6.990242004E-2
6.720571057E0,-4.862215221E-1,3.169847727E-1,-2.354164124E-1
6.738464246E0,3.819018006E-1,4.039049149E-1,-1.232690811E-1
6.756358716E0,-7.713532448E-1,5.969595313E-1,-2.755842209E-1
6.774250867E0,-8.181841373E-1,5.189287663E-1,-3.592252731E-1
6.792143994E0,-9.356684238E-2,8.305873871E-1,-3.670539856E-1
6.810037305E0,-6.472379565E-1,9.755682945E-2,9.694576263E-2
6.827930860E0,-8.755838871E-1,-1.994866133E-1,2.484483719E-1
6.845824170E0,1.040081531E-1,2.178176641E-1,-6.047992706E-1
6.863717176E0,-7.820074558E-1,6.217762232E-1,-7.422971725E-1
6.881610730E0,-4.875719547E-1,5.357325077E-1,-2.324304581E-1
6.899503919E0,3.067907691E-1,4.797704220E-1,-3.526210785E-1
6.917397412E0,-8.309042454E-1,5.284604430E-1,-3.654680252E-1
6.935290723E0,-7.095395923E-1,5.259597301E-2,-2.792787552E-1
6.953184094E0,-2.654508352E-1,1.208879948E-1,-8.997154236E-2
6.971077100E0,-6.851249933E-1,8.968694806E-1,-2.605667114E-1
6.988958692E0,-6.214801595E-2,4.908409715E-1,-1.122446060E-1
7.006865979E0,-4.104078710E-1,1.774839163E-1,4.132461548E-2
7.024757032E0,-8.285964131E-1,8.830571175E-2,-6.989288330E-2
7.042650586E0,-2.698737681E-1,3.217278123E-1,5.549716949E-2
7.060543897E0,-6.932404637E-2,4.313880205E-1,9.831905365E-2
7.078437756E0,-5.765203834E-1,6.191418767E-1,-7.588386536E-3
7.096330701E0,-2.140048146E-2,9.737681150E-1,-2.374076843E-1
7.114221205E0,-7.149224281E-1,3.458495140E-1,1.250305176E-1
7.132116834E0,-5.033942461E-1,2.443244457E-1,4.317293167E-1
7.149998548E0,-4.392321706E-1,5.344933867E-1,2.864141464E-1
7.167891614E0,-3.803651929E-1,8.623700142E-1,-1.353845596E-1
7.185797132E0,-6.414434910E-1,2.432146072E-1,1.798076630E-1
7.203691114E0,-3.936796635E-2,7.647385001E-1,1.833152771E-1
7.221583692E0,-6.357557178E-1,4.675478935E-1,4.371376038E-1
7.239476758E0,-5.159498453E-1,5.963190794E-1,3.047657013E-1
7.257370313E0,-3.290886879E-1,8.175390959E-1,-7.041454315E-2
7.275263623E0,-2.694871277E-3,6.698023081E-1,-3.752632141E-1
7.293157117E0,-8.148704767E-1,8.544807434E-1,-2.156610489E-1
7.311050428E0,-3.820286691E-1,3.100961447E-1,1.325788498E-1
7.328931592E0,2.556005493E-2,5.062100887E-1,1.476402283E-1
7.346834180E0,-6.988149881E-1,9.245985746E-1,2.430181503E-1
7.364730115E0,-1.988570839E-1,6.862848997E-1,1.438884735E-1
7.382623731E0,-1.114514023E-1,4.182709455E-1,1.093101501E-2
7.400516980E0,-6.569694281E-1,7.496731281E-1,-2.641801834E-1
7.418410108E0,-2.488694638E-1,7.239750624E-1,-4.464273453E-1
7.436303601E0,-4.854822159E-1,7.847840786E-1,-1.201629639E-1
7.454187940E0,-4.542600513E-1,9.672726989E-1,-3.239412308E-1
7.472090222E0,-1.649322063E-1,6.771179438E-1,-8.487701416E-2
7.489983594E0,-7.542147040E-1,1.069314122E0,8.685874939E-2
7.507879896E0,-4.473497868E-1,6.831620932E-1,-1.049604416E-1
7.525770154E0,-1.180606782E-1,7.004335523E-1,-1.743297577E-1
7.543651319E0,-5.285863280E-1,8.903226256E-1,-1.148710251E-1
7.561556592E0,8.613474667E-2,4.669638276E-1,-7.556915283E-2
7.579437268E0,-5.479865074E-1,6.197722554E-1,-2.225837708E-1
7.597331494E0,-6.066111922E-1,9.116585255E-1,-3.636693954E-1
7.615225232E0,-3.418360949E-1,1.200901389E0,-4.713153839E-1
7.633117688E0,-5.986486673E-1,7.223831415E-1,7.174682617E-2
7.651018140E0,-4.566691518E-1,6.101956367E-1,-7.518768311E-3
7.668904798E0,-9.160603583E-2,1.245481968E-1,3.218736649E-1
7.686806775E0,-6.738983393E-1,6.607643962E-1,-2.809333801E-2
7.704703321E0,-2.317119539E-1,1.069902658E0,-3.565883636E-1
7.722596631E0,7.130785286E-2,8.620628119E-1,-2.090206146E-1
7.740490186E0,-6.468255520E-1,5.792326927E-1,5.637550354E-2
7.758383496E0,-5.450673103E-1,5.895196199E-1,4.681968689E-2
7.776275953E0,-1.732415557E-1,7.124953270E-1,-1.832046509E-1
7.794169934E0,-6.273320317E-1,8.458127379E-1,-1.022481918E-1
7.812063184E0,-4.277282953E-1,1.301330209E0,-3.001060486E-1
7.829956739E0,-3.374392986E-1,7.395047545E-1,6.176757812E-2
7.847850110E0,-8.319981098E-1,9.871430993E-1,1.175079346E-1
7.865743421E0,-2.771979272E-1,5.898903608E-1,-1.970100403E-1
7.883637891E0,8.814930916E-2,7.705990076E-1,-4.218873978E-1
7.901532789E0,-6.245687008E-1,9.316288829E-1,-1.177606583E-1
7.919423047E0,-4.211827219E-1,5.928240418E-1,2.854299545E-1
7.937305127E0,-6.279528737E-1,7.862219810E-1,2.048702240E-1
7.955209912E0,-3.089303374E-1,7.791410685E-1,-5.247106552E-1
7.973105970E0,-2.515861988E-1,8.398803473E-1,-4.173908234E-1
7.990996533E0,-6.199598312E-1,6.370306015E-1,-7.293796539E-2
8.008877942E0,-3.301503062E-1,7.977901697E-1,1.327419281E-1
8.026780530E0,-1.723201871E-1,8.925668001E-1,-2.405014038E-1
8.044664319E0,-9.594972134E-1,9.586544037E-1,-1.817607880E-2
8.062569776E0,-5.806507170E-2,5.225784779E-1,1.760129929E-1
8.080466199E0,-3.822298944E-1,6.835221052E-1,4.614267349E-1
8.098356641E0,-8.736552000E-1,8.395452499E-1,-4.929609299E-1
8.116237439E0,-3.176260367E-2,1.117920160E0,-3.907766342E-1
8.134143262E0,-3.353600800E-1,8.611736298E-1,5.392351151E-1
8.152036328E0,-9.801146388E-1,9.135862589E-1,1.629924774E-1
8.169929883E0,-2.091057897E-1,1.054369926E0,1.420507431E-1
8.187823194E0,1.894827038E-1,6.219584942E-1,4.053440094E-1
8.205719190E0,-1.241699457E0,9.634096622E-1,1.182241440E-1
8.223609632E0,-8.940251917E-2,9.430314898E-1,3.128967285E-1
8.241503125E0,-2.284681983E-2,1.077448368E0,4.121246338E-1
8.259396070E0,-1.249035358E0,7.855386138E-1,7.059860229E-2
8.277289746E0,-2.120048702E-1,7.046193480E-1,1.663913727E-1
8.295183057E0,-1.169553325E-1,7.236083746E-1,3.771400452E-2
8.313076551E0,-7.323148847E-1,9.939939380E-1,-6.999721527E-1
8.330969434E0,1.426609457E-1,6.695697308E-1,1.974239349E-1
8.348855237E0,-4.355326295E-2,6.851849556E-1,5.293817520E-1
8.366753430E0,-9.773035049E-1,1.195152283E0,-2.657670975E-1
8.384647169E0,-6.695383191E-1,7.284375429E-1,-5.666065216E-2
8.402542920E0,-4.924326539E-1,7.649248242E-1,3.429937363E-1
8.420436231E0,-2.555322349E-1,8.789243102E-1,-9.437751770E-2
8.438333569E0,-3.831423223E-1,9.313820601E-1,-6.626987457E-2
8.456222791E0,-6.532787681E-1,7.897845507E-1,6.935062408E-1
8.474116223E0,-8.943378925E-1,1.031609416E0,6.675720215E-5
8.492009473E0,-6.431223750E-1,1.197935581E0,-3.335571289E-2
8.509885145E0,-5.762124658E-1,8.896744251E-1,-6.248474121E-2
8.527796399E0,-5.246091485E-1,7.906304598E-1,-2.942562103E-2
8.545692335E0,-7.315032482E-1,6.979911327E-1,9.642028809E-2
8.563582959E0,-5.777609348E-1,1.086857200E0,-1.693649292E-1
8.581478956E0,-6.853299141E-1,8.243950009E-1,1.279726028E-1
8.599369336E0,-8.381479979E-1,8.345853090E-1,8.138685226E-1
8.617263135E0,-8.422368765E-1,1.086213470E0,2.673120499E-1
8.635154004E0,-8.236231804E-1,4.772893190E-1,1.609516144E-1
8.653049756E0,-6.813755035E-1,1.394379973E0,-7.964000702E-1
8.670942823E0,-5.470421314E-1,1.004567623E0,-4.030694962E-1
8.688833936E0,-4.221518934E-1,1.050889015E0,4.337396622E-1
8.706726819E0,-1.182151318E0,9.310934544E-1,4.210319519E-1
8.724622205E0,-7.701331973E-1,6.791253686E-1,8.725643158E-2
8.742516065E0,-8.469371200E-1,8.836825490E-1,1.069440842E-1
8.760410901E0,-4.477512538E-1,9.761552811E-1,-2.906112671E-1
8.778302869E0,-1.127065539E0,1.141068339E0,1.928710938E-2
8.796196180E0,-5.898314118E-1,1.383548856E0,2.423238754E-1
8.814089551E0,-9.564766288E-1,1.070422649E0,2.169895172E-2
8.831982678E0,-8.766417503E-1,1.063171625E0,2.246990204E-1
8.849880384E0,-4.706640244E-1,6.982181668E-1,-2.163696289E-1
8.867769483E0,-1.180089474E0,8.798655868E-1,-6.317710876E-2
8.885653150E0,-4.096792340E-1,1.004904866E0,5.811471939E-1
8.903556836E0,-9.926083684E-1,9.993426800E-1,1.599283218E-1
8.921450330E0,-9.130501151E-1,1.092321277E0,-9.525203705E-2
8.939342786E0,-9.690484405E-1,1.190836072E0,-1.881475449E-1
8.957235974E0,-5.565565825E-1,5.048630238E-1,4.576215744E-1
8.975129590E0,-8.818113208E-1,1.063676119E0,-1.585502625E-1
8.993022657E0,-5.853583217E-1,8.414384127E-1,-3.579931259E-1
9.010915723E0,-6.127948761E-1,1.167211413E0,-1.180171967E-1
9.028797742E0,-7.077147365E-1,8.100286722E-1,-1.544752121E-1
9.046700025E0,-9.002099037E-1,8.078489304E-1,-3.723869324E-1
9.064595838E0,-7.207082510E-1,1.265475154E0,-4.770317078E-1
9.082489392E0,-5.593978763E-1,1.178527832E0,-1.954469681E-1
9.100382520E0,-5.973629951E-1,7.333233356E-1,3.244495392E-2
9.118278944E0,-8.209040761E-1,7.742702365E-1,-2.633762360E-2
9.136169141E0,-3.270677924E-1,9.521186948E-1,-2.435827255E-1
9.154062696E0,-6.898661852E-1,1.147451282E0,-2.845821381E-1
9.171956006E0,-1.125484347E0,8.093369603E-1,-1.281814575E-1
9.189849378E0,-3.342904747E-1,1.028140306E0,-1.804027557E-1
9.207742688E0,-1.063588142E0,7.509064674E-1,4.212722778E-1
9.225638502E0,-6.278548837E-1,9.047182798E-1,-4.209184647E-1
9.243517285E0,-4.243272245E-1,9.972056746E-1,-5.044116974E-1
9.261421338E0,-7.580313683E-1,1.204662085E0,4.599571228E-3
9.279315808E0,-9.111152291E-1,1.036013484E0,4.051656723E-1
9.297208631E0,-6.626414061E-1,7.444753647E-1,-2.548151016E-1
9.315102674E0,-1.011860847E0,5.855568051E-1,-1.810817719E-1
9.332996045E0,-6.929650307E-1,8.098854423E-1,-1.385536194E-1
9.350888807E0,-4.559534192E-1,1.079341054E0,2.466020584E-1
9.368768018E0,-8.695607781E-1,1.237269402E0,-1.538753510E-2
9.386672803E0,-8.553348780E-1,9.795024395E-1,-1.545648575E-1
9.404569104E0,-8.589309454E-1,9.426758289E-1,-1.041746140E-1
9.422462598E0,-5.415173769E-1,8.213964105E-1,5.241966248E-2
9.440356092E0,-6.566336751E-1,6.448382735E-1,1.192293167E-1
9.458249158E0,-9.798509479E-1,1.179397225E0,-7.915496826E-4
9.476142469E0,-3.835461140E-1,1.212736845E0,-1.433801651E-1
9.494036084E0,-9.326727390E-1,8.508240581E-1,4.781446457E-1
9.511928907E0,-5.876868963E-1,8.201155066E-1,-1.432218552E-1
9.529822461E0,-6.641814709E-1,4.679732323E-1,7.827758789E-3
9.547715955E0,-5.450400710E-1,1.301710129E0,-1.130371094E-1
9.565612073E0,-5.432269573E-1,1.050841331E0,4.296398163E-2
9.583499707E0,-2.946265340E-1,6.094884872E-1,2.076158524E-1
9.601391798E0,-9.321117401E-1,6.611642241E-1,2.739334106E-2
9.619291944E0,-6.095076799E-1,1.415628195E0,-3.496465683E-1
9.637185499E0,5.658040941E-2,1.380607128E0,-2.888107300E-1
9.655076123E0,-1.422992706E0,7.648504972E-1,2.174758911E-1
9.672966260E0,-4.341170490E-1,6.887114048E-1,-7.676124573E-3
9.690862500E0,-1.198842078E-1,1.344284058E0,-6.397209167E-1
9.708755872E0,-1.138067245E0,1.586124897E0,-2.816534042E-1
9.726646314E0,-3.503570557E-1,1.176052332E0,-5.539054871E-1
9.744542188E0,-3.985779285E-1,5.693673491E-1,1.256008148E-1
9.762423780E0,-1.294659734E0,9.665514231E-1,-1.368322372E-1
9.780329297E0,-4.201636016E-1,9.096832275E-1,-4.222583771E-2
9.798222547E0,-9.337075055E-2,1.409225821E0,-3.626012802E-1
9.816115918E0,-1.149909854E0,7.786102891E-1,-2.036628723E-1
9.834009229E0,-2.917200327E-1,1.232223153E0,-3.228721619E-1
9.851902539E0,-4.703319669E-1,1.430596828E0,-7.172164917E-1
9.869795911E0,-1.015673995E0,1.120060682E0,-2.202262878E-1
9.887689221E0,6.171390414E-3,6.252924204E-1,3.052511215E-1
9.905585523E0,-1.092898130E0,5.984277725E-1,-1.243944168E-1
9.923470410E0,-6.119900942E-1,1.199311733E0,-4.657335281E-1
9.941369031E0,-5.016353726E-2,1.448285937E0,-6.915464401E-1
9.959262342E0,-1.015301943E0,1.198114276E0,-4.982566833E-2
9.977158521E0,-8.133153319E-1,7.564539909E-1,7.252311707E-2
9.995049207E0,-3.484427333E-1,5.870457292E-1,2.173919678E-1
1.001294264E1,-8.496459723E-1,1.257754803E0,-2.230815887E-1
1.003083479E1,-7.262525558E-1,8.681899905E-1,-1.917552948E-1
1.004872920E1,-2.996908724E-1,1.021716714E0,-1.170291901E-1
1.006662202E1,-9.263272882E-1,6.151995063E-1,1.895704269E-1
1.008451582E1,-4.534230530E-1,1.174968123E0,-2.168712616E-1
1.010240913E1,-4.827656150E-1,1.004015326E0,1.511669159E-1
1.012029805E1,-7.701991796E-1,9.777811170E-1,3.081874847E-1
1.013819416E1,-8.838964701E-1,9.977321029E-1,1.416616440E-1
1.015607441E1,-3.585788310E-1,9.876799583E-1,-1.659221649E-1
1.017398243E1,-8.084211349E-1,9.416078925E-1,2.448406219E-1
1.019187562E1,-8.114728928E-1,9.977809191E-1,2.340421677E-1
1.020976997E1,4.986073077E-2,8.828775883E-1,3.912258148E-2
1.022764912E1,-6.684302092E-1,8.977590203E-1,3.266286850E-1
1.024555867E1,-1.202796102E0,1.210100174E0,2.515621185E-1
1.026344917E1,-3.275234401E-1,8.811471462E-1,-1.198177338E-1
1.028134248E1,-7.773322463E-1,8.716063499E-1,4.743299484E-1
1.029923542E1,-4.336553812E-1,6.390333176E-1,3.470134735E-1
1.031713203E1,-6.346195340E-1,1.845728755E-1,8.031692505E-1
1.033502241E1,-4.445179701E-1,1.147851944E0,-6.369171143E-1
1.035291572E1,-6.093920469E-1,6.587568521E-1,-2.363824844E-1
1.037080903E1,-2.118857354E-1,1.431251049E0,-1.807632446E-1
1.038870259E1,-3.946917057E-1,8.211675882E-1,-2.743625641E-2
1.040659181E1,-1.149505734E0,8.378172517E-1,1.997613907E-1
1.042448896E1,-1.154929698E-1,1.241909027E0,-3.888683319E-1
1.044238252E1,-4.972516894E-1,8.226763010E-1,-2.929849625E-1
1.046027589E1,-1.290689230E0,9.310299754E-1,3.471460342E-1
1.047816908E1,1.970557421E-1,3.896998167E-1,-6.077671051E-2
1.049606245E1,-1.146120429E0,7.004778385E-1,2.937622070E-1
1.051395582E1,-5.329490304E-1,1.426011086E0,2.253532410E-3
1.053184907E1,-3.692351878E-1,5.904150009E-1,-1.766433716E-1
1.054974244E1,-8.948186040E-1,1.037570834E0,-3.899631500E-1
1.056763270E1,-6.294964552E-1,4.314069450E-1,-2.707958221E-2
1.058553303E1,-1.453247368E-1,9.310174584E-1,-1.546211243E-1
1.060342158E1,-9.077355266E-1,1.105632663E0,-1.447935104E-1
1.062131679E1,-7.501389384E-1,8.321591616E-1,7.745552063E-2
1.063920894E1,-6.318127513E-1,9.378097057E-1,-2.052078247E-1
1.065710524E1,-4.884297848E-1,8.760263324E-1,-2.602777481E-1
1.067499312E1,-5.325984955E-1,1.021154881E0,-4.118633270E-1
1.069288911E1,-3.812224269E-1,4.279710054E-1,-1.817493439E-1
1.071078242E1,-5.972092152E-1,5.843399763E-1,3.237428665E-1
1.072867592E1,-1.143454313E-1,9.351150393E-1,-1.366701126E-1
1.074656678E1,-9.833393097E-1,9.701815844E-1,-2.402734756E-1
1.076446235E1,-6.421116590E-1,1.118611097E0,-3.600931168E-1
1.078235597E1,-2.966238260E-1,1.050926447E0,-2.940378189E-1
1.080024898E1,-1.018413544E0,8.088898063E-1,4.283208847E-1
1.081813130E1,-8.785016537E-1,8.430935740E-1,6.159210205E-2
1.083602418E1,-4.290076494E-1,2.579049468E-1,1.148233414E-1
1.085391646E1,-3.340644240E-1,1.627178431E0,-6.497774124E-1
1.087181092E1,-5.213841200E-1,8.133577108E-1,-2.060766220E-1
1.088971583E1,-5.168025494E-1,1.095609426E0,-2.261352539E-2
1.090760939E1,-6.231619120E-1,2.618160248E-1,4.081487656E-1
1.092550105E1,-4.669808149E-1,5.750803947E-1,-1.765041351E-1
1.094339607E1,-6.338161826E-1,8.494541645E-1,-6.465997696E-1
1.096128627E1,-4.073532820E-1,7.401902676E-1,-4.029598236E-1
1.097918232E1,-3.832973838E-1,1.224891782E0,-3.667936325E-1
1.099707887E1,-3.625922203E-1,5.774466395E-1,-9.187412262E-2
1.101497224E1,-2.964413166E-1,5.072139502E-1,-1.352863312E-1
1.103286250E1,-2.361699939E-1,7.233491540E-1,-2.624845505E-1
1.105075581E1,-5.075472593E-1,7.109386921E-1,3.852176666E-2
1.106864613E1,-1.783102304E-1,1.005595684E0,-2.922420502E-1
1.108654396E1,-3.471833766E-1,5.199338794E-1,-3.848934174E-2
1.110443287E1,-1.684531718E-1,9.757695198E-1,1.062116623E-1
1.112232930E1,-8.733515441E-2,4.555371404E-1,9.104156494E-2
1.114022261E1,-1.120526791E0,6.953309774E-1,5.389785767E-2
1.115811567E1,-1.817478240E-1,7.015208006E-1,2.159309387E-2
1.117599727E1,-6.146104336E-1,6.672738791E-1,6.627559662E-2
1.119390230E1,-8.125060201E-1,1.050469995E0,-1.868534088E-2
1.121179561E1,-1.257246584E-1,6.009970903E-1,-7.366180420E-3
1.122968922E1,-1.518943012E-1,6.221317053E-1,2.905654907E-2
1.124758253E1,-2.673543096E-1,7.203485966E-1,-2.926254272E-1
1.126547548E1,-1.300183237E-1,8.078092337E-1,-3.800344467E-1
1.128336909E1,-1.017913073E-1,1.010550380E0,-3.244562149E-1
1.130126216E1,-5.222624540E-1,6.580682993E-1,1.042060852E-1
1.131915571E1,-8.921702206E-2,9.772697687E-1,-4.077911377E-1
1.133705226E1,-5.088616014E-1,6.443138123E-1,-8.152866364E-2
1.135494258E1,-5.846822262E-1,9.451602101E-1,-2.443361282E-1
1.137283589E1,-4.431484640E-1,5.769405365E-1,-2.112388611E-1
1.139072920E1,-7.674052715E-1,9.689575434E-1,8.621025085E-2
1.140862257E1,-3.070381284E-1,7.642524242E-1,2.074241638E-3
1.142651582E1,-5.935754776E-1,3.299497366E-1,2.514629364E-1
1.144440773E1,-2.871146500E-1,1.119736433E0,-1.850271225E-1
1.146230275E1,-1.227488220E-1,7.547471523E-1,-3.767662048E-1
1.148019594E1,-4.930244386E-1,9.422708154E-1,-4.636383057E-2
1.149809028E1,-1.063567162E0,3.777594566E-1,4.242496490E-1
1.151598262E1,2.728846371E-1,4.222153425E-1,-1.027345657E-1
1.153387593E1,-3.567952514E-1,1.090208054E0,-9.009571075E-1
1.155176930E1,-6.945545673E-1,6.083117127E-1,-2.247791290E-1
1.156964796E1,-2.237590551E-1,1.186300159E0,2.350311279E-1
1.158755616E1,-2.883613706E-1,5.964143276E-1,4.396619797E-1
1.160543745E1,-1.130772114E0,6.625324488E-1,-2.644538879E-2
1.162334291E1,-2.706000507E-1,3.524608016E-1,5.838394165E-2
1.164123500E1,-1.747610271E-1,7.463289499E-1,2.698383331E-1
1.165911714E1,-7.540656328E-1,1.120273113E0,-4.529571533E-1
1.167702583E1,-1.937099099E-1,2.863788605E-1,1.234569550E-1
1.169491578E1,-5.416196585E-1,7.544218898E-1,4.609212875E-1
1.171280934E1,-8.311554193E-1,3.293434978E-1,2.878065109E-1
1.173070259E1,6.145170331E-2,1.211763859E0,-3.566732407E-1
1.174859596E1,-6.901141405E-1,6.304054260E-1,2.245922089E-1
1.176649214E1,-6.350509524E-1,3.281300068E-1,4.991111755E-1
1.178438246E1,1.482917517E-1,6.358529329E-1,-3.874206543E-2
1.180227608E1,-9.075310230E-1,5.446937084E-1,-2.780656815E-1
1.182016939E1,-5.818094015E-1,8.421031237E-1,-2.048988342E-1
1.183806257E1,-2.854518294E-1,4.412234426E-1,-4.853916168E-2
1.185595595E1,-8.841867447E-1,9.542405009E-1,-2.192544937E-1
1.187384932E1,-3.218403459E-1,6.608515382E-1,-7.459163666E-2
1.189174269E1,2.328205109E-2,6.287639737E-1,1.308889389E-1
1.190963911E1,-1.341418505E0,5.966607332E-1,-4.990863800E-2
1.192752961E1,3.925657272E-2,6.458522081E-1,-3.447437286E-1
1.194542036E1,-1.144300997E-1,8.527106643E-1,-2.564640045E-1
1.196331611E1,-7.133597136E-1,6.479812860E-1,1.362829208E-1
1.198120936E1,-9.742515087E-1,5.341362357E-1,1.301622391E-1
1.199910536E1,1.092662960E-1,8.018310070E-1,-5.945062637E-1
1.201699891E1,-6.733787060E-1,8.678790331E-1,-1.776037216E-1
1.203488936E1,-7.972348332E-1,6.191537380E-1,-1.436901093E-2
1.205278267E1,-8.762329221E-1,5.446068048E-1,-4.822063446E-2
1.207066133E1,-3.901409805E-1,6.824597120E-1,-6.480035782E-1
1.208856984E1,-4.188859761E-1,7.487062216E-1,-3.391494751E-1
1.210645088E1,2.572413087E-1,8.250640035E-1,-2.541027069E-1
1.212435591E1,-1.125473022E0,8.448332548E-1,-2.957172394E-1
1.214224946E1,-7.711428404E-1,8.076099753E-1,-1.326045990E-1
1.216014253E1,-8.772122860E-2,4.564873874E-1,3.279981613E-1
1.217803633E1,-1.232446671E0,6.725146770E-1,4.042434692E-2
1.219592940E1,-1.531470716E-1,8.120492101E-1,-9.827470779E-1
1.221382301E1,-4.001270235E-1,4.429627359E-1,-1.650438309E-1
1.223171626E1,-5.252864361E-1,9.375954270E-1,-3.620309830E-1
1.224960957E1,-4.105394185E-1,3.610415757E-1,7.966337204E-1
1.226750001E1,-8.580595255E-1,1.008498430E0,-1.772212982E-2
1.228539619E1,-1.270955443E0,4.692205489E-1,2.963638306E-2
1.230328944E1,-2.720833123E-1,1.115553617E0,-3.799982071E-1
1.232118306E1,-2.870418727E-1,7.348822951E-1,-5.536947250E-1
1.233907612E1,-9.097319245E-1,1.315088868E-1,-1.984596252E-2
1.235697383E1,-8.738236427E-1,7.056429386E-1,-7.925319672E-2
1.237486299E1,-1.066982448E-1,-1.524388790E-3,4.010944366E-1
1.239275917E1,-7.795028687E-1,1.314152837E0,-8.169240952E-1
1.241064961E1,-8.777840137E-1,5.053294897E-1,-2.308483124E-1
1.242853242E1,7.850444317E-2,9.925823808E-1,-2.334938049E-1
1.244643648E1,-9.599671364E-1,4.363063872E-1,2.920722961E-1
1.246432948E1,-9.459470510E-1,3.549416363E-1,2.197952271E-1
1.248222316E1,-1.241391301E-1,6.252705455E-1,-1.819925308E-1
1.250011665E1,-6.083067060E-1,-5.818605423E-3,6.605024338E-1
1.251800996E1,-1.013038278E0,7.733608484E-1,5.933485031E-1
1.253590297E1,-4.310303628E-1,6.238113642E-1,2.559871674E-1
1.255378438E1,-9.080628157E-1,8.853020072E-1,1.284627914E-1
1.257168983E1,-7.924789786E-1,1.372195482E-1,1.220046043E0
1.258958326E1,-6.354398727E-1,4.784875214E-1,4.873409271E-1
1.260747670E1,1.695126742E-1,7.944378257E-1,-4.154386520E-1
1.262536958E1,-7.562719584E-1,6.622702479E-1,8.345212936E-1
1.264326307E1,-2.335173786E-1,1.459218264E-1,1.608152390E0
1.266115651E1,-7.195683718E-1,4.789120555E-1,7.052001953E-1
1.267904970E1,-5.163379908E-1,7.886229157E-1,-1.055946350E-1
1.269694588E1,-5.602868795E-1,1.354454041E0,-5.913801193E-1
1.271483687E1,3.465469480E-1,1.467230201E0,-1.032155991E0
1.273272993E1,-1.411074758E0,-1.976906776E0,3.026500702E0
1.275062324E1,1.243559718E0,-7.494363189E-1,2.124886513E0
1.276851387E1,-1.140358806E0,1.158204079E0,-1.480239868E0
1.278641005E1,-1.367955089E0,2.926453829E0,-2.946263313E0
1.280430342E1,8.149070740E-1,-1.824995875E-1,8.501815796E-2
1.282219673E1,4.073154926E-2,-7.932238579E-1,4.691352844E-1
1.284009053E1,-1.419064045E0,7.495176792E-2,-6.376152039E-1
1.285798359E1,-1.180927157E-1,1.314553261E0,1.728434563E0
1.287587697E1,-3.269444704E-1,2.173239946E0,1.267338753E0
1.289377022E1,-9.880582094E-1,-3.022638559E-1,-1.149998665E0
1.291166328E1,1.401631236E0,5.751928687E-1,-1.447242737E0
1.292955690E1,-3.099278927E0,-4.731314182E-1,1.733121872E-1
1.294745015E1,-2.259102464E-2,4.498884380E-1,7.281494141E-2
1.296534376E1,1.982036680E-1,5.762718320E-1,-1.023963928E0
1.298323701E1,-1.387907028E0,-5.949592590E-2,-1.974449158E-1
1.300113014E1,-8.633448482E-1,1.299577713E0,-5.260734558E-1
1.301902333E1,-3.318874240E-1,8.441364765E-1,-6.115636826E-1
1.303692140E1,-9.414727688E-1,7.452702522E-1,-4.012441635E-1
1.305481025E1,-8.797405958E-1,3.497756720E-1,-1.752281189E-1
1.307269185E1,-5.516629219E-1,-3.988649249E-1,-2.933788300E-2
1.309059706E1,-8.798870444E-1,8.470466733E-1,-7.966709137E-1
1.310849324E1,-6.197135448E-1,1.020455360E0,-8.336200714E-1
1.312638344E1,-1.089390814E-1,4.571669102E-1,-1.103167534E0
1.314427705E1,-9.807024598E-1,2.311050892E-3,-1.979866028E-1
1.316215559E1,-6.364148855E-1,1.955070496E-1,-7.866945267E-1
1.318006392E1,-3.891885877E-1,4.073406160E-1,-5.354995728E-1
1.319795857E1,-9.095966816E-1,5.871388912E-1,3.114862442E-1
1.321585054E1,6.098651886E-2,9.230691195E-2,7.137174606E-1
1.323374385E1,-3.387238085E-1,1.104357839E-1,5.026493073E-1
1.325163716E1,-2.856766582E-1,7.265317440E-1,-7.141513824E-1
1.326951503E1,-9.569864869E-1,2.124779522E-1,1.293519020E0
1.328742384E1,7.078568935E-1,7.215567827E-1,2.305364609E-1
1.330531709E1,-1.272273064E0,-5.985074639E-1,2.754602432E-1
1.332321065E1,1.766739041E-1,6.959838271E-1,5.081748962E-1
1.334110396E1,3.797541559E-1,3.571510315E-1,1.423749924E0
1.335898530E1,-4.912314713E-1,9.077239633E-1,1.014097214E0
1.337689052E1,-9.874942899E-2,-2.466142178E-1,4.187984467E-1
1.339478364E1,-9.204646945E-1,1.530971825E-1,8.126935959E-1
1.341267720E1,4.858006239E-1,6.576347947E-1,-2.490148544E-1
1.343057051E1,-7.574920058E-1,-8.465731144E-2,5.380449295E-1
1.344846406E1,-8.861069679E-1,1.321372390E0,-4.713525772E-1
1.346635762E1,-5.433923006E-2,4.881143570E-2,1.193943024E-1
1.348425068E1,-3.164446652E-1,5.921588540E-1,-1.801013947E-1
1.350214424E1,-4.455302954E-1,1.711916924E-2,1.583356857E-1
1.352003730E1,-4.789224863E-1,7.744250894E-1,-8.651466370E-1
1.353793086E1,-7.472804785E-1,4.580174387E-1,-6.309661865E-1
1.355582411E1,-4.457836151E-1,3.960372806E-1,-2.461690903E-1
1.357372059E1,-8.421325684E-2,2.053714395E-1,-7.510604858E-1
1.359161073E1,-1.004206896E0,1.356021166E-1,-5.916013718E-1
1.360950734E1,-3.097816408E-1,1.260728359E0,-1.109248161E0
1.362739772E1,-2.189421654E-1,-2.398496866E-1,4.188137054E-1
1.364529085E1,-7.130447626E-1,1.825207770E-1,-2.506809235E-1
1.366318428E1,-1.051912904E0,8.432686329E-3,-9.322452545E-2
1.368107460E1,3.270484507E-1,6.406033635E-1,-4.664936066E-1
1.369895894E1,-3.924792111E-1,4.139887691E-1,2.348041534E-2
1.371686439E1,-1.027913690E0,4.783573747E-1,2.985105515E-1
1.373475801E1,-7.706245184E-1,4.437197745E-1,1.313066483E-1
1.375265114E1,-4.191829264E-1,-2.134668231E-1,6.045541763E-1
1.377053236E1,-3.460644484E-1,6.697863936E-1,1.852483749E-1
1.378843788E1,-4.761860371E-1,4.103326797E-1,7.792320251E-1
1.380633125E1,-1.073518872E0,6.350901723E-1,5.199432373E-1
1.382422432E1,-1.553710997E-1,1.019679308E-1,1.694164276E-1
1.384211787E1,-1.324089170E-1,5.456411839E-2,2.678337097E-1
1.386001112E1,-1.365368068E-1,3.127204180E-1,2.031707764E-2
1.387790468E1,-4.250332415E-1,5.578814149E-1,2.852401733E-1
1.389580098E1,-4.220045507E-1,6.098015904E-1,7.690944672E-1
1.391369136E1,-6.158307791E-1,6.832863092E-1,4.558925629E-1
1.393158467E1,-3.879375160E-1,1.129502356E-1,3.833990097E-1
1.394947804E1,-2.295698225E-1,1.314660311E-1,-8.812999725E-2
1.396737159E1,-6.007432938E-1,-6.041395664E-2,3.097505569E-1
1.398526466E1,-6.930397749E-1,1.694502831E-1,3.848485947E-1
1.400315816E1,-3.625760972E-1,3.586548567E-1,-5.003519058E-1
1.402105232E1,-2.802968919E-1,4.397302866E-2,-1.874351501E-1
1.403892988E1,5.576252937E-3,3.152893186E-1,1.206274033E-1
1.405682655E1,-6.474276185E-1,2.273189425E-1,1.999797821E-1
1.407472126E1,-3.315500617E-1,-8.837246895E-2,1.922426224E-1
1.409261378E1,6.806722283E-2,3.116599917E-1,-1.705465317E-1
1.411050679E1,-3.876488507E-1,3.537328541E-1,7.621765137E-2
1.412841188E1,-7.490761280E-1,6.634547710E-1,-4.990415573E-1
1.414630616E1,-5.294932127E-1,4.480069876E-2,5.395126343E-2
1.416419813E1,8.544230461E-2,2.815614343E-1,3.444595337E-1
1.418209053E1,-1.070126057E0,-2.962108850E-1,6.032648087E-1
1.419998482E1,5.590168238E-1,5.679792762E-1,-4.749946594E-1
1.421787831E1,-4.107131064E-1,4.579301476E-1,4.012775421E-2
1.423577492E1,-8.267511129E-1,-6.295114756E-2,7.635030746E-1
1.425366517E1,-1.707352698E-1,1.391382217E-1,6.193943024E-1
1.427154438E1,-1.174663663E0,6.062333584E-1,3.889150620E-1
1.428944044E1,-6.472816467E-1,3.685486317E-1,2.957248688E-2
1.430734517E1,-6.158075929E-1,2.852803469E-1,1.658391953E-1
1.432523842E1,1.209486425E-1,-5.180239677E-4,-7.874870300E-2
1.434313203E1,-7.731273174E-1,3.543213904E-1,5.003452301E-2
1.436102510E1,-7.098970413E-1,9.933324456E-1,-4.891633987E-1
1.437890663E1,4.701680541E-1,4.234005809E-1,-7.052230835E-1
1.439681495E1,-1.342024803E0,8.796290159E-1,-6.368293762E-1
1.441470515E1,-4.099407196E-1,6.187194586E-2,4.887580872E-2
1.443259480E1,1.208504140E-1,1.920281649E-1,-1.088616371E0
1.445049464E1,-3.870297074E-1,-2.123066783E-1,-2.855777740E-1
1.446838569E1,-9.369813800E-1,8.250811696E-1,-1.378277779E0
1.448627900E1,-4.562740624E-1,1.132269204E-1,-1.029314041E0
1.450417201E1,-4.920335114E-1,4.077495933E-1,-5.258684158E-1
1.452206550E1,-6.197282076E-1,-8.860737085E-2,-7.363271713E-1
1.453995869E1,-7.470628023E-1,2.843964100E-1,-3.328781128E-1
1.455785194E1,-3.045631051E-1,6.222631931E-1,-1.275739670E0
1.457574849E1,-1.145358086E0,2.475370765E-1,-3.488960266E-1
1.459363887E1,-4.835914969E-1,6.530302763E-1,-4.560022354E-1
1.461153212E1,-1.225244761E0,-3.596367240E-1,-6.581096649E-1
1.462942573E1,-1.987895966E-1,3.252079785E-1,-4.928617477E-1
1.464731929E1,-7.695708871E-1,2.272759676E-1,1.833276749E-1
1.466521235E1,-1.318168998E0,5.597117543E-1,4.746322632E-1
1.468310566E1,-8.714842796E-1,7.043540478E-1,-2.320585251E-1
1.470099922E1,-2.745464146E-1,-1.047636867E-1,-1.341314316E-1
1.471888032E1,-5.055994987E-1,-2.455550432E-1,1.433537483E0
1.473678578E1,-2.167375088E0,2.280437052E-1,1.326655388E0
1.475467946E1,4.370100498E-1,-3.807480931E-1,1.084937096E0
1.477257246E1,-1.138702035E0,6.115512252E-1,9.808082581E-1
1.479045411E1,-9.377119541E-1,-6.399178505E-2,1.324440002E0
1.480835896E1,-1.377843380E0,-1.426796913E-1,1.670767784E0
1.482625282E1,-4.343703389E-1,-1.603430510E-2,1.739538193E0
1.484414406E1,-1.203427076E0,1.345119357E0,4.928522110E-1
1.486203920E1,-1.995072842E0,9.856754541E-1,-3.286552429E-1
1.487993257E1,8.755000830E-1,1.254640818E-1,2.869478226E0
1.489782606E1,-4.064209938E0,1.111385226E0,1.903291702E0
1.491572224E1,-2.341632128E0,3.851464391E-1,-5.580186844E-1
1.493359578E1,-9.941720963E-2,1.016087055E0,-9.529943466E-1
1.495150630E1,4.371753335E-1,3.530913591E-1,-1.597811699E0
1.496939650E1,-1.098706484E0,-4.362723827E-1,-1.948807716E0
1.498729322E1,-1.801620007E0,7.866169214E-1,-1.641549110E0
1.500518654E1,2.874053717E-1,1.241522789E0,-1.450414658E0
1.502307972E1,-2.094960213E-2,3.772735596E-1,-1.044731140E0
1.504097310E1,-1.771442056E0,-4.589049220E-1,-1.050039291E0
1.505885463E1,-2.026847601E-1,-1.679649949E-1,1.569175720E-2
1.507675673E1,-7.321792841E-1,7.028905153E-1,1.627588272E-1
1.509465333E1,-1.977734089E0,5.721205473E-1,4.963464737E-1
1.511254658E1,-1.174930334E0,6.390208006E-2,-3.243560791E-1
1.513042824E1,-1.176927090E0,-3.069089651E-1,-2.854385376E-1
1.514833345E1,-1.158984303E0,5.907941461E-1,-3.330612183E-1
1.516622651E1,-1.207037926E0,2.184789479E-1,1.968631744E-1
1.518411970E1,-1.700974226E0,4.221344590E-1,6.373300552E-1
1.520201362E1,-9.421543479E-1,-2.432698607E-1,6.403617859E-1
1.521990639E1,-1.344408751E0,-1.135751903E-1,1.319649696E0
1.523780024E1,-1.553884268E0,3.640110791E-1,7.380590439E-1
1.525569642E1,-1.234347463E0,-4.868072271E-2,9.571151733E-1
1.527357509E1,-1.067708492E0,3.791784048E-1,5.671777725E-1
1.529148030E1,-1.130170584E0,-3.774452209E-2,7.385187149E-1
1.530937349E1,-8.527939320E-1,2.985031009E-1,5.441770554E-1
1.532726710E1,-1.366765976E0,3.580954671E-1,8.520669937E-1
1.534514882E1,-8.155294061E-1,2.917546034E-2,7.556552887E-1
1.536305360E1,-1.137353778E0,1.129778028E-1,3.283205032E-1
1.538094716E1,-1.281775475E0,4.308410883E-1,1.547441483E-1
1.539883369E1,-7.299436331E-1,2.011534274E-1,2.824840546E-1
1.541671895E1,-1.159380913E0,3.422513008E-1,-3.884506226E-2
1.543462709E1,-1.155013084E0,8.306288719E-2,6.211185455E-2
1.545251765E1,-1.090631127E0,1.602095366E-1,-2.473344803E-1
1.547040181E1,-9.630172849E-1,8.775365353E-2,-3.111925125E-1
1.548830757E1,-1.135306358E0,4.666158259E-1,-9.351854324E-1
1.550620088E1,-6.854559779E-1,-3.548142314E-2,-5.358810425E-1
1.552409401E1,-1.322386980E0,1.808718443E-1,-7.922649384E-2
1.554198750E1,-9.895810485E-1,-2.951554358E-1,-2.780246735E-1
1.555988063E1,-7.227715254E-1,-1.268660724E-1,-5.950450897E-1
1.557775972E1,-8.937916756E-1,2.873345315E-1,-6.207408905E-1
1.559565895E1,-1.192144632E0,-1.180598140E-2,1.574382782E-1
1.561356123E1,-8.542816639E-1,1.512393057E-1,-1.098766327E-1
1.563145430E1,-1.157514572E0,-2.164631486E-1,2.784042358E-1
1.564934785E1,-1.079026103E0,1.407488286E-1,1.422863007E-1
1.566724122E1,-1.287932992E0,-1.156211197E-1,1.685228348E-1
1.568513179E1,-2.374463081E-1,-9.024700522E-2,4.448213577E-1
1.570302803E1,-1.250215411E0,-1.485204697E-1,9.548435211E-1
1.572092158E1,-1.715912580E0,2.934111059E-1,1.290531158E-1
1.573880238E1,-7.011020780E-1,-3.961299956E-1,4.424886703E-1
1.575670534E1,-7.584764361E-1,3.567687869E-1,1.393995285E-1
1.577459950E1,-1.756806850E0,-2.311102152E-1,7.229309082E-1
1.579249190E1,-1.276803017E0,1.032861769E-1,8.225393295E-1
1.581037916E1,-6.647319794E-1,-2.749100327E-2,5.647287369E-1
1.582828169E1,-1.217303991E0,-4.334005713E-2,2.686014175E-1
1.584617476E1,-1.006795883E0,-4.274998605E-1,7.466402054E-1
1.586406831E1,-1.130098581E0,4.470255971E-2,3.043565750E-1
1.588196193E1,-1.228687882E0,-3.003645241E-1,1.140699387E-1
1.589985182E1,-1.241113424E0,-1.873205900E-1,2.087469101E-1
1.591774849E1,-1.178161860E0,1.609495580E-1,-3.396863937E-1
1.593564497E1,-4.319925904E-1,-3.363277018E-1,2.852916718E-1
1.595353529E1,-1.265592217E0,-1.265177727E-1,8.483314514E-2
1.597142866E1,-1.039030075E0,-3.592514694E-1,-2.545976639E-1
1.598932203E1,-6.985836625E-1,1.225256622E-1,-5.894575119E-1
1.600721534E1,-1.007110476E0,-3.429666162E-2,-9.692678452E-1
1.602510859E1,-1.129979491E0,3.394195437E-2,-6.406269073E-1
1.604300233E1,-7.555556893E-1,-1.050721109E-1,-3.444890976E-1
1.606089570E1,-7.923323512E-1,-5.333869457E-1,-6.479196548E-1
1.607878639E1,-9.988949895E-1,-1.267445982E-1,-1.047795296E0
1.609666786E1,-6.347949505E-1,-1.849582791E-2,-7.191390991E-1
1.611457594E1,-1.016740322E0,-1.699786186E-1,-2.365026474E-1
1.613246919E1,-7.848458886E-1,4.634374380E-2,-9.928770065E-1
1.615035450E1,-1.072037220E0,-1.418899000E-1,-8.373050690E-1
1.616825331E1,-5.739908218E-1,1.796322167E-1,-9.512348175E-1
1.618614930E1,-4.187775254E-1,-5.411571264E-1,-2.187490463E-1
1.620404268E1,-8.542129397E-1,-4.760828912E-1,-1.920146942E-1
1.622193605E1,-1.386421919E0,-3.541671932E-1,-1.744976044E-1
1.623982930E1,-5.927374363E-1,1.469408572E-1,-4.809656143E-1
1.625771834E1,-7.370859981E-1,1.262947619E-1,-4.893226624E-1
1.627561915E1,-1.316955090E0,-4.907259345E-2,-1.000137329E-1
1.629350972E1,-8.745405078E-1,-2.809328139E-1,-6.363582611E-2
1.631140278E1,-7.846176624E-1,-5.682574511E-1,3.328514099E-1
1.632929341E1,-7.050419450E-1,-5.985349417E-3,-1.715669632E-1
1.634718544E1,-8.429905176E-1,-2.228696346E-1,2.380752563E-2
1.636508320E1,-5.333496332E-1,1.492434442E-1,2.061939240E-2
1.638297676E1,-8.701503277E-1,6.625652313E-2,2.157907486E-1
1.640087007E1,-5.922610164E-1,-2.911165357E-2,2.843742371E-1
1.641876332E1,-5.078034997E-1,-4.497951567E-1,4.267587662E-1
1.643665468E1,-5.899727941E-1,-1.447504759E-1,4.930105209E-1
1.645455012E1,-8.377985954E-1,-3.085251749E-1,2.635583878E-1
1.647244349E1,-7.509636879E-1,-4.710314274E-1,1.808443069E-1
1.649032734E1,-5.589378476E-1,8.210924268E-2,-1.195144653E-2
1.650822749E1,-3.304082751E-1,-2.815915048E-1,4.361820221E-2
1.652612398E1,-4.431167245E-1,-5.259509087E-1,3.589105606E-1
1.654401704E1,-1.317257881E-1,-2.336754799E-1,3.077507019E-1
1.656191078E1,-4.971225262E-1,-1.817605793E-1,-2.126808167E-1
1.657980415E1,-8.101418614E-1,1.533350348E-1,-2.351675034E-1
1.659768550E1,2.379733920E-1,-2.054132223E-1,-3.119544983E-1
1.661559382E1,-1.038647294E0,-3.402737379E-1,-1.532249451E-1
1.663348030E1,-4.280521870E-1,-1.113936305E-2,-3.992118835E-1
1.665137739E1,-3.314008117E-1,-1.455000937E-1,-5.908880234E-1
1.666927101E1,-7.180768251E-1,-4.205527902E-2,-4.622392654E-1
1.668716780E1,-2.047311068E-1,-1.317528486E-1,-4.840459824E-1
1.670505787E1,-6.210626364E-1,-5.381188393E-1,-4.992599487E-1
1.672295100E1,-3.862642646E-1,-1.877793968E-1,-5.328903198E-1
1.674084468E1,-6.201143861E-1,-7.010531425E-2,-7.389211655E-1
1.675872511E1,-9.970981479E-1,-8.758229017E-2,-2.051639557E-1
1.677662849E1,-7.678360343E-1,-1.938560605E-1,-4.678077698E-1
1.679452492E1,-4.328457713E-1,-3.886744082E-1,1.546096802E-2
1.681241841E1,-7.201502323E-1,-1.121958494E-1,-8.147907257E-2
1.683029872E1,-9.452254772E-1,-3.619551361E-1,2.660770416E-1
1.684820289E1,-3.780257106E-1,-3.145002723E-1,1.624593735E-1
1.686609852E1,-1.087230206E0,-4.953835607E-1,2.263603210E-1
1.688399775E1,-1.057751417E0,-3.371257782E-1,2.468395233E-1
1.690188521E1,-3.810407519E-1,-9.296101332E-2,3.717880249E-1
1.691977852E1,-1.068404913E0,-6.155976653E-2,7.512197495E-1
1.693767207E1,-1.459359646E0,-1.699551940E-1,8.273735046E-1
1.695556556E1,-7.327873111E-1,-1.844533086E-1,4.336633682E-1
1.697346242E1,-8.288205266E-1,-2.263540328E-1,3.054161072E-1
1.699135225E1,-1.233949304E0,-2.579670548E-1,3.462047577E-1
1.700924287E1,-8.053903580E-1,-2.629710734E-1,3.996200562E-1
1.702713911E1,-8.997048140E-1,-2.558926046E-1,6.386232376E-1
1.704503242E1,-9.194810987E-1,1.023538411E-1,5.517005920E-1
1.706292598E1,-3.971520066E-1,2.369910479E-3,1.284332275E-1
1.708082216E1,-1.162488222E0,-2.334222794E-1,5.406923294E-1
1.709871583E1,-6.675284505E-1,-3.193109930E-1,8.837375641E-1
1.711660365E1,-9.151403904E-1,-5.117001534E-1,3.422069550E-2
1.713450435E1,-9.269171953E-1,-4.542470872E-1,5.381355286E-1
1.715239271E1,-8.921024799E-1,-2.008408308E-3,-1.840286255E-1
1.717027412E1,-5.783074498E-1,-2.218358815E-1,-1.056280136E-1
1.718817701E1,-1.055436373E0,-1.999470890E-1,4.036684036E-1
1.720607319E1,-9.154132605E-1,-3.128455579E-1,1.155385971E-1
1.722396650E1,-2.956082225E-1,-3.103932738E-1,-4.318237305E-2
1.724186006E1,-1.024822116E0,-9.527337551E-2,-5.256528854E-1
1.725975123E1,-5.319591761E-1,-6.732014418E-1,-7.672500610E-2
1.727764692E1,-9.165691137E-1,-2.119067609E-1,-2.152519226E-1
1.729552906E1,-7.353389859E-1,-5.814076662E-1,4.138946533E-2
1.731342268E1,-5.573046803E-1,-1.074950099E-1,-5.577564240E-2
1.733131605E1,-9.185593128E-1,7.965940237E-2,-2.939682007E-1
1.734920961E1,-8.995288610E-1,-1.376395822E-1,2.345886230E-1
1.736711403E1,-8.607519865E-1,-4.049874246E-1,2.017641068E-1
1.738500722E1,-5.112526417E-1,-7.854375839E-1,-7.923889160E-2
1.740290077E1,-1.137761950E0,-3.480119109E-1,3.324317932E-2
1.742079304E1,-4.759405255E-1,-2.283200324E-1,4.213142395E-1
1.743868745E1,-1.114556789E0,-1.692353189E-1,1.659440994E-1
1.745657771E1,-1.130115271E0,-2.648326755E-1,3.610572815E-1
1.747447450E1,-4.530394673E-1,1.141810417E-2,-4.562377930E-3
1.749236787E1,-1.293729544E0,7.155764103E-2,-9.798049927E-3
1.751024220E1,-1.197637320E0,-2.406158447E-1,3.583564758E-1
1.752815205E1,-6.876438260E-1,-3.058737218E-1,9.702682495E-3
1.754604713E1,-5.641644001E-1,-8.330299854E-1,1.960096359E-1
1.756394130E1,-1.154832363E0,2.391622961E-1,-1.080135345E0
1.758183784E1,-8.792229295E-1,-1.205536425E-1,-2.273159027E-1
1.759973085E1,-5.930339098E-1,2.323221713E-1,-1.158533096E-1
1.761762178E1,-1.224311352E0,-4.196985960E-1,4.821138382E-1
1.763551686E1,-9.568667412E-1,-3.357690573E-2,-4.840669632E-1
1.765340864E1,-8.512105346E-1,-3.682609499E-1,-4.175100327E-1
1.767130195E1,-9.729537368E-1,1.975717992E-1,-3.507671356E-1
1.768919551E1,-7.537924051E-1,-8.456758261E-1,-3.697671890E-1
1.770708882E1,-3.986511827E-1,-3.711461127E-1,-3.302087784E-1
1.772498207E1,-1.611637354E0,1.551860869E-1,-7.843494415E-1
1.774287593E1,-7.328852415E-1,-2.689896524E-1,-2.205228806E-1
1.776076899E1,-6.550843716E-1,-1.105033457E-1,-4.545888901E-1
1.777866249E1,-9.599965811E-1,-2.838535905E-1,-6.239786148E-1
1.779655629E1,-1.438313603E0,-3.217261136E-1,-2.329463959E-1
1.781444917E1,-4.907785058E-1,-1.737049222E-1,-7.988824844E-1
1.783234272E1,-4.815595150E-1,1.255088151E-1,-5.852279663E-1
1.785023848E1,-9.795675278E-1,-6.763822436E-1,-2.467155457E-2
1.786812721E1,-8.269386292E-1,-4.955118895E-1,-1.046266556E-1
1.788602290E1,-8.576098680E-1,-8.425819874E-2,-3.952789307E-1
1.790391621E1,-8.169605136E-1,-1.676372290E-1,-2.664909363E-1
1.792180977E1,-1.016746998E0,-3.749068677E-1,1.222181320E-1
1.793970289E1,-5.575633049E-1,-3.341531157E-1,-3.108596802E-2
1.795759663E1,-8.342552185E-1,-7.926381230E-1,3.533143997E-1
1.797549312E1,-1.182711124E0,-3.977886140E-1,-8.345794678E-2
1.799338325E1,-4.814259410E-1,-6.547918320E-1,2.827215195E-1
1.801126387E1,-3.917592764E-1,1.717786342E-1,6.303596497E-2
1.802917042E1,-1.468105197E0,-2.468897402E-1,6.222438812E-2
1.804706465E1,-8.829078674E-1,-3.745296299E-1,3.627195358E-1
1.806495741E1,-7.144448161E-1,-1.665306687E-1,-1.316070557E-3
1.808285042E1,-7.752641439E-1,-6.389117241E-1,3.542385101E-1
1.810074684E1,-1.291044593E0,-4.903647602E-1,3.530550003E-1
1.811863734E1,-1.400152445E-1,-5.233039856E-1,1.684389114E-1
1.813653071E1,-8.292588592E-1,3.470513225E-2,1.756238937E-1
1.815442427E1,-1.142864466E0,-5.829876661E-2,-1.928100586E-1
1.817231752E1,-2.566235662E-1,-5.363631248E-1,1.330118179E-1
1.819020674E1,-7.231609821E-1,-1.445309818E-1,4.746856689E-1
1.820810158E1,-1.022913218E0,-6.199122667E-1,8.381996155E-1
1.822599800E1,-6.271685958E-1,-1.281536520E-1,-3.693780899E-1
1.824389131E1,-1.191105366E0,-3.219574690E-1,6.151618958E-1
1.826178438E1,2.236390710E-1,-4.725098610E-2,-2.533311844E-1
1.827967817E1,-1.017620921E0,-1.992015839E-1,-9.954309464E-1
1.829757136E1,-9.553804994E-1,-2.108097374E-1,1.460161209E-1
1.831546504E1,-3.002023697E-1,-2.901283205E-1,1.139974594E-1
1.833336165E1,-1.586018324E0,-1.335722208E-1,-9.334068298E-1
1.835125203E1,-4.963566065E-1,4.286375642E-1,-1.205999374E0
1.836914522E1,3.973114491E-2,-4.742084742E-1,-8.110618591E-1
1.838703883E1,-1.449229002E0,1.303216815E-1,-1.647108078E0
1.840492091E1,-4.756366611E-1,-1.423314571E0,-8.717412949E-1
1.842282533E1,-3.104136586E-1,-5.069628954E-1,-6.262817383E-1
1.844071895E1,-1.012473345E0,1.662876308E-1,-1.172909737E0
1.845861250E1,-7.219322324E-1,-5.310836434E-2,-9.402341843E-1
1.847649391E1,-4.374317527E-1,-5.836105943E-1,-4.388551712E-1
1.849439912E1,-9.459845424E-1,-5.802640319E-1,-1.852321625E-2
1.851229268E1,-1.176205754E0,-2.189297974E-1,4.856777191E-2
1.853018770E1,-8.698288202E-1,-9.401433468E-1,7.484502792E-1
1.854807655E1,-9.270436764E-1,-2.871294320E-1,4.824190140E-1
1.856597297E1,-8.693225384E-1,-7.339764833E-1,7.478485107E-1
1.858386616E1,-9.599887133E-1,-5.119522810E-1,9.533662796E-1
1.860175972E1,-1.058356643E0,-3.243730366E-1,9.748659134E-1
1.861965297E1,-1.176083565E0,-2.339004576E-1,1.082197189E0
1.863754683E1,-1.013445497E0,-3.813481629E-1,1.347894669E0
1.865544008E1,-1.580072880E0,-2.141677737E-1,1.620798111E0
1.867333345E1,-6.680870652E-1,1.033320725E-1,7.883586884E-1
1.869122682E1,-9.973677993E-1,-3.030540943E-1,6.367301941E-1
1.870912062E1,-7.673921585E-1,-1.173400879E-1,7.801580429E-1
1.872701368E1,-8.106642365E-1,-2.803817689E-1,4.756479263E-1
1.874490645E1,-6.843186617E-1,-4.010180235E-1,1.554374695E-1
1.876280049E1,-6.261184812E-1,1.824556887E-1,1.644344330E-1
1.878069374E1,-8.155369163E-1,8.419194818E-2,-2.776470184E-1
1.879858729E1,-1.040477991E0,-1.443882883E-1,-2.757949829E-1
1.881648085E1,-3.379273415E-1,-1.942328215E-1,-4.688272476E-1
1.883437416E1,-1.055199146E0,-1.548310816E-1,-5.433864594E-1
1.885226478E1,1.545965672E-3,-5.706290007E-1,-5.879669189E-1
1.887016114E1,-6.495195627E-1,-4.016149938E-1,-1.026233673E0
1.888805159E1,-7.656338215E-1,1.413387656E-1,-1.461452484E0
1.890594795E1,-4.286449552E-1,-4.195672572E-1,-8.818397522E-1
1.892383394E1,-4.975907207E-1,2.019986510E-2,-6.382608414E-1
1.894172285E1,-1.265674949E0,-2.713608146E-1,-7.847709656E-1
1.895962782E1,-7.589069605E-1,-3.990004063E-1,-6.444826126E-1
1.897752168E1,-1.613139510E-1,-4.063104093E-1,-6.815452576E-1
1.899541475E1,-9.789760709E-1,-6.199395657E-1,-1.017471313E0
1.901330854E1,-1.708914042E-1,-8.639107943E-1,-6.931180954E-1
1.903120186E1,-3.856650591E-1,-5.401054621E-1,-4.670181274E-1
1.904908326E1,-1.262229323E0,-6.241511106E-1,2.525558472E-1
1.906698579E1,-6.644024253E-1,-6.526005864E-1,-3.361139297E-1
1.908487916E1,-1.048456907E0,-6.312841773E-1,-3.422737122E-2
1.910277559E1,-7.616723776E-1,-6.184648275E-1,1.768407822E-1
1.912066902E1,-1.124782443E0,-8.469163179E-1,5.289363861E-2
1.913856245E1,-4.420282245E-1,-8.801733255E-1,1.898765564E-3
1.915645570E1,-6.534526348E-1,-9.632675052E-1,3.303518295E-1
1.917434932E1,-1.000257134E0,-8.621691465E-1,1.148033142E-1
1.919224269E1,-4.987808466E-1,-4.160669148E-1,1.820955276E-1
1.921013612E1,-1.187975645E0,-7.365949154E-1,2.847766876E-1
1.922802614E1,-1.098396540E0,-7.104017138E-1,2.612476349E-1
1.924592280E1,-8.607879877E-1,-5.240266323E-1,-2.494812012E-2
1.926381654E1,-7.850694656E-1,-9.345033169E-1,7.699966431E-3
1.928170961E1,-1.083237648E0,-8.115832806E-1,-3.011198044E-1
1.929960298E1,-4.587916136E-1,-1.027759194E0,-5.437850952E-3
1.931749678E1,-6.257517338E-1,-9.350364804E-1,1.599607468E-1
1.933538673E1,-7.916592956E-1,-9.658571482E-1,1.306447983E-1
1.935328340E1,-5.175412893E-1,-8.316004276E-1,1.047143936E-1
1.937117665E1,-8.926792741E-1,-6.866406202E-1,-9.723663330E-3
1.938905830E1,-7.325838208E-1,-7.266423702E-1,4.722499847E-2
1.940696364E1,-1.114276409E0,-6.763621569E-1,-2.188968658E-2
1.942485982E1,-4.580736160E-1,-1.133180976E0,-8.355712891E-2
1.944275044E1,-7.007190585E-1,-1.115850687E0,2.422895432E-1
1.946064375E1,-6.142349839E-1,-1.282322168E0,4.071331024E-2
1.947853730E1,-5.935136080E-1,-1.063262463E0,2.020082474E-1
1.949643080E1,-6.371226311E-1,-9.119215608E-1,2.571477890E-1
1.951432429E1,-3.589187264E-1,-8.506127596E-1,6.610012054E-2
1.953221773E1,-1.063607335E0,-5.701761842E-1,3.708648682E-2
1.955011110E1,-8.152644634E-1,-9.535855055E-1,7.731151581E-2
1.956800166E1,-1.042285323E0,-9.595845938E-1,-1.686763763E-1
1.958588325E1,-5.316296816E-1,-1.046246648E0,6.791591644E-2
1.960379121E1,-4.726345539E-1,-1.373884320E0,1.075839996E-2
1.962168477E1,-9.208704233E-1,-1.010469913E0,-1.510248184E-1
1.963957808E1,-4.869835377E-1,-7.106952071E-1,-5.124502182E-1
1.965747163E1,-5.062626600E-1,-1.037539601E0,1.298255920E-1
1.967536720E1,-6.317023039E-1,-1.056973696E0,-3.329668045E-1
1.969325856E1,-1.528028607E0,-6.546580791E-1,6.861400604E-2
1.971114992E1,-2.340654135E-1,-8.558577299E-1,-9.481430054E-2
1.972903334E1,-7.670336962E-1,-1.209397554E0,-3.632030487E-1
1.974693873E1,-9.698325396E-1,-7.673680782E-1,-3.711843491E-1
1.976483204E1,2.588526011E-1,-1.509156823E0,-7.078552246E-2
1.978272548E1,-1.537826180E0,-1.200631618E0,2.651920319E-1
1.980062208E1,-4.358867407E-1,-6.214510798E-1,-3.971481323E-1
1.981851210E1,-5.323510170E-1,-6.916693449E-1,-5.547142029E-2
1.983639351E1,-7.958331108E-1,-1.020575285E0,-1.922149658E-1
1.985429921E1,-8.461253643E-1,-1.116249681E0,-2.948637009E-1
1.987219264E1,-6.769895554E-1,-1.238039017E0,1.263504028E-1
1.989008626E1,-7.061522007E-1,-1.096235037E0,-1.591587067E-1
1.990797700E1,-7.397139072E-1,-1.133901596E0,2.965364456E-1
1.992587275E1,-4.813398123E-1,-8.024379611E-1,8.080101013E-2
1.994376631E1,-1.081151247E0,-7.743118405E-1,-2.489356995E-1
1.996164766E1,-6.279239655E-1,-5.728853941E-1,-3.122749329E-1
1.997955293E1,-4.735608101E-1,-1.214787722E0,-4.837512970E-2
1.999744673E1,-6.697962284E-1,-1.129000425E0,1.663236618E-1
2.001534004E1,-8.184945583E-1,-1.243710041E0,-1.410093307E-1
2.003323359E1,-4.936454296E-1,-1.216680050E0,-6.072397232E-1
2.005112990E1,-1.627092361E-1,-8.662405014E-1,-5.038976669E-1
2.006900508E1,-4.792851210E-1,-8.497909307E-1,-4.746742249E-1
2.008689912E1,-8.719146252E-1,-1.472072959E0,-1.103286743E-1
2.010480714E1,-7.704350948E-1,-7.126904726E-1,-3.550443649E-1
2.012270064E1,4.698622227E-2,-9.692415595E-1,-3.686447144E-1
2.014059388E1,-8.689274788E-1,-9.868385792E-1,-6.074380875E-1
2.015848750E1,-9.824056625E-1,-9.361677766E-1,-1.891489029E-1
2.017636622E1,-6.842601299E-2,-1.083191514E0,-7.605352402E-1
2.019427736E1,-1.273579597E0,-6.816356778E-1,-4.641132355E-1
2.021215565E1,-6.814892292E-1,-6.559410095E-1,-4.882287979E-1
2.023006099E1,-1.702425480E-1,-9.026870728E-1,-3.041706085E-1
2.024795460E1,-6.805161238E-1,-8.105580807E-1,1.856803894E-3
2.026584810E1,-5.395985842E-1,-9.059173465E-1,3.850364685E-2
2.028374135E1,-1.070309520E0,-7.503688335E-1,-2.441406250E-4
2.030163496E1,-4.654661417E-1,-8.254742026E-1,-1.659488678E-1
2.031952803E1,-7.582231760E-1,-8.849141598E-1,-2.281074524E-1
2.033742134E1,-5.465070009E-1,-9.482510090E-1,1.184329987E-1
2.035531508E1,-5.518134832E-1,-7.445132732E-1,1.128864288E-1
2.037320869E1,-6.388913393E-1,-1.252900481E0,1.763229370E-1
2.039110200E1,-1.217536688E0,-8.828351498E-1,2.983016968E-1
2.040898488E1,-6.335227489E-1,-8.066092730E-1,3.982686996E-1
2.042688978E1,-4.392021894E-1,-6.981678605E-1,-2.036104202E-1
2.044478218E1,-1.225653052E0,-7.475504875E-1,7.031917572E-2
2.046267549E1,-4.150284529E-1,-8.820208311E-1,5.017242432E-1
2.048056807E1,-5.901428461E-1,-5.037441850E-1,1.349601746E-1
2.049845772E1,-1.061699510E0,-7.663230300E-1,7.884883881E-2
2.051634150E1,-4.140076637E-1,-9.158616066E-1,3.034963608E-1
2.053423744E1,-6.285905838E-1,-9.402878881E-1,-3.373718262E-1
2.055213655E1,-7.741419077E-1,-8.246999383E-1,-1.262483597E-1
2.057002455E1,-6.111447811E-1,-4.824650884E-1,-1.890144348E-1
2.058791560E1,-3.126282692E-1,-8.348732591E-1,-1.773090363E-1
2.060582319E1,-8.992673159E-1,-6.128122807E-1,1.204586029E-2
2.062371650E1,-4.395114183E-1,-1.076224089E0,-2.028751373E-1
2.064160982E1,-4.034628868E-1,-8.611519933E-1,-1.878051758E-1
2.065950319E1,-8.174700737E-1,-4.585064054E-1,-1.718053818E-1
2.067739662E1,-1.812785864E-1,-8.858347535E-1,-1.932420731E-1
2.069529030E1,-1.196302533E0,-7.020003200E-1,-1.116800308E-1
2.071318348E1,-5.824033022E-1,-7.341703773E-1,-5.615806580E-1
2.073107680E1,-5.212652683E-1,-6.886947751E-1,-4.828605652E-1
2.074895839E1,-8.013985157E-1,-6.515623927E-1,-1.828527451E-1
2.076686537E1,-6.163499355E-1,-6.409758925E-1,-3.018779755E-1
2.078475703E1,-6.975685358E-1,-1.101469278E0,-1.797428131E-1
2.080265089E1,-3.893346786E-1,-5.693153143E-1,-2.486028671E-1
2.082054390E1,-9.583438635E-1,-4.869854450E-1,-2.989988327E-1
2.083843745E1,-3.738614321E-1,-5.907374024E-1,-3.408946991E-1
2.085633094E1,-9.684116840E-1,-7.251768708E-1,-3.462419510E-1
2.087422444E1,-4.186198711E-1,-1.092384934E0,-2.967195511E-1
2.089211757E1,-4.170328379E-1,-7.157092094E-1,-3.639316559E-1
2.091001124E1,-1.028749585E0,-7.580123544E-1,2.424812317E-1
2.092790449E1,-4.110405445E-1,-7.507039905E-1,-4.210910797E-1
2.094579805E1,-7.021089792E-1,-4.965764284E-1,-6.513605118E-1
2.096368806E1,-7.666600943E-1,-5.864316821E-1,-9.187221527E-2
2.098158491E1,-1.049880743E0,-7.119355798E-1,-4.010934830E-1
2.099947816E1,-7.392618656E-1,-1.107101083E0,-7.011985779E-2
2.101737153E1,-6.883939505E-1,-6.818781495E-1,-3.004741669E-1
2.103526216E1,-3.544373512E-1,-1.015535593E0,-3.555707932E-1
2.105315858E1,-6.225807667E-1,-4.033892751E-1,-3.996095657E-1
2.107104036E1,-8.870650530E-1,-7.386636734E-1,4.414768219E-1
2.108893648E1,-6.267071962E-1,-3.361244202E-1,-4.409303665E-1
2.110683644E1,-5.665185452E-1,-5.475367904E-1,-3.298730850E-1
2.112473213E1,-4.291887283E-1,-4.814273119E-1,-4.496669769E-2
2.114262562E1,-8.968844414E-1,-8.239405751E-1,-2.982482910E-1
2.116051899E1,-5.759553909E-1,-1.046133995E0,2.291746140E-1
2.117841249E1,1.592171192E-1,-3.517504334E-1,-7.147808075E-1
2.119630586E1,-2.309691906E-1,-4.619051218E-1,-4.115200043E-1
2.121419935E1,-3.235656023E-1,-6.086422801E-1,-6.449298859E-1
2.123209657E1,-1.907092333E-1,-1.069585085E0,-4.145374298E-1
2.124998634E1,-5.648264885E-1,-1.222841382E0,8.140935898E-1
2.126787929E1,-1.296700239E-1,-8.992084861E-1,-2.466478348E-1
2.128577296E1,2.572710514E-1,-1.014085412E-1,-1.671586037E0
2.130365480E1,-6.502556801E-1,-1.142025113E0,-1.245384216E-1
2.132156001E1,-2.276923895E0,-1.709226131E0,1.459815979E0
2.133945332E1,-7.724496126E-1,-8.586134911E-1,5.233526230E-1
2.135734688E1,-1.272428036E-2,-1.607293487E0,1.653967857E0
2.137524019E1,-8.172260523E-1,-3.548812270E-1,1.526659966E0
2.139313344E1,-1.110704422E0,-8.578134179E-1,9.470586777E-1
2.141102681E1,-2.250455141E0,-2.698310375E0,1.158456802E0
2.142890840E1,1.062790513E0,-1.546301365E0,2.824329376E0
2.144681099E1,-7.014305592E-1,9.766677022E-2,3.807663918E0
2.146470717E1,-3.076353550E0,-1.257078409E0,2.551872253E0
2.148260054E1,1.004996181E0,-7.340027690E-1,1.737499237E0
2.150049141E1,1.606527925E0,-4.708521366E-1,1.940581322E0
2.151838765E1,-1.907642603E0,-4.982805848E-1,2.173338890E0
2.153628090E1,-9.940719008E-1,3.471113741E-1,1.413160324E0
2.155417451E1,2.184443951E0,-6.793777943E-1,7.483892441E-1
2.157207051E1,-8.862443566E-1,2.659615278E-1,-3.171148300E-1
2.158996345E1,-2.472601533E-1,-1.144588590E0,-1.253069878E0
2.160785475E1,1.368761778E0,-1.183841467E0,-1.777625084E0
2.162574800E1,-1.203568220E0,-1.764662266E-1,-1.611113548E0
2.164363826E1,-7.475348711E-1,-1.006171942E0,-1.323186874E0
2.166153511E1,4.854967594E-1,-1.008405805E0,-1.270628929E0
2.167942817E1,-6.651523113E-1,-7.978276610E-1,-2.099742889E0
2.169732173E1,-2.896713018E-1,-5.168763995E-1,-1.880436897E0
2.171521534E1,7.978534698E-1,-1.076224327E0,-1.730759621E0
2.173310859E1,-1.039061666E0,-6.978170276E-1,-1.825678825E0
2.175100184E1,-4.293367863E-1,-9.780176282E-1,-1.478229523E0
2.176888356E1,3.643854856E-1,-1.534938693E0,-4.634494781E-1
2.178678614E1,-2.290730476E-1,-4.762424231E-1,-1.703381538E0
2.180468232E1,-1.020914793E0,-7.537544966E-1,-1.754722118E0
2.182257582E1,1.096328616E0,-8.045854568E-1,-7.298593521E-1
2.184046913E1,-2.657208443E-1,-1.697087526E0,-3.053436279E-1
2.185836268E1,-1.148544669E0,-8.907014132E-1,-3.003482819E-1
2.187625606E1,9.323090315E-2,-6.788904071E-1,-1.126621246E0
2.189414961E1,-4.723974466E-1,-8.485116363E-1,-7.010011673E-1
2.191203999E1,-6.588419676E-1,-4.040761590E-1,1.319236755E-1
2.192993623E1,-7.959085703E-1,-8.364081383E-1,-5.465507507E-2
2.194782978E1,-5.684124231E-1,-1.172616720E0,-2.004184723E-1
2.196572304E1,-1.472467184E-1,-9.121356606E-1,2.715330124E-1
2.198361671E1,-1.854370832E-1,-1.180297136E0,2.989740372E-1
2.200149513E1,-3.604400158E-2,-1.147066355E0,5.290603638E-2
2.201940327E1,-1.376357794E0,-1.142520785E0,7.581367493E-1
2.203729823E1,2.498090744E0,1.414468288E-1,-1.566068649E0
2.205519020E1,-1.397236943E0,-1.491995931E0,-3.071870804E-1
2.207308662E1,8.944344521E-1,-6.943578720E-1,-6.375617981E-1
2.209097975E1,-1.970647573E0,-6.387184262E-1,1.615885735E0
2.210885835E1,-1.572372198E0,-1.581552744E0,1.913484573E0
2.212676143E1,1.277692556E0,-1.452893019E0,1.273260117E0
2.214465712E1,-1.730069399E0,-9.336024523E-2,-1.102688789E0
2.216255073E1,2.104001999E0,-3.941797495E0,6.939868927E-1
2.218044429E1,-4.175638676E0,-6.540700197E-1,1.937602043E0
2.219833772E1,2.701009274E0,-1.576660275E0,1.249098778E0
2.221623115E1,-2.027947187E0,-1.410223246E0,2.451231956E0
2.223412446E1,4.213057160E-1,2.180766761E-1,1.991346359E0
2.225201771E1,-4.578691721E-1,-1.452193260E0,2.024652481E0
2.226991127E1,1.254774451E0,-1.202465177E0,2.253313065E0
2.228780488E1,-4.897408485E-1,-1.846237183E0,2.323815346E0
2.230570094E1,-1.454973221E-1,-1.474567175E0,2.273020744E0
2.232359370E1,-6.343060732E-2,-3.892273903E-1,1.929381371E0
2.234148506E1,4.052610993E-1,-1.129030228E0,1.444074631E0
2.235937837E1,-6.639478803E-1,-5.570777059E-1,1.515616417E0
2.237727192E1,1.556091905E-1,-1.166723728E0,4.994421005E-1
2.239515510E1,-2.767467499E-2,-1.053147078E0,6.357975006E-1
2.241305885E1,1.174688339E-3,-9.256880283E-1,2.404184341E-1
2.243095210E1,-4.259964228E-1,-1.100322366E0,4.669475555E-2
2.244883400E1,-2.449989319E-2,-3.709443808E-1,-2.457313538E-1
2.246673597E1,-3.725900650E-1,-5.477555990E-1,-5.661687851E-1
2.248462031E1,-5.367316008E-1,-5.962969065E-1,-6.189556122E-1
2.250252559E1,-4.580061436E-1,-1.029403925E0,-6.676282883E-1
2.252041920E1,-6.294090748E-1,-7.556246519E-1,-9.949903488E-1
2.253831264E1,-4.516568184E-1,-7.607201934E-1,-1.341947556E0
2.255620619E1,-3.304030895E-1,-9.282980561E-1,-8.873853683E-1
2.257410036E1,-5.211033821E-1,-8.566387296E-1,-8.558502197E-1
2.259199275E1,-3.290433884E-1,-1.013219357E0,-8.740043640E-1
2.260988612E1,-4.266186953E-1,-8.624230623E-1,-8.984336853E-1
2.262777980E1,-6.725329161E-1,-8.155584335E-1,-8.747892380E-1
2.264567616E1,-3.812876940E-1,-1.115125895E0,-6.887359619E-1
2.266356636E1,-7.087345123E-1,-9.238557816E-1,-4.673032761E-1
2.268146016E1,-4.036657810E-1,-6.279116273E-1,-2.797317505E-1
2.269935322E1,-3.772562742E-1,-4.282645583E-1,-7.661180496E-1
2.271724696E1,-4.874085188E-1,-8.312879801E-1,-2.190923691E-1
2.273514210E1,-7.651426792E-1,-8.023905754E-1,2.000789642E-1
2.275303358E1,-9.188766479E-1,-7.386440039E-1,-1.176071167E-2
2.277093086E1,-7.247364521E-1,-8.935121298E-1,-1.144065857E-1
2.278880855E1,1.407600641E-1,-4.284410477E-1,-5.816926956E-1
2.280671113E1,-7.345124483E-1,-9.224072695E-1,3.036537170E-1
2.282461030E1,-1.066429615E-1,-4.310984612E-1,-3.672180176E-1
2.284250123E1,-7.337027788E-1,-7.168365717E-1,2.122478485E-1
2.286039454E1,-6.764011383E-1,-2.744717002E-1,-9.389686584E-2
2.287828755E1,-7.160972357E-1,-9.688201547E-1,4.886531830E-2
2.289616914E1,1.746916175E-1,-6.507230997E-1,1.318683624E-1
2.291407441E1,-5.133506060E-1,-8.156982660E-1,5.386018753E-1
2.293196797E1,-6.735129356E-1,-5.546198487E-1,3.368511200E-1
2.294986134E1,-7.200623751E-1,-6.588898897E-1,2.391529083E-2
2.296775490E1,-5.112813711E-1,-9.063718915E-1,2.444829941E-1
2.298565114E1,-2.188087702E-1,-5.101660490E-1,-2.061500549E-1
2.300353023E1,-5.019723177E-1,-4.358952641E-1,-2.071762085E-1
2.302141719E1,-3.435490131E-1,1.737451553E-2,-2.066612244E-3
2.303932832E1,-5.746675730E-1,-6.309130192E-1,1.640043259E-1
2.305722212E1,-4.913189411E-1,-6.941406727E-1,2.109432220E-1
2.307511543E1,-3.313308954E-1,-8.075341582E-1,1.219453812E-1
2.309300874E1,-1.742781401E-1,-4.478027225E-1,-1.349782944E-1
2.311090284E1,-7.238553762E-1,-1.664166451E-1,-2.919588089E-1
2.312879762E1,-5.417335033E-1,-4.678881168E-1,-3.324937820E-1
2.314668617E1,-1.244187355E-1,-7.913999557E-1,-1.819953918E-1
2.316458223E1,-3.702344894E-1,-5.367485285E-1,-2.266931534E-1
2.318247584E1,-4.844572544E-1,-6.455136538E-1,-1.561222076E-1
2.320036934E1,-3.907029629E-1,-4.650244713E-1,-4.535732269E-1
2.321826265E1,-4.100563526E-1,-3.584954739E-1,-2.805023193E-1
2.323615925E1,-4.091985226E-1,-4.239544272E-1,4.282665253E-2
2.325404951E1,-7.754694223E-1,-7.083891630E-1,1.151189804E-1
2.327194307E1,-4.931478500E-1,-6.172872782E-1,-1.345376968E-1
2.328983638E1,6.357777119E-2,-5.042700768E-1,-5.740280151E-1
2.330772999E1,-6.195888519E-1,-2.941628098E-1,-2.617950439E-1
2.332562513E1,-3.969053030E-1,-6.447001696E-1,-1.512336731E-2
2.334350465E1,-7.599774599E-1,-8.519997597E-1,2.697277069E-1
2.336140767E1,-6.346583366E-2,-4.613322020E-2,-6.464080811E-1
2.337930317E1,-2.206245661E-1,-6.797658205E-1,-8.180713654E-2
2.339719948E1,-3.045032024E-1,-3.036391139E-1,-1.489353180E-1
2.341509059E1,-5.645496845E-1,-6.706325412E-1,-1.029729843E-1
2.343298079E1,-8.248887062E-1,-7.286558747E-1,4.018688202E-2
2.345086549E1,-6.970125437E-1,-7.708595395E-1,7.225131989E-2
2.346876826E1,2.408813834E-1,-5.571166277E-1,-3.601055145E-1
2.348666420E1,-4.513690472E-1,-1.079116464E-1,-3.617172241E-1
2.350455732E1,-5.617924929E-1,-6.233770251E-1,2.391452789E-1
2.352245064E1,6.026184559E-2,-1.022754669E0,4.057350159E-1
2.354034370E1,-8.992552757E-1,-2.970513105E-1,-2.230310440E-1
2.355823482E1,-1.901000738E-1,-5.808870196E-1,4.618606567E-1
2.357611635E1,-2.814555168E-1,-2.417068481E-1,-1.517229080E-1
2.359402461E1,-9.492508173E-1,-4.756532311E-1,2.526187897E-2
2.361191786E1,-1.790738106E-2,-3.698074222E-1,-1.086626053E-1
2.362980250E1,-1.595838070E-1,-6.840994358E-1,2.428264618E-1
2.364770479E1,-8.595514297E-2,-3.201146722E-1,-8.097648621E-2
2.366560133E1,-5.784065723E-1,-4.188616276E-1,-8.735656738E-2
2.368349971E1,-9.879050255E-1,-5.035754442E-1,5.607128143E-1
2.370138374E1,-1.216123104E-1,-3.728142381E-1,-3.530235291E-1
2.371928132E1,-3.581845760E-1,-9.953263998E-1,-4.174938202E-1
2.373717512E1,-2.352653742E-1,-1.777456403E-1,-4.496374130E-1
2.375505366E1,-3.631937504E-1,-5.509122014E-1,-6.776809692E-3
2.377294710E1,-4.821906090E-1,-3.837196827E-1,-4.286098480E-2
2.379084102E1,-6.214277744E-1,-5.859467387E-1,2.007694244E-1
2.380873488E1,-2.339147329E-1,-1.396450400E-1,-1.063251495E-1
2.382663606E1,-8.787930012E-2,-5.694844723E-1,-1.357746124E-1
2.384453236E1,-4.521096945E-1,-7.282700539E-1,-4.030036926E-1
2.386242592E1,-2.477115393E-1,-4.804600477E-1,-1.179332733E-1
2.388031953E1,-2.646955252E-1,-2.626695037E-1,-1.998844147E-1
2.389821284E1,4.480230808E-2,-3.456628323E-1,-3.543701172E-1
2.391610450E1,-3.082206249E-1,-3.176109195E-1,-1.395530701E-1
2.393399971E1,-2.462412119E-1,-4.495546818E-1,-3.712844849E-1
2.395189290E1,-9.810042381E-2,-6.140107512E-1,-2.287960052E-1
2.396978639E1,-7.055993080E-1,-5.748204589E-1,1.728181839E-1
2.398767994E1,3.822684288E-2,-6.825867295E-1,-2.471027374E-1
2.400557533E1,1.995141506E-1,-5.409379601E-1,-3.497848511E-1
2.402346388E1,-4.248446226E-1,-3.752738833E-1,-3.698463440E-1
2.404136006E1,2.768123150E-2,-6.203571558E-1,1.495647430E-2
2.405923903E1,-3.352367878E-1,-3.270928264E-1,-2.133369446E-1
2.407713814E1,-2.224385738E-2,-3.492494226E-1,-1.961765289E-1
2.409503706E1,-2.455005646E-1,-3.042727113E-1,-1.259384155E-1
2.411293373E1,-4.617379904E-1,-5.001910329E-1,2.189617157E-1
2.413082710E1,-3.706688881E-1,-3.654795289E-1,3.744411469E-2
2.414872072E1,2.687397599E-1,-8.573273420E-1,1.101160049E-1
2.416660939E1,-2.766859531E-2,-5.710937977E-1,8.366966248E-2
2.418450752E1,2.659969330E-1,-5.830209255E-1,8.095359802E-2
2.420240108E1,2.620691061E-1,-2.799816132E-1,-2.396621704E-1
2.422029457E1,-5.133560896E-1,-3.480505943E-2,-3.335056305E-1
2.423818794E1,4.989659786E-2,-4.634454250E-1,2.677984238E-1
2.425608125E1,3.366945982E-1,-3.487020731E-2,-2.610645294E-1
2.427397474E1,-1.138027906E-1,-8.009796739E-1,1.535110474E-1
2.429186806E1,5.649676323E-1,-3.474289179E-1,-1.202697754E-1
2.430976149E1,-3.652732372E-1,-5.787824392E-1,1.126098633E-2
2.432765498E1,4.082224369E-1,-4.410206676E-1,-2.006597519E-1
2.434554933E1,1.057270765E-1,-3.095546961E-1,-3.577642441E-1
2.436344172E1,4.634004831E-1,-2.512017488E-1,-2.533912659E-3
2.438133241E1,-2.957609892E-1,-1.220308542E-1,-1.935338974E-1
2.439921705E1,-2.737456560E-1,-7.845675349E-1,1.656761169E-1
2.441712495E1,5.898536444E-1,-7.219821811E-1,-1.140403748E-2
2.443501655E1,-1.825332642E-1,-2.478111386E-1,-4.013576508E-1
2.445290889E1,4.001320601E-1,-2.839304805E-1,-4.487876892E-1
2.447080226E1,1.271228790E-1,-4.498821497E-1,-4.452629089E-1
2.448869282E1,9.646260738E-2,-9.622567892E-2,-1.107215881E-1
2.450658540E1,2.579764128E-1,-1.234200001E-1,8.125686646E-2
2.452448237E1,-3.066529036E-1,-6.637099385E-1,6.216974258E-1
2.454237611E1,-1.959562302E-2,-6.659071445E-1,7.485494614E-1
2.456025782E1,5.268571377E-1,-4.852617383E-1,1.097421646E-1
2.457816298E1,1.876652241E-2,-4.473149776E-1,-1.799497604E-1
2.459604390E1,2.713158131E-1,-8.006967902E-1,5.070390701E-1
2.461394984E1,3.124521971E-1,-4.584915042E-1,-5.708217621E-2
2.463184291E1,2.174749970E-1,8.956432343E-2,-1.033391953E-1
2.464973677E1,-2.893781662E-2,2.691118717E-1,2.737045288E-3
2.466763014E1,1.340898275E-1,-9.472858310E-1,4.817543030E-1
2.468552614E1,7.123243809E-2,-1.128509998E0,1.053706169E0
2.470341688E1,-1.560831070E-2,-2.508354187E-1,-1.780891418E-2
2.472130739E1,4.275455475E-1,-1.010042429E-2,-7.888431549E-1
2.473920344E1,-3.619441986E-1,8.492296934E-2,-3.710803986E-1
2.475709895E1,2.056692839E-1,-9.360117316E-1,5.549211502E-1
2.477499043E1,2.810438871E-1,-9.066293836E-1,-6.301021576E-2
2.479288399E1,-1.853120327E-1,-3.022361994E-1,-3.634262085E-1
2.481077730E1,3.636220098E-1,1.440660357E-1,-3.709087372E-1
2.482867061E1,1.811788082E-1,-2.373803854E-1,-7.291603088E-2
2.484656306E1,-2.718217373E-1,-1.064697266E0,3.192920685E-1
2.486445741E1,1.209965944E-1,-2.990334630E-1,-4.283618927E-1
2.488235121E1,6.801087260E-1,-3.116990328E-1,-4.120836258E-1
2.490024458E1,-1.449851990E-1,-1.402525306E-1,-9.737682343E-1
2.491813783E1,-2.125016451E-1,-6.103519797E-1,-3.530864716E-1
2.493603114E1,2.908502817E-1,-9.995879531E-1,4.128818512E-1
2.495392470E1,-8.850646019E-2,-4.276871085E-1,-8.657817841E-1
2.497181508E1,4.838495851E-1,-4.803835750E-1,-1.007598877E0
2.498971168E1,6.096723080E-1,-2.169891596E-1,-6.479215622E-1
2.500760493E1,-3.293228149E-1,-5.831022263E-1,-9.543704987E-2
2.502549592E1,-4.716396332E-3,-4.741955996E-1,-3.409566879E-1
2.504338081E1,6.160047650E-1,-7.086637020E-1,-5.631542206E-2
2.506127308E1,5.471229553E-2,-2.833772898E-1,-5.535697937E-2
2.507918129E1,4.434294701E-1,-7.327867150E-1,-6.419582367E-1
2.509707313E1,-3.823182583E-1,-8.567953110E-1,3.967800140E-1
2.511496547E1,2.919793129E-3,-4.187785387E-1,8.185863495E-2
2.513285908E1,1.412602663E-1,-1.048617601E0,3.914060593E-1
2.515075264E1,2.158141136E-2,-4.423465133E-1,1.545715332E-2
2.516864601E1,5.756890774E-1,-1.380295157E-1,-1.377210617E-1
2.518653700E1,-1.295099258E-1,-5.769159794E-1,3.231019974E-1
2.520443275E1,1.216197014E-1,-7.157739997E-1,5.308494568E-1
2.522232606E1,8.403789997E-2,-1.046443224E0,1.273736000E0
2.524021974E1,3.143214583E-1,-4.051160216E-1,7.546873093E-1
2.525811293E1,4.141021371E-1,-6.380339265E-1,3.568439484E-1
2.527600660E1,5.902886391E-2,-3.992527127E-1,7.374038696E-1
2.529389985E1,2.896757126E-1,-7.687979937E-1,2.758903503E-1
2.531179316E1,3.473903537E-1,-9.068970680E-1,3.505563736E-1
2.532968678E1,5.598976612E-1,-1.976027489E-1,-3.795194626E-1
2.534756483E1,9.792255163E-1,-4.637032747E-1,-8.767223358E-2
2.536547334E1,-2.064685822E-1,-5.305271149E-1,9.043788910E-2
2.538336690E1,4.842448831E-1,-8.940158486E-1,5.376071930E-1
2.540126381E1,6.077172160E-1,-7.445768118E-1,7.436065674E-1
2.541915346E1,-3.709615469E-1,-1.381822824E-1,-2.079763412E-1
2.543705031E1,8.377331495E-1,-7.218264937E-1,3.554697037E-1
2.545494038E1,2.219233513E-1,-6.109610796E-1,4.863834381E-1
2.547282881E1,-1.593989134E-1,-7.237454057E-1,-2.343969345E-1
2.549072755E1,4.991278648E-1,-3.099265099E-1,-8.735771179E-1
2.550862104E1,5.096483231E-1,-1.236197352E-1,-8.680200577E-1
2.552651436E1,2.507950664E-1,-7.562887669E-1,2.726202011E-1
2.554439570E1,2.723253369E-1,-7.990260720E-1,4.756517410E-1
2.556230415E1,1.210732460E-1,-4.608311057E-1,4.251565933E-1
2.558019716E1,1.515630484E-1,-6.005567312E-2,-3.621149063E-1
2.559808803E1,2.136902213E-1,-5.633309484E-1,8.064651489E-2
2.561598134E1,5.672865510E-1,-5.892333388E-1,-2.300138474E-1
2.563387495E1,2.884839773E-1,-9.205453992E-1,1.444444656E-1
2.565176826E1,1.794115901E-1,-3.604884148E-1,-3.927841187E-1
2.566966176E1,-2.767682076E-3,-4.026980996E-1,3.767690659E-1
2.568755513E1,2.275133133E-2,-2.564188242E-1,-1.054296494E-1
2.570544850E1,8.303067684E-1,-1.048154831E0,1.036939621E-1
2.572334193E1,-1.396679878E-1,-7.888193727E-1,1.208486557E-1
2.574123463E1,4.504272938E-1,-5.092365146E-1,-5.129890442E-1
2.575912855E1,1.620320678E-1,-3.758034110E-1,2.821254730E-1
2.577702504E1,-1.595617533E-1,1.055005789E-1,-8.844289780E-1
2.579491481E1,9.600871801E-1,-8.270117640E-1,7.332878113E-1
2.581280903E1,-5.646002293E-2,-2.309759855E-1,-3.395404816E-1
2.583070381E1,-1.773288250E-1,-1.225231886E0,1.412220001E-1
2.584859620E1,7.374105453E-1,-3.027945757E-2,-2.136373520E-1
2.586649251E1,-2.744191885E-1,-8.648060560E-1,2.245635986E-1
2.588438331E1,3.717570901E-1,-4.946131706E-1,-1.641960144E-1
2.590227608E1,5.327097774E-1,-3.523808718E-1,-5.703706741E-1
2.592016987E1,-1.612682343E-1,-6.028385758E-1,-5.022573471E-1
2.593806300E1,6.511889100E-1,-3.978641033E-1,-4.350786209E-1
2.595594429E1,-4.820436239E-1,-6.527622938E-1,5.658674240E-1
2.597385029E1,2.595167160E-1,1.639379263E-1,-1.438838005E0
2.599174336E1,-1.350293159E-1,-9.831067920E-1,8.564624786E-1
2.600963667E1,5.767513514E-1,-6.450167894E-1,1.790876389E-1
2.602753053E1,1.083600521E-2,-7.408788204E-1,-4.279747009E-1
2.604541139E1,2.707477212E-1,-5.357557535E-2,-1.042281151E0
2.606332002E1,2.985749245E-1,-6.600752473E-1,-4.257059097E-1
2.608121333E1,4.425001740E-1,-9.934976101E-1,2.177429199E-2
2.609910371E1,6.606689692E-1,-3.147133589E-1,-1.103935242E0
2.611699904E1,4.471307993E-1,-2.346685529E-1,-5.238580704E-1
2.613489082E1,-6.093502045E-2,-3.660571575E-2,4.529953003E-2
2.615278407E1,9.041190147E-3,-9.476150274E-1,2.011070251E-1
2.617068068E1,2.577623725E-1,-7.036102414E-1,4.323978424E-1
2.618857136E1,4.882786870E-1,-3.842979074E-1,-3.999242783E-1
2.620646162E1,8.062420487E-1,-4.615365267E-1,-6.981658936E-2
2.622435762E1,-1.133282185E-1,-4.712457061E-1,2.275562286E-1
2.624225136E1,5.067411661E-1,-6.501445174E-1,3.760747910E-1
2.626014503E1,3.540900946E-1,-3.311315179E-1,-1.643247604E-1
2.627803816E1,2.704458237E-1,-1.908307076E-1,-1.063504219E0
2.629593403E1,7.307794690E-1,-5.991932750E-1,6.084337234E-1
2.631382515E1,5.296664238E-1,-5.459812284E-1,1.306476593E-1
2.633171846E1,3.449463844E-2,-9.329546094E-1,8.309307098E-1
2.634961183E1,1.746576428E-1,-2.402595878E-1,4.283142090E-1
2.636750532E1,3.136885762E-1,-7.694610953E-1,1.534957886E-1
2.638539863E1,7.553483248E-1,-6.949301362E-1,3.006010056E-1
2.640329219E1,6.264257431E-2,-4.360628128E-1,-1.489963531E-1
2.642118544E1,6.329640746E-1,-4.450139999E-1,1.662902832E-1
2.643908156E1,5.802420378E-1,-2.354300022E-2,-9.874534607E-2
2.645696223E1,3.799927235E-1,-7.678090930E-1,4.230890274E-1
2.647486616E1,3.992840052E-1,-8.233392835E-1,6.571149826E-1
2.649275557E1,3.658512235E-1,-9.024179578E-1,1.295857430E0
2.651065254E1,5.548578501E-1,2.294100523E-1,-7.689304352E-1
2.652854640E1,2.262527347E-1,-6.328175068E-1,-4.322443008E-1
2.654643812E1,1.940339208E-1,-3.600632548E-1,8.839607239E-2
2.656433290E1,6.192908883E-1,-9.219110608E-1,3.393907547E-1
2.658222627E1,3.290241957E-1,-8.277727365E-1,2.042627335E-1
2.660011982E1,6.917026043E-1,-4.103124142E-2,-4.312314987E-1
2.661801088E1,8.765665293E-1,-5.381020308E-1,-1.349191666E-1
2.663590669E1,6.836265326E-1,-8.616348505E-1,-1.331815720E-1
2.665380018E1,3.380522728E-1,-1.045845151E0,1.791925430E-1
2.667169356E1,8.008270264E-1,-4.417760372E-1,-5.744419098E-1
2.668957924E1,5.636505485E-1,-4.646632075E-1,-4.412012100E-1
2.670748042E1,7.589063644E-1,-8.505386114E-1,-1.626081467E-1
2.672537367E1,5.749253035E-1,-7.465782166E-1,5.794830322E-1
2.674326753E1,4.746257067E-1,-6.405254006E-1,-9.351940155E-1
2.676116054E1,3.106204271E-1,-1.436480284E-1,-6.276855469E-1
2.677905391E1,3.626495004E-1,-5.246780515E-1,1.630735397E-1
2.679695088E1,6.455264688E-1,-9.089275002E-1,3.166704178E-1
2.681484083E1,5.743712187E-1,-5.490554571E-1,-2.475109100E-1
2.683273433E1,6.152912378E-1,-6.381800175E-1,-6.369018555E-1
2.685062788E1,4.731088877E-1,-8.057780266E-1,3.874559402E-1
2.686852125E1,7.379601598E-1,-6.614949703E-1,3.585815430E-4
2.688641475E1,3.742067218E-1,-6.272702217E-1,-5.018711090E-2
2.690430781E1,1.000002980E0,-4.841534495E-1,-4.045314789E-1
2.692220161E1,6.761748195E-1,-4.776980877E-1,-6.989240646E-1
2.694008296E1,7.148037553E-1,-2.798448205E-1,-5.590000153E-1
2.695798817E1,7.163611650E-1,-5.947191119E-1,2.622022629E-1
2.697587892E1,1.239376664E-1,-9.938164353E-1,1.122605324E0
2.699376460E1,7.596852779E-1,-6.052419543E-1,3.775272369E-1
2.701165663E1,1.039633036E0,-7.044350505E-1,-2.393217087E-1
2.702955043E1,3.649402857E-1,-3.314017653E-1,9.156036377E-2
2.704745839E1,1.146127582E0,-3.513203263E-1,-4.894685745E-1
2.706534596E1,5.396233797E-1,-5.921247602E-1,6.405172348E-1
2.708324238E1,1.196560860E-1,-4.013098478E-1,2.224168777E-1
2.710112764E1,1.052256584E0,-7.662093639E-1,2.955207825E-1
2.711902900E1,9.473141432E-1,-3.694272041E-1,-6.418037415E-2
2.713692396E1,2.568044662E-1,-6.293253303E-1,-1.109781265E-1
2.715481636E1,8.670153022E-1,-5.830046535E-1,1.014976501E-1
2.717270942E1,1.077553630E0,-2.739348412E-1,-5.241775513E-1
2.719059834E1,-9.656834602E-2,-3.732155561E-1,4.738798141E-1
2.720849629E1,1.117041469E0,-6.560976505E-1,7.455244064E-1
2.722638740E1,5.064177513E-1,-1.204223156E0,8.143262863E-1
2.724428316E1,8.804263473E-1,5.691444874E-2,-6.970472336E-1
2.726217677E1,1.230050445E0,-4.690278172E-1,-3.870429993E-1
2.728006996E1,2.892017365E-2,-8.240237236E-1,1.736173630E-1
2.729796339E1,6.518109441E-1,-4.129905105E-1,-5.313644409E-1
2.731585682E1,7.976840734E-1,-3.856477737E-1,1.691808701E-1
2.733375044E1,4.800415635E-1,-5.954784751E-1,2.063713074E-1
2.735164357E1,6.686372757E-1,-8.657464981E-1,8.657455444E-2
2.736953712E1,6.484106779E-1,-3.037677407E-1,-4.027996063E-1
2.738743068E1,6.998798847E-1,-2.429168820E-1,-8.266592026E-1
2.740532411E1,2.984822989E-1,-7.888842225E-1,2.157249451E-1
2.742321742E1,7.691516280E-1,-5.607969761E-1,2.336692810E-1
2.744111171E1,4.093366861E-1,-4.212341309E-1,-1.838941574E-1
2.745899238E1,8.750177622E-1,-6.652172804E-1,-2.042102814E-2
2.747688563E1,6.858147383E-1,-1.076884747E0,7.116794586E-2
2.749479127E1,2.728860378E-1,-8.893070221E-1,3.363237381E-1
2.751268501E1,2.799188495E-1,-2.023687363E-1,-3.030033112E-1
2.753057783E1,1.179801226E0,-3.460355401E-1,-3.317384720E-1
2.754846882E1,7.477176785E-1,-6.258549094E-1,9.343910217E-2
2.756635420E1,5.035769939E-1,-4.696067572E-1,-3.738021851E-1
2.758425825E1,7.902055383E-1,-3.807321191E-1,2.597713470E-2
2.760215156E1,5.062611699E-1,-2.166864872E-1,1.774168015E-1
2.762004512E1,7.739661932E-1,-8.401879668E-1,5.154895782E-1
2.763793867E1,8.398729563E-1,-3.970454931E-1,1.931924820E-1
2.765583192E1,8.992556334E-1,-5.093647242E-1,-3.243646622E-1
2.767372554E1,9.674998522E-1,6.176358461E-2,-5.005207062E-1
2.769160566E1,3.960649967E-1,-1.565354466E-1,2.298393250E-1
2.770951252E1,6.982481480E-1,-4.931648374E-1,4.576444626E-1
2.772740553E1,8.023303747E-1,-3.969494700E-1,-2.235889435E-2
2.774529902E1,6.565027237E-1,-2.931897044E-1,-1.580305099E-1
2.776319282E1,1.078372836E0,3.114849329E-2,-5.171842575E-1
2.778108619E1,7.575507164E-1,-6.293932796E-1,4.811267853E-1
2.779896779E1,4.791647792E-1,1.652189493E-1,-2.640533447E-1
2.781687410E1,1.027145505E0,-5.483750701E-1,3.781909943E-1
2.783476631E1,2.859404683E-1,-2.860126495E-1,9.728622437E-2
2.785265956E1,7.414659262E-1,-3.213805556E-1,1.575946808E-2
2.787055317E1,1.163340330E0,-4.695552588E-1,-4.893207550E-2
2.788844649E1,7.862982750E-1,-2.720115185E-1,-5.339946747E-1
2.790634401E1,7.532761097E-1,-2.240167260E-1,-1.120262146E-1
2.792423634E1,8.742970228E-1,3.835366368E-1,7.732391357E-3
2.794212715E1,2.660253048E-1,-5.376211405E-1,1.949796677E-1
2.796001240E1,2.283869386E-1,-2.256760001E-1,1.035270691E-1
2.797791371E1,1.203382730E0,-3.320619464E-1,8.028793335E-2
2.799581019E1,1.206906915E0,-3.732252121E-1,-4.222278595E-1
2.801370027E1,5.088343620E-1,-2.440115213E-1,9.575366974E-2
2.803159395E1,9.269422293E-1,-3.325482011E-1,2.521190643E-1
2.804947304E1,5.568763018E-1,-1.437400579E-1,9.993171692E-2
2.806736616E1,2.484568954E-1,-4.444167018E-1,5.351362228E-1
2.808527412E1,1.622362852E0,1.875069737E-1,-2.426328659E-1
2.810316774E1,1.053910732E0,-1.762337685E-1,-8.171768188E-1
2.812106123E1,4.638238549E-1,-2.197971940E-1,-3.511629105E-1
2.813894356E1,1.305714369E0,-4.348806143E-1,2.772579193E-1
2.815684810E1,9.081510901E-1,-2.685766220E-1,3.828620911E-1
2.817474171E1,7.658552527E-1,-1.260603070E-1,-9.547424316E-2
2.819263466E1,1.093298316E0,-4.832998514E-1,5.538291931E-1
2.821052803E1,9.097266197E-1,-6.079911590E-1,-3.439321518E-1
2.822842183E1,1.111833096E0,8.932256699E-2,-8.140802383E-1
2.824631538E1,1.277637720E0,4.488909245E-2,-6.695203781E-1
2.826420845E1,5.574618578E-1,-4.731420279E-1,1.479663849E-1
2.828210231E1,1.281772017E0,-4.049268961E-1,1.927299500E-1
2.829999537E1,8.119891286E-1,-2.363565564E-1,3.050003052E-1
2.831788887E1,1.272328973E0,-5.736997724E-1,5.487642288E-1
2.833578212E1,8.593156934E-1,-7.543942332E-1,2.483577728E-1
2.835367598E1,8.940173388E-1,-1.339148879E-1,-2.596273422E-1
2.837156929E1,1.144492269E0,5.409193039E-2,-8.372688293E-2
2.838946266E1,9.878123999E-1,-2.321529984E-1,7.604408264E-2
2.840735615E1,7.365306020E-1,-5.593349934E-1,4.435367584E-1
2.842524952E1,1.238386393E0,-4.453330636E-1,1.380910873E-1
2.844314296E1,1.209211826E0,-6.997214556E-1,5.202474594E-1
2.846103627E1,9.272089005E-1,-2.203412652E-1,-9.637737274E-2
2.847891762E1,7.282910347E-1,-6.114287972E-1,1.048543930E0
2.849682313E1,1.166182041E0,-1.334690452E-1,1.289272308E-1
2.851471675E1,1.214017034E0,-6.834517717E-1,1.960487366E-1
2.853261006E1,9.340634346E-1,-2.618929744E-1,4.728097916E-1
2.855048872E1,8.984768391E-1,-1.129491925E-1,-2.141752243E-1
2.856839406E1,9.566442966E-1,-4.520804882E-1,4.561986923E-1
2.858629024E1,8.638008237E-1,-1.855599284E-1,2.161626816E-1
2.860418373E1,9.454419017E-1,-6.818625927E-1,9.454097748E-1
2.862207741E1,8.480451703E-1,-3.565279245E-1,3.810214996E-1
2.863997066E1,1.097055554E0,-8.808714151E-2,-4.795360565E-1
2.865786390E1,1.733835220E0,-9.273290634E-4,-2.607841492E-1
2.867576063E1,5.421595573E-1,-3.616370559E-1,-1.688289642E-1
2.869365108E1,1.318236113E0,-4.921880364E-1,-1.371784210E-1
2.871154439E1,9.978758097E-1,-1.801696420E-1,5.413799286E-1
2.872943800E1,7.067532539E-1,-3.149769306E-1,-2.465534210E-1
2.874733162E1,1.279817224E0,-4.726087451E-1,1.705913544E-1
2.876522487E1,1.398172736E0,-2.365409732E-1,-1.327447891E-1
2.878311812E1,2.121914625E-1,-6.146605611E-1,3.582172394E-1
2.880101167E1,1.018224478E0,1.863043308E-1,-6.757535934E-1
2.881889296E1,1.276367545E0,-3.070780039E-1,-3.410310745E-1
2.883679963E1,8.867560625E-1,-2.143794298E-2,-2.503499985E-1
2.885469185E1,9.433370829E-1,-2.508978248E-1,-2.851085663E-1
2.887258540E1,1.668823481E0,-5.264652371E-1,3.154163361E-1
2.889046675E1,3.613139391E-1,-5.101124644E-1,5.708198547E-1
2.890837227E1,9.380146861E-1,-7.083422542E-1,6.184339523E-1
2.892626558E1,1.800841570E0,4.829049110E-2,-3.834390640E-1
2.894415883E1,4.203188419E-1,-2.645612359E-1,-6.369066238E-1
2.896205214E1,8.630909920E-1,-6.037932634E-1,-5.289545059E-1
2.897994569E1,1.478098154E0,-8.343201280E-1,2.503709793E-1
2.899783931E1,4.109079838E-1,-4.774320126E-2,-9.685420990E-2
2.901573579E1,8.788772821E-1,-6.534718275E-1,2.654266357E-1
2.903362611E1,1.396521568E0,-7.224355340E-1,7.091140747E-2
2.905150465E1,6.048728228E-1,-1.919941306E-1,-8.270015717E-1
2.906941597E1,9.319580197E-1,-9.835433364E-1,4.513807297E-1
2.908730641E1,6.366048455E-1,-3.685571551E-1,3.616590500E-1
2.910519691E1,3.796263933E-1,-8.181011081E-1,-4.205331802E-1
2.912309321E1,1.041050434E0,2.986950278E-1,-1.898300171E0
2.914098671E1,7.993435860E-1,-1.634862423E0,3.619604111E-1
2.915886812E1,-1.691996455E-1,-1.088365555E0,6.713562012E-1
2.917677369E1,1.265031457E0,-9.618021250E-1,4.400825500E-2
2.919466719E1,1.162775874E0,3.553998470E-1,-5.931997299E-1
2.921255751E1,6.006156206E-1,-5.285471082E-1,-7.584667206E-1
2.923044203E1,1.009513021E0,-1.659539938E0,9.004354477E-1
2.924834736E1,7.912344933E-1,4.413081408E-1,-1.445277214E0
2.926624074E1,1.146026373E0,-9.202316999E-1,-7.400627136E-1
2.928411738E1,1.491032839E-1,-1.310199499E0,1.643994331E0
2.930202754E1,4.411761761E-1,-1.475605130E0,6.291990280E-1
2.931992134E1,1.526823878E0,-4.398554564E-1,-1.876344681E-1
2.933781447E1,1.104790926E0,-7.815059423E-1,-4.726924896E-1
2.935571077E1,6.182879210E-1,-1.364982009E0,2.613620758E-1
2.937360158E1,1.044946194E0,-1.498383522E0,9.051752090E-1
2.939149483E1,9.810041785E-1,-9.806663990E-1,4.728097916E-1
2.940938838E1,4.477354884E-1,-6.871408224E-1,6.951045990E-2
2.942728468E1,9.794004560E-1,-4.754312038E-1,3.694438934E-1
2.944517531E1,8.433762789E-1,-1.080551982E0,1.235175133E0
2.946306856E1,4.843169451E-1,-6.427868009E-1,3.773441315E-1
2.948096211E1,7.241544724E-1,-8.234131932E-1,1.016175270E0
2.949885438E1,8.318368196E-1,-7.276524901E-1,6.279802322E-1
2.951673402E1,8.092627525E-1,-5.453682542E-1,1.191406250E-1
2.953464228E1,1.043140054E0,-1.005249143E0,7.255296707E-1
2.955252119E1,9.782538414E-1,-2.653952837E-1,5.397691727E-1
2.957041743E1,4.890126586E-1,-4.061003923E-1,1.315689087E-2
2.958832246E1,5.784772635E-1,-3.342952132E-1,-3.228969574E-1
2.960621608E1,1.236150026E0,-9.767824411E-1,7.965278625E-2
2.962410908E1,9.353591800E-1,-7.655182481E-1,-2.221879959E-1
2.964200288E1,8.712193370E-1,-3.706340790E-1,-7.833623886E-1
2.965989619E1,1.162169933E0,-7.847911716E-1,5.083370209E-1
2.967778682E1,5.494358540E-1,-1.582078338E-1,-1.776180267E-1
2.969568605E1,4.711849093E-1,-4.381213784E-1,-1.156404495E0
2.971357667E1,1.257864118E0,-4.128665328E-1,-1.002418518E0
2.973147011E1,1.253376007E0,-1.244972467E0,6.609916687E-2
2.974936043E1,4.160783291E-1,-9.232041240E-1,-3.233461380E-1
2.976725703E1,1.036650181E0,-3.329208493E-1,-5.366439819E-1
2.978515034E1,1.160394430E0,-5.130128860E-1,-8.556079865E-2
2.980304396E1,7.203780413E-1,-3.479988575E-1,-6.734008789E-1
2.982093727E1,1.110915184E0,-9.003173113E-1,1.289930344E-1
2.983881916E1,1.133612752E0,-6.515243649E-1,-6.319885254E-1
2.985672114E1,8.986740112E-1,-9.177265167E-1,-1.364183426E-1
2.987461769E1,9.472013116E-1,-4.586375952E-1,-4.649209976E-1
2.989251094E1,1.205354571E0,-7.836234570E-1,-2.534437180E-1
2.991039351E1,1.088833332E0,-5.536269546E-1,-8.103942871E-2
2.992829805E1,6.004174948E-1,-7.120469809E-1,3.251256943E-1
2.994619118E1,1.062978387E0,-9.953395128E-1,5.570755005E-1
2.996408467E1,1.047995090E0,-3.708340526E-1,-1.317949295E-1
2.998197822E1,9.353581071E-1,-6.675112844E-1,-3.827505112E-1
2.999987147E1,1.071237326E0,-2.863931060E-1,-7.809038162E-1
3.001776503E1,1.143767595E0,-8.049042225E-1,6.732177734E-2
3.003566041E1,1.098560214E0,-4.621397257E-1,2.481441498E-1
3.005353737E1,9.209445715E-1,-1.235025167E0,7.798080444E-1
3.007144545E1,1.110440254E0,-4.164735675E-1,-4.617710114E-1
3.008933888E1,1.011676073E0,-9.759336710E-2,-1.160354614E0
3.010723219E1,1.332826018E0,-3.627330065E-1,-3.551864624E-1
3.012512568E1,1.332498312E0,-7.335000634E-1,4.716873169E-1
3.014301637E1,6.848649979E-1,-8.554894924E-1,1.795511246E-1
3.016091505E1,1.303437114E0,-5.905710459E-1,-2.822799683E-1
3.017879799E1,1.655359507E0,-8.325850964E-1,1.235971451E-1
3.019669642E1,9.418401718E-1,-6.520626545E-1,-1.531858444E-1
3.021458088E1,1.254249811E0,-4.422273636E-1,-2.538805008E-1
3.023247456E1,1.334834933E0,-3.308466673E-1,3.747978210E-1
3.025036793E1,1.005106330E0,-5.190206766E-1,6.145954132E-2
3.026827608E1,1.887802720E0,-1.053328872E0,4.333143234E-1
3.028616670E1,9.141402245E-1,-4.084830284E-1,-2.555656433E-2
3.030405983E1,1.008726597E0,-5.696060658E-1,-3.156509399E-1
3.032195356E1,1.837225080E0,-7.336432934E-1,3.457603455E-1
3.033984669E1,1.140413046E0,-7.835458517E-1,3.079309464E-1
3.035774043E1,1.535034657E0,-6.677157879E-1,-2.257347107E-3
3.037563679E1,1.636206031E0,-2.608067989E-1,-3.064756393E-1
3.039352730E1,1.236592531E0,-6.946493387E-1,6.840229034E-2
3.041142067E1,1.649270177E0,-4.674617052E-1,1.954259872E-1
3.042931416E1,1.231587529E0,-9.253793955E-1,5.950870514E-1
3.044720753E1,1.584566832E0,-4.704968929E-1,-1.920433044E-1
3.046510072E1,1.843759894E0,-1.106157303E-1,-1.713342667E-1
3.048299440E1,1.425900340E0,-7.713116407E-1,3.837566376E-1
3.050089094E1,1.402067184E0,-5.026831627E-1,3.925848007E-1
3.051876777E1,1.404803753E0,-7.911450863E-1,5.987730026E-1
3.053665321E1,1.758893728E0,-2.745019197E-1,-3.388528824E-1
3.055455647E1,1.920914412E0,-8.436689377E-1,1.335678101E-1
3.057246156E1,1.134371758E0,-9.346323013E-1,4.515552521E-1
3.059034700E1,1.794651747E0,5.849677324E-2,-2.529716492E-1
3.060824891E1,1.686903000E0,-6.368688345E-1,-2.244138718E-1
3.062614595E1,1.375326037E0,-1.077231884E0,6.014137268E-1
3.064403517E1,1.866006970E0,-7.988407612E-1,9.153652191E-2
3.066191719E1,1.449805617E0,-6.682163477E-1,-1.849985123E-1
3.067982197E1,1.732116938E0,-4.177985191E-1,-3.807172775E-1
3.069771577E1,1.738159299E0,-1.191931605E0,2.339239120E-1
3.071561201E1,2.023744583E0,-6.479741335E-1,-4.005918503E-1
3.073350264E1,2.191113234E0,-6.534373760E-1,-2.415809631E-1
3.075139473E1,1.427146435E0,-8.207178116E-1,2.241706848E-2
3.076928950E1,2.081897974E0,-6.241550446E-1,-5.282783508E-2
3.078718263E1,1.556993008E0,-6.124132872E-1,3.265590668E-1
3.080507612E1,2.382343292E0,-3.840378523E-1,-3.456020355E-1
3.082296968E1,1.978459954E0,-1.049707532E0,5.560827255E-1
3.084086323E1,2.048324823E0,-4.144711494E-1,-7.707262039E-1
3.085875685E1,1.994086742E0,-8.411940336E-1,4.538497925E-1
3.087664705E1,1.521532536E0,8.875632286E-2,-5.744495392E-1
3.089453273E1,1.980328679E0,-6.342310905E-1,8.351516724E-2
3.091243281E1,2.048449516E0,-5.139387846E-1,1.820850372E-1
3.093031911E1,1.615361333E0,-7.481288910E-1,3.662939072E-1
3.094822090E1,1.972576261E0,-4.420542717E-1,-2.098779678E-1
3.096611714E1,1.886374950E0,-4.228891134E-1,-1.745996475E-1
3.098401051E1,1.890903592E0,-6.859132051E-1,1.673421860E-1
3.100190272E1,2.209413528E0,-4.799571037E-1,-9.845542908E-2
3.101979738E1,1.649706960E0,-8.969315290E-1,2.415084839E-1
3.103769087E1,2.023855925E0,-2.479699850E-1,-7.060718536E-1
3.105557289E1,2.317069769E0,-9.395277500E-1,1.740550995E-1
3.107347798E1,2.298163891E0,-3.112143278E-1,3.363809586E-1
3.109137111E1,1.625887394E0,-5.158960819E-1,8.444786072E-2
3.110926472E1,2.164400578E0,-6.366832256E-1,5.947961807E-1
3.112715797E1,2.126280546E0,-1.959162951E-1,4.506244659E-1
3.114505128E1,1.296364069E0,-6.505032778E-1,1.560087204E-1
3.116294526E1,2.411873817E0,2.216362953E-2,-4.586019516E-1
3.118083833E1,2.466184616E0,-9.408594370E-1,8.499689102E-1
3.119873195E1,1.136689425E0,-4.784522057E-1,2.115793228E-1
3.121662300E1,2.710064173E0,-8.499629498E-1,8.934736252E-1
3.123451857E1,1.907256603E0,-2.873814106E-2,1.390972137E-1
3.125241206E1,1.920585632E0,-4.442272186E-1,-1.279697418E-1
3.127030470E1,2.783556938E0,-7.643711567E-1,7.640066147E-1
3.128819618E1,1.746597171E0,-3.927898407E-2,-4.851541519E-1
3.130609254E1,1.644013882E0,-1.622052193E-1,-4.222478867E-1
3.132398573E1,2.660635471E0,-7.475527525E-1,8.865671158E-1
3.134187965E1,2.076968670E0,-8.779013157E-1,6.467905045E-1
3.135977418E1,2.213472843E0,-6.391496658E-1,-4.443969727E-1
3.137766615E1,2.689044476E0,-1.160572767E-1,-2.847394943E-1
3.139556386E1,1.842466116E0,-2.925585508E-1,-5.840301514E-3
3.141345338E1,1.844329357E0,-2.533196211E-1,1.096601486E-1
3.143134669E1,2.079601526E0,-4.716199636E-1,-3.954505920E-2
3.144924025E1,1.692519188E0,-6.554541588E-1,2.327604294E-1
3.146713795E1,2.788616657E0,-9.421564341E-1,3.903818130E-1
3.148502687E1,2.344561577E0,-2.282570601E-1,-8.342094421E-1
3.150290816E1,1.778988361E0,-1.156961918E-1,-8.922128677E-1
3.152081392E1,2.447716236E0,-3.987172842E-1,-4.215240479E-4
3.153870717E1,2.060848713E0,-4.504237175E-1,1.065750122E-1
3.155658485E1,2.016845942E0,-4.210106134E-1,-1.514883041E-1
3.157449409E1,2.276184082E0,-1.260526180E-1,-3.269224167E-1
3.159238661E1,1.947169304E0,-8.746931553E-1,3.846120834E-1
3.161026881E1,2.019248009E0,1.912832260E-3,-8.177280426E-2
3.162817140E1,2.056250334E0,-4.028466940E-1,-1.007032394E-1
3.164606819E1,2.117205143E0,-6.342933178E-1,3.168096542E-1
3.166396119E1,2.257299423E0,-4.168154001E-1,-1.120300293E-1
3.168185469E1,1.832795262E0,-6.971794367E-1,1.547555923E-1
3.169974806E1,2.168674946E0,-5.188839436E-1,4.543895721E-1
3.171764180E1,2.392808914E0,-5.033457279E-1,-2.967710495E-1
3.173553828E1,1.778127789E0,-3.884260654E-1,-1.408452988E-1
3.175342872E1,2.617270947E0,-1.359138489E-1,-4.177513123E-1
3.177132179E1,1.852463245E0,-4.468157291E-1,5.770483017E-1
3.178921675E1,1.479438543E0,-2.211893797E-1,2.189331055E-1
3.180710890E1,2.738843679E0,-7.022626400E-1,6.120452881E-1
3.182500221E1,2.642269850E0,-3.518265486E-1,4.741477966E-1
3.184289601E1,1.489750862E0,4.547190666E-2,-3.592996597E-1
3.186078926E1,2.586984158E0,-2.195636034E-1,1.380338669E-1
3.187867805E1,2.285734653E0,2.077453136E-1,3.283615112E-1
3.189657313E1,1.779204726E0,-5.594557524E-1,2.802076340E-1
3.191446675E1,2.177205563E0,-1.923038960E-1,9.342498779E-1
3.193236280E1,2.340776443E0,-4.110708237E-1,5.262393951E-1
3.195025654E1,1.629157782E0,1.767495275E-1,-1.656713486E-1
3.196814692E1,2.836162090E0,3.682706952E-1,1.336193085E-2
3.198604316E1,2.118923903E0,-4.534212351E-1,6.060571671E-1
3.200393648E1,1.271851063E0,-2.209131718E-1,3.686904907E-2
3.202183027E1,2.817944765E0,2.728652954E-2,4.187488556E-2
3.203972340E1,2.796559811E0,-1.172852516E-2,1.232910156E-1
3.205760231E1,6.691992879E-1,-3.039727211E-1,6.157073975E-1
3.207551112E1,2.722942829E0,-2.261401415E-1,5.872621536E-1
3.209340400E1,2.765346289E0,1.090681553E-1,2.569093704E-1
3.211128517E1,1.050081134E0,-7.388079166E-2,-2.164487839E-1
3.212919087E1,2.644600868E0,-2.960038185E-1,3.144397736E-1
3.214708424E1,2.414441586E0,4.324967265E-1,1.672725677E-1
3.216497774E1,9.751638174E-1,-8.132479191E-1,6.938629150E-1
3.218287111E1,2.518164396E0,-5.086954832E-1,2.385196686E-1
3.220076466E1,2.591582775E0,-2.658724785E-3,-7.045097351E-1
3.221865785E1,1.117745399E0,3.857979774E-1,-9.529457092E-1
3.223655336E1,2.519279718E0,-9.905815125E-2,-3.362226486E-1
3.225444502E1,2.441247463E0,-7.038980722E-1,9.346961975E-1
3.227233760E1,8.957663774E-1,1.049139500E-1,-6.187038422E-1
3.229022633E1,2.552869797E0,-6.214487553E-1,7.853031158E-2
3.230812214E1,2.227892160E0,7.421989441E-1,-4.169321060E-1
3.232601851E1,1.048406839E0,7.382047176E-2,-1.173707962E0
3.234390907E1,3.066879988E0,-2.972832918E-1,1.159238815E-1
3.236180562E1,1.557617903E0,1.259925365E-1,2.300405502E-1
3.237969874E1,1.407199025E0,-8.504387140E-1,-6.226367950E-1
3.239759236E1,2.587347984E0,8.028459549E-2,-3.119993210E-1
3.241548787E1,2.037556410E0,-5.451353788E-1,-1.214885712E-1
3.243337935E1,1.733304501E0,5.258235931E-1,-4.750623703E-1
3.245127278E1,2.258033037E0,-3.742054701E-1,5.273427963E-1
3.246916627E1,1.537119627E0,-2.811312675E-2,3.508119583E-1
3.248705977E1,1.529039860E0,-2.179627419E-1,6.536836624E-1
3.250495295E1,2.455164433E0,-6.217135191E-1,6.960802078E-1
3.252284639E1,1.968944311E0,7.999455929E-2,1.469087601E-1
3.254073994E1,1.604655743E0,-2.769228220E-1,2.361507416E-1
3.255862123E1,2.298567295E0,1.096243858E-1,5.555238724E-1
3.257652681E1,1.924843788E0,-3.885688782E-1,1.049542427E0
3.259440816E1,1.897024870E0,-2.851579189E-1,7.854251862E-1
3.261231367E1,2.401854992E0,-4.150741100E-1,1.153502464E0
3.263018751E1,1.774842501E0,-2.229996920E-1,7.584095001E-1
3.264809761E1,2.119254112E0,5.463683605E-2,3.867673874E-1
3.266599391E1,2.472120047E0,-2.725769281E-1,3.191900253E-1
3.268389046E1,1.214103580E0,-6.967997551E-2,2.041788101E-1
3.270178096E1,2.618527412E0,-4.162935019E-1,7.308225632E-1
3.271967402E1,2.744935989E0,-1.852800846E-1,1.112504005E0
3.273756483E1,1.180706024E0,-4.909217358E-2,-2.862243652E-1
3.275545839E1,2.527277708E0,3.996264935E-2,-1.061143875E-1
3.277335475E1,2.237508774E0,4.001730084E-1,5.422792435E-1
3.279124806E1,1.294983625E0,-2.309665680E-1,-1.968088150E-1
3.280914149E1,2.044604301E0,-2.671903372E-1,5.572948456E-1
3.282703468E1,1.871733427E0,-1.232019663E-1,7.013607025E-1
3.284492006E1,1.843629360E0,-4.569399357E-2,-2.829122543E-1
3.286282203E1,2.655953169E0,5.498600006E-2,-6.947059631E-1
3.288071254E1,1.829349518E0,-1.729524136E-2,-1.772966385E-1
3.289860908E1,1.763661385E0,-2.951395512E-1,9.195709229E-2
3.291650245E1,1.892349720E0,-7.630147934E-1,9.339113235E-1
3.293439570E1,1.428390265E0,2.391444445E-1,-1.953115463E-1
3.295228908E1,1.637452126E0,-1.869547367E-1,-1.145849228E-1
3.297018306E1,1.978403449E0,-1.331801414E-1,-3.351573944E-1
3.298807313E1,1.820041180E0,-3.146636486E-1,-4.727058411E-1
3.300597242E1,2.091385126E0,-2.948725224E-1,5.469322205E-3
3.302386280E1,1.512417912E0,-3.171620369E-1,4.958610535E-1
3.304175630E1,1.879772782E0,2.812767029E-2,-6.951398849E-1
3.305964088E1,2.447418690E0,8.058428764E-3,-8.117933273E-1
3.307754640E1,1.166001797E0,-1.364445686E-1,-5.102491379E-1
3.309543678E1,1.991801739E0,-2.810311317E-1,1.723718643E-1
3.311333034E1,1.941058636E0,-3.810815811E-1,3.582925797E-1
3.313122334E1,1.165486693E0,1.083447337E-1,-7.710685730E-1
3.314911397E1,1.878142595E0,-4.289056063E-1,2.355670929E-1
3.316701069E1,1.896843314E0,4.019845724E-1,-4.347248077E-1
3.318490663E1,1.366132736E0,1.804390550E-1,-3.388166428E-1
3.320279738E1,1.966761708E0,-1.991007328E-1,3.371458054E-1
3.322069087E1,1.212355375E0,-2.581876516E-1,3.462810516E-1
3.323856929E1,1.973089933E0,-1.630676985E-1,-8.386993408E-2
3.325647011E1,1.503131270E0,-1.243999004E-1,3.211994171E-1
3.327437135E1,1.291898727E0,-9.599971771E-2,-7.864418030E-1
3.329226436E1,1.940282345E0,-2.010869980E-1,2.960500717E-1
3.331015797E1,1.413912296E0,-7.563722134E-2,1.534423828E-1
3.332804890E1,1.227756143E0,-1.754471064E-1,3.373537064E-1
3.334593287E1,2.461555481E0,-1.907861233E-1,1.600637436E-1
3.336383833E1,1.421970725E0,-3.846058846E-1,5.049962997E-1
3.338171974E1,1.740998745E0,-1.555252075E-2,-6.536693573E-1
3.339962514E1,2.084426165E0,-2.399122715E-2,2.772865295E-1
3.341751875E1,9.952780008E-1,-2.330455780E-1,3.566713333E-1
3.343539753E1,1.485655785E0,2.909067869E-1,2.839546204E-1
3.345329445E1,1.554038405E0,2.025663853E-1,4.828252792E-1
3.347119465E1,7.644621134E-1,1.626111865E-1,5.111885071E-2
3.348908027E1,1.866590738E0,-2.576045990E-1,5.236415863E-1
3.350698884E1,2.132583380E0,-3.290002346E-1,3.130950928E-1
3.352487910E1,1.211422443E0,1.732786894E-1,-5.018072128E-1
3.354277284E1,1.677203655E0,1.904556751E-1,3.527288437E-1
3.356065742E1,1.055697560E0,5.648444891E-1,2.411623001E-1
3.357855977E1,1.389847875E0,1.004431248E-1,-8.682823181E-2
3.359645424E1,1.950482965E0,4.933404922E-2,2.716093063E-1
3.361434663E1,1.503829241E0,2.161927223E-1,-2.414445877E-1
3.363223976E1,1.902683377E0,7.705199718E-2,2.322645187E-1
3.365013356E1,1.352085352E0,-6.345069408E-2,9.932231903E-2
3.366802430E1,1.512162447E0,2.060301304E-1,-8.426856995E-2
3.368592036E1,1.467780709E0,2.682685852E-3,6.314983368E-1
3.370381373E1,1.235998392E0,-1.883567572E-1,1.752252579E-1
3.372170674E1,1.879984617E0,1.487538218E-1,-6.982898712E-2
3.373960054E1,1.534127235E0,5.201633573E-1,-3.450345993E-1
3.375749385E1,1.538306594E0,1.656119823E-1,4.693031311E-3
3.377538765E1,1.587694764E0,9.547382593E-2,3.606443405E-1
3.379328102E1,1.640122652E0,2.310374975E-1,4.401922226E-1
3.381117427E1,1.249591112E0,-3.793250322E-1,8.245878220E-1
3.382905610E1,1.535591602E0,-1.819968224E-1,8.208322525E-1
3.384696144E1,1.449417233E0,-5.250716209E-2,-7.022476196E-2
3.386485444E1,1.173772454E0,-6.513237953E-2,2.593994141E-3
3.388274824E1,1.556973338E0,3.241572976E-1,-1.111621857E-1
3.390064161E1,1.749558687E0,-1.143428087E-1,2.215299606E-1
3.391853505E1,1.651618481E0,-3.692985773E-1,5.318279266E-1
3.393642866E1,1.545652151E0,-2.839318514E-1,6.931514740E-1
3.395432228E1,1.310457587E0,1.157057285E-1,8.975362778E-1
3.397221333E1,1.509666800E0,4.088793993E-1,5.885076523E-1
3.399010914E1,8.550013900E-1,1.518616080E-1,2.648973465E-1
3.400799861E1,1.840040803E0,5.787536502E-1,-4.581146240E-1
3.402589595E1,1.238123059E0,-3.256990910E-1,9.137191772E-1
3.404379316E1,8.540152311E-1,-9.580528736E-2,1.527786255E-2
3.406167055E1,1.993318439E0,-7.425081730E-2,1.535701752E-2
3.407957594E1,1.246233821E0,-6.053316593E-2,6.352519989E-2
3.409746950E1,8.885362148E-1,6.054162979E-3,-6.932449341E-2
3.411536323E1,1.629169464E0,1.557916403E-1,-5.392551422E-2
3.413325654E1,7.623360157E-1,5.331147909E-1,-2.413702011E-1
3.415114985E1,9.428632259E-1,-4.509711266E-1,2.921657562E-1
3.416903126E1,1.692328453E0,-8.612620831E-2,-3.440399170E-1
3.418693684E1,7.034900188E-1,1.721687317E-1,-7.366838455E-1
3.420483027E1,9.567566514E-1,2.018835545E-1,-6.340274811E-1
3.422272334E1,1.322005272E0,2.675369978E-1,-5.617456436E-1
3.424061720E1,1.019560575E0,-3.099262714E-1,-5.560426712E-1
3.425851069E1,9.458547831E-1,-2.192479372E-1,6.388854980E-2
3.427640394E1,1.082324028E0,3.193759918E-2,-4.858417511E-1
3.429429756E1,1.276005983E0,3.295226097E-1,-6.638298035E-1
3.431219093E1,5.558349490E-1,-3.880153894E-1,3.522167206E-1
3.433008436E1,9.423376322E-1,-5.944633484E-2,-2.328777313E-1
3.434797548E1,1.358953834E0,-3.327386379E-1,1.885519028E-1
3.436587129E1,4.808285534E-1,-3.659605980E-3,-4.215078354E-1
3.438376460E1,9.122738838E-1,-1.130352020E-1,-1.635265350E-1
3.440165816E1,1.055740476E0,3.959298134E-2,2.472381592E-1
3.441955171E1,5.931519270E-1,5.579018593E-2,-2.089118958E-2
3.443744508E1,6.989195347E-1,-3.897502422E-1,7.728624344E-1
3.445533858E1,1.208340287E0,7.107931376E-2,2.810373306E-1
3.447321724E1,4.744092822E-1,-1.486610174E-1,-1.045026779E-1
3.449112550E1,1.200876832E0,-1.579259634E-1,1.362180710E-1
3.450900734E1,4.564698935E-1,3.029751778E-2,6.688766479E-1
3.452691243E1,5.144577026E-1,-2.161997557E-1,4.324913025E-2
3.454480562E1,1.134671450E0,-6.162694693E-1,5.716333389E-1
3.456269044E1,1.092322111E0,1.613795757E-2,-8.180141449E-2
3.458059272E1,3.544479311E-1,4.008181095E-1,5.595369339E-1
3.459848597E1,6.230716705E-1,1.015194654E-1,1.065881729E0
3.461637959E1,1.509524584E-1,-8.307456970E-3,8.451118469E-1
3.463427290E1,1.071283817E0,2.556848526E-2,3.794622421E-1
3.465216646E1,1.083248138E0,-1.053160429E-1,-3.639640808E-1
3.467005983E1,3.596034348E-1,-3.893285990E-1,4.916419983E-1
3.468795338E1,4.935935736E-1,2.956605554E-1,7.292747498E-3
3.470584669E1,6.687559485E-1,-3.061770201E-1,-1.511039734E-1
3.472374025E1,1.231276870E0,-1.011677980E-1,4.048433304E-1
3.474163350E1,4.213746488E-1,1.494045854E-1,-1.459169388E-1
3.475952705E1,2.169255763E-1,-1.469818354E-1,1.843824387E-1
3.477742085E1,8.157095909E-1,4.411143064E-2,5.973339081E-2
3.479531392E1,4.359486699E-1,-3.859070539E-1,2.562818527E-1
3.481320753E1,1.283999443E0,3.194364309E-1,-4.842453003E-1
3.483110103E1,6.347610950E-1,-2.364982367E-1,-1.793670654E-2
3.484898311E1,5.420761704E-1,1.705938578E-2,-6.017370224E-1
3.486688496E1,1.285695434E0,-3.888350725E-1,5.150947571E-1
3.488478120E1,4.982676506E-1,-9.900987148E-2,2.433338165E-1
3.490267476E1,5.613245368E-1,-2.441436052E-1,1.265316010E-1
3.492056831E1,1.122266769E0,-1.627047062E-1,-2.113914490E-2
3.493846162E1,3.282186687E-1,4.097580910E-3,-2.410917282E-1
3.495634926E1,1.011972666E0,-2.322210073E-1,4.093008041E-1
3.497424867E1,6.545447111E-1,-3.475292921E-1,5.220623016E-1
3.499213862E1,5.033573508E-2,-2.011070251E-1,1.348180771E-1
3.501002376E1,1.137544751E0,-8.317399025E-2,1.624965668E-1
3.502792891E1,7.243804932E-1,-7.010912895E-2,-3.438816071E-1
3.504582246E1,6.888771057E-1,-2.360508442E-1,9.398174286E-2
3.506371846E1,7.655363083E-1,-2.284622192E-1,2.778367996E-1
3.508160957E1,3.967387080E-1,-5.445995331E-1,5.516071320E-1
3.509950258E1,7.978792191E-1,2.097523212E-1,-3.565788269E-2
3.511739613E1,8.778021932E-1,-1.527462006E-1,-1.976242065E-1
3.513528950E1,3.986648619E-1,1.666373610E-1,-1.192893982E-1
3.515318330E1,8.357554078E-1,-6.716591120E-2,2.956867218E-2
3.517107612E1,6.524389386E-1,-6.837109923E-1,5.913667679E-1
3.518895802E1,6.570352912E-1,-3.592379093E-1,2.643260956E-1
3.520686494E1,1.064301014E0,-5.015937686E-1,5.353641510E-1
3.522475679E1,4.099681973E-2,6.594610214E-2,1.606445312E-1
3.524265034E1,1.023786783E0,-1.133933663E-1,-2.784776688E-1
3.526054359E1,8.202977777E-1,-2.686056495E-1,3.575181961E-1
3.527843727E1,2.914554477E-1,-1.604771614E-2,9.218215942E-2
3.529633308E1,7.195627689E-1,-3.758285046E-1,7.911748886E-1
3.531422407E1,6.349265575E-1,1.370701194E-1,1.281261444E-1
3.533211744E1,9.528168440E-1,-3.371872306E-1,6.678867340E-2
3.535001100E1,8.649848700E-1,-3.377280235E-1,7.308187485E-1
3.536789302E1,9.388151169E-1,-4.053222537E-1,1.214227676E-1
3.538579780E1,6.796784401E-1,-1.115347147E-1,-8.294296265E-2
3.540369111E1,5.762776136E-1,1.446725726E-1,-2.901287079E-1
3.542158461E1,7.506562471E-1,-2.829031944E-1,3.759841919E-1
3.543947798E1,8.645850420E-1,-4.781618714E-1,3.908109665E-1
3.545737123E1,7.413452864E-1,-3.282460570E-1,2.212018967E-1
3.547526515E1,1.441741824E0,-3.675999641E-1,-7.906055450E-2
3.549315870E1,1.304753542E0,-1.152276397E-1,-7.663545609E-1
3.551105195E1,1.010130167E0,-5.798061490E-1,1.662588120E-1
3.552893361E1,9.981647134E-1,1.589699388E-1,4.962348938E-2
3.554683589E1,5.494326353E-1,-5.292941928E-1,4.657239914E-1
3.556473530E1,1.351256609E0,-1.453415155E-1,-1.719064713E-1
3.558262568E1,1.396238446E0,-6.338615417E-1,3.110656738E-1
3.560051930E1,1.251986146E0,-9.924638271E-2,-5.937356949E-1
3.561841249E1,1.331128240E0,-3.664810658E-1,-1.490879059E-1
3.563630610E1,1.750116110E0,-6.759474277E-1,3.949365616E-1
3.565419966E1,1.050468564E0,-1.655452251E-1,-1.510219574E-1
3.567209303E1,1.726979256E0,-3.413015604E-1,-5.860567093E-1
3.568998958E1,1.890034199E0,2.492840290E-1,-2.003898621E-1
