"Time (s)","Acceleration x (m/s^2)","Acceleration y (m/s^2)","Acceleration z (m/s^2)"
2.747265400E-2,9.684949875E0,1.006780148E0,1.366899967E0
2.985494500E-2,9.627521515E0,9.966106415E-1,1.400997639E0
3.223723700E-2,9.580264091E0,9.481559992E-1,1.405783296E0
3.461958100E-2,9.542576790E0,9.146564603E-1,1.448854089E0
3.700187300E-2,9.499505997E0,8.470591903E-1,1.444666624E0
3.938416400E-2,9.461818695E0,7.992027402E-1,1.435095429E0
4.176645600E-2,9.452845573E0,7.704889178E-1,1.430907965E0
4.414874800E-2,9.428917885E0,7.411768436E-1,1.406979680E0
4.653103900E-2,9.429515839E0,6.981059909E-1,1.406979680E0
4.891333100E-2,9.415757179E0,6.550351977E-1,1.417149186E0
5.129562300E-2,9.425328255E0,6.406782866E-1,1.421934843E0
5.367791400E-2,9.416355133E0,5.832505226E-1,1.421934843E0
5.606020600E-2,9.426525116E0,5.449653864E-1,1.412363529E0
5.844249800E-2,9.431310654E0,5.162515044E-1,1.403390527E0
6.082478900E-2,9.441479683E0,4.875376225E-1,1.379462242E0
6.320713300E-2,9.455837250E0,4.492524564E-1,1.360319614E0
6.558942500E-2,9.470791817E0,4.061816335E-1,1.350748420E0
6.797171600E-2,9.485149384E0,4.019941986E-1,1.345962763E0
7.035400800E-2,9.494720459E0,4.115654826E-1,1.365105271E0
7.273630000E-2,9.518648148E0,4.259224236E-1,1.374676585E0
7.511859100E-2,9.547362328E0,4.313062727E-1,1.389033556E0
7.750088300E-2,9.566504478E0,4.600201547E-1,1.393819213E0
7.988317500E-2,9.576076508E0,4.791627228E-1,1.393819213E0
8.226546600E-2,9.599406242E0,4.941178858E-1,1.417747378E0
8.464775800E-2,9.604191780E0,5.036891699E-1,1.436291814E0
8.703005000E-2,9.623334885E0,5.042873621E-1,1.441077471E0
8.941234100E-2,9.613762856E0,5.132604837E-1,1.455434322E0
9.179463300E-2,9.618548393E0,5.180460811E-1,1.441077471E0
9.417697700E-2,9.632905960E0,5.234299302E-1,1.460219979E0
9.655926800E-2,9.632308006E0,5.569294691E-1,1.460219979E0
9.894156000E-2,9.656235695E0,5.766702294E-1,1.484148264E0
1.013238520E-1,9.665208817E0,6.197410822E-1,1.473978758E0
1.037061430E-1,9.679565430E0,6.394818425E-1,1.488335729E0
1.060884350E-1,9.688538551E0,6.586244106E-1,1.488335729E0
1.084707270E-1,9.678967476E0,6.825526357E-1,1.493121386E0
1.108530180E-1,9.692726135E0,7.016952634E-1,1.478764415E0
1.132353100E-1,9.697511673E0,7.256234884E-1,1.478764415E0
1.156176020E-1,9.701699257E0,7.543373108E-1,1.478166223E0
1.179999450E-1,9.725627899E0,7.782655358E-1,1.478166223E0
1.203822370E-1,9.739386559E0,8.021938205E-1,1.473380566E0
1.227645290E-1,9.739386559E0,8.309076428E-1,1.478166223E0
1.251468200E-1,9.753743172E0,8.500502706E-1,1.482951880E0
1.275291120E-1,9.772287369E0,8.602197170E-1,1.477568030E0
1.299114040E-1,9.743574142E0,8.787640929E-1,1.467996716E0
1.322936950E-1,9.743574142E0,9.074779749E-1,1.434497118E0
1.346759870E-1,9.729216576E0,8.829515576E-1,1.420140266E0
1.370582790E-1,9.714859962E0,8.829515576E-1,1.396211982E0
1.394405700E-1,9.700503349E0,8.685946465E-1,1.391426325E0
1.418228620E-1,9.724431038E0,8.685946465E-1,1.386640668E0
1.442052060E-1,9.729216576E0,8.877372146E-1,1.386640668E0
1.465874980E-1,9.747760773E0,9.068797827E-1,1.386640668E0
1.489697890E-1,9.762716293E0,8.931210637E-1,1.405783296E0
1.513520810E-1,9.796216011E0,8.554341197E-1,1.420140266E0
1.537343730E-1,9.820143700E0,8.362914920E-1,1.420738459E0
1.561166640E-1,9.820742607E0,7.932206988E-1,1.439880967E0
1.584989560E-1,9.830911636E0,7.651050687E-1,1.439880967E0
1.608812480E-1,9.854840279E0,7.603194118E-1,1.435095429E0
1.632635390E-1,9.850054741E0,7.268198729E-1,1.435095429E0
1.656458830E-1,9.869196892E0,7.363911867E-1,1.415952802E0
1.680281230E-1,9.873982430E0,7.268198729E-1,1.396810174E0
1.704104660E-1,9.864411354E0,7.363911867E-1,1.392024517E0
1.727927580E-1,9.859625816E0,7.268198729E-1,1.377667665E0
1.751750500E-1,9.850652695E0,6.981059909E-1,1.378265858E0
1.775573410E-1,9.845867157E0,6.885347366E-1,1.368694544E0
1.799396330E-1,9.821938515E0,6.879364848E-1,1.387837172E0
1.823219250E-1,9.821938515E0,6.879364848E-1,1.387837172E0
1.847042160E-1,9.821938515E0,6.831508875E-1,1.392622828E0
1.870865080E-1,9.812367439E0,6.640082598E-1,1.397408366E0
1.894688000E-1,9.793225288E0,6.831508875E-1,1.402194023E0
1.918510910E-1,9.783653259E0,6.831508875E-1,1.416550994E0
1.942334350E-1,9.759725571E0,6.921239495E-1,1.392622828E0
1.966157270E-1,9.745368004E0,7.016952634E-1,1.397408366E0
1.989980180E-1,9.721440315E0,7.154539824E-1,1.359123230E0
2.013803100E-1,9.692726135E0,7.298108935E-1,1.354337573E0
2.037626020E-1,9.687940598E0,7.387840152E-1,1.344168067E0
2.061448930E-1,9.649655342E0,7.100701332E-1,1.335195065E0
2.085271850E-1,9.644869804E0,7.004988194E-1,1.363908887E0
2.109094770E-1,9.630513191E0,7.004988194E-1,1.354337573E0
2.132917680E-1,9.602396965E0,6.759724021E-1,1.368694544E0
2.156740600E-1,9.568898201E0,6.855437160E-1,1.363908887E0
2.180563520E-1,9.544969559E0,6.993024349E-1,1.359123230E0
2.204386950E-1,9.539586067E0,6.801598072E-1,1.373480201E0
2.228209870E-1,9.544969559E0,6.999006271E-1,1.416550994E0
2.252032790E-1,9.544969559E0,6.807580590E-1,1.435693622E0
2.275855700E-1,9.568898201E0,6.711867452E-1,1.473978758E0
2.299678620E-1,9.573683739E0,6.957131624E-1,1.488335729E0
2.323501540E-1,9.588040352E0,6.861419082E-1,1.536192179E0
2.347324450E-1,9.611968994E0,7.058826685E-1,1.564906001E0
2.371147370E-1,9.650253296E0,6.921239495E-1,1.564906001E0
2.394970290E-1,9.650253296E0,6.681957245E-1,1.588834286E0
2.418793200E-1,9.655637741E0,6.490531564E-1,1.593619823E0
2.442616120E-1,9.674779892E0,6.394818425E-1,1.588834286E0
2.466439040E-1,9.678967476E0,6.634100676E-1,1.593619823E0
2.490262480E-1,9.678967476E0,6.490531564E-1,1.598405480E0
2.514085390E-1,9.669396400E0,6.538388133E-1,1.584048629E0
2.537908310E-1,9.674181938E0,6.586244106E-1,1.569691658E0
2.561731230E-1,9.650253296E0,6.538388133E-1,1.564906001E0
2.585554140E-1,9.650253296E0,6.634100676E-1,1.560120344E0
2.609377060E-1,9.659825325E0,6.873382926E-1,1.564906001E0
2.633199980E-1,9.654440880E0,7.064808607E-1,1.569691658E0
2.657022890E-1,9.659226418E0,7.064808607E-1,1.574477315E0
2.680845810E-1,9.654440880E0,7.351947427E-1,1.579262972E0
2.704669250E-1,9.664012909E0,7.399803996E-1,1.574477315E0
2.728492160E-1,9.654440880E0,7.393822074E-1,1.540977836E0
2.752315080E-1,9.668798447E0,7.441678643E-1,1.512263894E0
2.776138000E-1,9.663414001E0,7.633104324E-1,1.487737536E0
2.799960910E-1,9.663414001E0,7.537391186E-1,1.459023595E0
2.823783830E-1,9.668798447E0,7.441678643E-1,1.435095429E0
2.847606750E-1,9.687940598E0,7.393822074E-1,1.401595831E0
2.871429660E-1,9.664012909E0,7.244270444E-1,1.373480201E0
2.895252580E-1,9.673583984E0,7.339983582E-1,1.354337573E0
2.919075500E-1,9.683155060E0,7.196413875E-1,1.339980721E0
2.942898410E-1,9.654440880E0,7.052844763E-1,1.335195065E0
2.966721850E-1,9.649655342E0,7.244270444E-1,1.335195065E0
2.990544770E-1,9.644869804E0,7.339983582E-1,1.330409408E0
3.014367680E-1,9.644271851E0,7.579265833E-1,1.344168067E0
3.038190600E-1,9.658628464E0,7.866404653E-1,1.358525038E0
3.062013520E-1,9.649057388E0,7.914260626E-1,1.368096352E0
3.085836430E-1,9.658628464E0,7.818548083E-1,1.382453322E0
3.109659350E-1,9.658628464E0,7.770691514E-1,1.420738459E0
3.133482270E-1,9.663414001E0,7.728816867E-1,1.454237938E0
3.157305180E-1,9.663414001E0,7.968099117E-1,1.463809252E0
3.181128100E-1,9.672985077E0,8.015955687E-1,1.506880045E0
3.204951020E-1,9.691530228E0,8.165507317E-1,1.545165181E0
3.228774450E-1,9.682557106E0,8.117650747E-1,1.559522152E0
3.252597370E-1,9.705886841E0,8.213363886E-1,1.545165181E0
3.276420290E-1,9.696315765E0,8.309076428E-1,1.530808330E0
3.300243200E-1,9.696315765E0,8.404789567E-1,1.530808330E0
3.324066120E-1,9.701101303E0,8.404789567E-1,1.545165181E0
3.347889040E-1,9.691530228E0,8.596215248E-1,1.559522152E0
3.371711950E-1,9.696315765E0,8.356932998E-1,1.559522152E0
3.395534870E-1,9.705886841E0,8.356932998E-1,1.564307809E0
3.419357790E-1,9.710672379E0,8.404789567E-1,1.549950838E0
3.443180700E-1,9.705288887E0,8.691928387E-1,1.545165181E0
3.467003620E-1,9.714859962E0,8.739784956E-1,1.539781332E0
3.490827060E-1,9.705886841E0,8.644071817E-1,1.511665702E0
3.514649980E-1,9.734601021E0,8.404789567E-1,1.487737536E0
3.538472890E-1,9.710672379E0,8.309076428E-1,1.497308731E0
3.562295810E-1,9.696315765E0,8.350951076E-1,1.497308731E0
3.586118730E-1,9.696315765E0,8.494520187E-1,1.473380566E0
3.609941640E-1,9.677172661E0,8.542376757E-1,1.478166223E0
3.633764560E-1,9.667003632E0,8.727820516E-1,1.454237938E0
3.657587480E-1,9.662816048E0,8.679963946E-1,1.444666624E0
3.681410390E-1,9.658030510E0,8.679963946E-1,1.430309772E0
3.705233310E-1,9.643673897E0,8.440681696E-1,1.444666624E0
3.729056230E-1,9.653244972E0,8.679963946E-1,1.439880967E0
3.752879660E-1,9.648459435E0,8.536394835E-1,1.454237938E0
3.776702580E-1,9.643673897E0,8.584251404E-1,1.459023595E0
3.800525500E-1,9.619147301E0,8.769695163E-1,1.439880967E0
3.824348410E-1,9.653244972E0,8.440681696E-1,1.449452281E0
3.848171330E-1,9.653244972E0,8.303094506E-1,1.482951880E0
3.871994250E-1,9.662816048E0,8.255237937E-1,1.502094388E0
3.895817160E-1,9.634700775E0,7.872386575E-1,1.516451359E0
3.919640080E-1,9.644869804E0,7.585247755E-1,1.521237016E0
3.943463000E-1,9.659226418E0,7.489534616E-1,1.517049551E0
3.967285910E-1,9.659226418E0,7.298108935E-1,1.521835208E0
3.991109350E-1,9.659226418E0,7.441678643E-1,1.521835208E0
4.014932270E-1,9.653842926E0,7.728816867E-1,1.530808330E0
4.038755180E-1,9.677771568E0,7.680960894E-1,1.511665702E0
4.062578100E-1,9.725627899E0,7.782655358E-1,1.545165181E0
4.086401020E-1,9.744770050E0,7.501499057E-1,1.573879123E0
4.110223930E-1,9.778867722E0,7.172485590E-1,1.612762451E0
4.134046850E-1,9.808179855E0,6.795616150E-1,1.636690736E0
4.157869770E-1,9.832108498E0,6.652047038E-1,1.617548108E0
4.181692680E-1,9.832108498E0,6.221339107E-1,1.588834286E0
4.205515600E-1,9.813564301E0,6.125625968E-1,1.574477315E0
4.229338520E-1,9.799206734E0,6.167500615E-1,1.531406522E0
4.253161950E-1,9.770493507E0,6.065805554E-1,1.507478237E0
4.276984870E-1,9.741181374E0,6.305087805E-1,1.469193101E0
4.300807790E-1,9.717252731E0,6.442674994E-1,1.478764415E0
4.324630700E-1,9.717252731E0,6.634100676E-1,1.478764415E0
4.348453620E-1,9.707083702E0,7.064808607E-1,1.497906923E0
4.372276540E-1,9.692726135E0,7.304090858E-1,1.517049551E0
4.396099450E-1,9.707083702E0,7.447660565E-1,1.545165181E0
4.419922370E-1,9.707083702E0,7.543373108E-1,1.564307809E0
4.443745290E-1,9.692128181E0,7.686942816E-1,1.588235974E0
4.467568200E-1,9.692128181E0,7.830511928E-1,1.602592945E0
4.491391640E-1,9.687342644E0,8.021938205E-1,1.607378602E0
4.515214560E-1,9.687342644E0,7.926225066E-1,1.631306887E0
4.539037480E-1,9.672985077E0,7.974081635E-1,1.631306887E0
4.562860390E-1,9.653842926E0,8.021938205E-1,1.645663738E0
4.586683310E-1,9.620343208E0,7.920243144E-1,1.612164259E0
4.610506230E-1,9.591629982E0,8.153542876E-1,1.621735573E0
4.634329140E-1,9.586843491E0,8.153542876E-1,1.597807288E0
4.658152060E-1,9.582057953E0,7.962117195E-1,1.573879123E0
4.681974980E-1,9.572486877E0,7.962117195E-1,1.559522152E0
4.705797890E-1,9.533603668E0,8.195417523E-1,1.559522152E0
4.729620810E-1,9.509077072E0,8.572286963E-1,1.569093466E0
4.753444250E-1,9.475577354E0,8.715856671E-1,1.578664780E0
4.777267160E-1,9.470193863E0,9.290133715E-1,1.582852125E0
4.801090080E-1,9.489336014E0,9.337990284E-1,1.592423439E0
4.824913000E-1,9.527023315E0,9.678967595E-1,1.611566067E0
4.848735910E-1,9.537193298E0,9.296116233E-1,1.621137381E0
4.872558830E-1,9.542576790E0,9.200403094E-1,1.630708575E0
4.896381750E-1,9.557532310E0,8.871390224E-1,1.602592945E0
4.920204660E-1,9.547960281E0,8.769695163E-1,1.593021631E0
4.944027580E-1,9.528220177E0,8.530412912E-1,1.554736495E0
4.967850500E-1,9.533005714E0,8.482556343E-1,1.588235974E0
4.991673410E-1,9.547960281E0,8.865407705E-1,1.559522152E0
5.015496850E-1,9.552745819E0,8.817551732E-1,1.530808330E0
5.039319770E-1,9.571888924E0,8.913264275E-1,1.526022673E0
5.063142680E-1,9.562317848E0,8.626125455E-1,1.526022673E0
5.086965600E-1,9.586245537E0,8.338986635E-1,1.411167145E0
5.110788520E-1,9.586843491E0,8.195417523E-1,1.463809252E0
5.134611430E-1,9.581459999E0,8.338986635E-1,1.502094388E0
5.158434350E-1,9.562317848E0,8.673982024E-1,1.564307809E0
5.182257270E-1,9.562317848E0,8.865407705E-1,1.578664780E0
5.206080180E-1,9.590433121E0,9.110672474E-1,1.554138303E0
5.229903100E-1,9.619147301E0,9.062815905E-1,1.534995675E0
5.253726540E-1,9.662218094E0,9.164510965E-1,1.554138303E0
5.277549450E-1,9.657432556E0,9.068797827E-1,1.544566989E0
5.301372370E-1,9.686145782E0,9.020941257E-1,1.530210137E0
5.325195290E-1,9.701101303E0,8.542376757E-1,1.497308731E0
5.349018200E-1,9.690931320E0,8.685946465E-1,1.487737536E0
5.372841120E-1,9.695717812E0,8.877372146E-1,1.477568030E0
5.396664040E-1,9.724431038E0,9.116654396E-1,1.448854089E0
5.420486950E-1,9.709476471E0,9.403793216E-1,1.491924882E0
5.444309870E-1,9.695118904E0,9.308080077E-1,1.463211060E0
5.468132790E-1,9.676574707E0,9.212366939E-1,1.448854089E0
5.491956230E-1,9.695717812E0,8.973084688E-1,1.429711580E0
5.515779140E-1,9.696315765E0,8.494520187E-1,1.415952802E0
5.539602060E-1,9.696913719E0,7.824530005E-1,1.411167145E0
5.563424980E-1,9.702896118E0,6.819544435E-1,1.402194023E0
5.587247890E-1,9.731011391E0,6.819544435E-1,1.368694544E0
5.611070810E-1,9.769296646E0,6.777670383E-1,1.368694544E0
5.634893730E-1,9.798608780E0,6.209374666E-1,1.402194023E0
5.658716640E-1,9.755537987E0,1.100698411E-1,6.484549642E-1
5.682539560E-1,9.628718376E0,-5.862415582E-2,5.970092416E-1
5.706362480E-1,9.544969559E0,2.344966233E-1,1.170090318E0
5.730185390E-1,9.518050194E0,4.695914388E-1,1.479960799E0
5.754008310E-1,9.525827408E0,6.382854581E-1,1.579861164E0
5.777831750E-1,9.568299294E0,7.770691514E-1,1.626521230E0
5.801654660E-1,9.667601585E0,8.452646136E-1,1.612164259E0
5.825477580E-1,9.771689415E0,9.176474810E-1,1.544566989E0
5.849300500E-1,9.914660454E0,9.667003751E-1,1.539183140E0
5.873123410E-1,1.003848934E1,9.918249846E-1,1.515254974E0
5.896946330E-1,1.012881851E1,1.021735311E0,1.543968797E0
5.920769250E-1,1.017667484E1,1.031904817E0,1.572682738E0
5.944592160E-1,1.021077251E1,9.990034699E-1,1.601396561E0
5.968415080E-1,1.019162941E1,9.607182741E-1,1.668395638E0
5.992238520E-1,1.013958549E1,9.272187948E-1,1.692921996E0
6.016061430E-1,1.006780148E1,9.409775138E-1,1.697707653E0
6.039884350E-1,1.000080204E1,9.445667267E-1,1.664208174E0
6.063707270E-1,9.905089378E0,9.768698215E-1,1.601396561E0
6.087530180E-1,9.814162254E0,9.894321561E-1,1.529611826E0
6.111353100E-1,9.732806206E0,9.888339639E-1,1.482353687E0
6.135176020E-1,9.656833649E0,9.637092948E-1,1.424925923E0
6.158998930E-1,9.604789734E0,9.200403094E-1,1.400997639E0
6.182821850E-1,9.556933403E0,8.859425783E-1,1.401595831E0
6.206644770E-1,9.509077072E0,8.614161611E-1,1.382453322E0
6.230468200E-1,9.475577354E0,8.464609981E-1,1.363310695E0
6.254291120E-1,9.466006279E0,8.560323119E-1,1.320239902E0
6.278114040E-1,9.456435204E0,8.512466550E-1,1.296311617E0
6.301936950E-1,9.456435204E0,8.416753411E-1,1.305882931E0
6.325759870E-1,9.456435204E0,8.560323119E-1,1.315454245E0
6.349582790E-1,9.470791817E0,8.656035662E-1,1.329811215E0
6.373405700E-1,9.504291534E0,8.518448472E-1,1.358525038E0
6.397228620E-1,9.523433685E0,8.422735929E-1,1.387238979E0
6.421051540E-1,9.557532310E0,8.380861282E-1,1.425524116E0
6.444874450E-1,9.571888924E0,8.482556343E-1,1.439880967E0
6.468697370E-1,9.605388641E0,8.536394835E-1,1.482951880E0
6.492520810E-1,9.638887405E0,8.632107973E-1,1.478166223E0
6.516343730E-1,9.653244972E0,8.733802438E-1,1.502094388E0
6.540166640E-1,9.686145782E0,8.973084688E-1,1.487139225E0
6.563989560E-1,9.681360245E0,8.973084688E-1,1.506281853E0
6.587812480E-1,9.695717812E0,8.925228715E-1,1.515853167E0
6.611635390E-1,9.695717812E0,8.931210637E-1,1.534995675E0
6.635458310E-1,9.714859962E0,9.122636318E-1,1.515853167E0
6.659281230E-1,9.705288887E0,8.883354068E-1,1.525424480E0
6.683104140E-1,9.705288887E0,8.979067206E-1,1.525424480E0
6.706927060E-1,9.705288887E0,8.931210637E-1,1.511067510E0
6.730750500E-1,9.690931320E0,8.925228715E-1,1.515853167E0
6.754573410E-1,9.676574707E0,8.685946465E-1,1.492523074E0
6.778396330E-1,9.667003632E0,8.733802438E-1,1.487737536E0
6.802219250E-1,9.667003632E0,8.925228715E-1,1.477568030E0
6.826042160E-1,9.657432556E0,8.871390224E-1,1.472782373E0
6.849865080E-1,9.653244972E0,8.632107973E-1,1.463809252E0
6.873688000E-1,9.662218094E0,8.727820516E-1,1.444666624E0
6.897510910E-1,9.653244972E0,8.632107973E-1,1.435095429E0
6.921333830E-1,9.648459435E0,8.536394835E-1,1.425524116E0
6.945156750E-1,9.653244972E0,8.584251404E-1,1.411167145E0
6.968980180E-1,9.658030510E0,8.632107973E-1,1.420738459E0
6.992803100E-1,9.648459435E0,8.632107973E-1,1.415952802E0
7.016626020E-1,9.653244972E0,8.584251404E-1,1.392024517E0
7.040448930E-1,9.643673897E0,8.536394835E-1,1.396810174E0
7.064271850E-1,9.657432556E0,8.679963946E-1,1.392024517E0
7.088094770E-1,9.672387123E0,8.584251404E-1,1.392024517E0
7.111917680E-1,9.672387123E0,8.488538265E-1,1.401595831E0
7.135740600E-1,9.667601585E0,8.440681696E-1,1.387238979E0
7.159563520E-1,9.677172661E0,8.536394835E-1,1.387238979E0
7.183386430E-1,9.686744690E0,8.392825127E-1,1.392024517E0
7.207209350E-1,9.686744690E0,8.536394835E-1,1.382453322E0
7.231032790E-1,9.695717812E0,8.590233326E-1,1.392024517E0
7.254855700E-1,9.705288887E0,8.733802438E-1,1.400997639E0
7.278678620E-1,9.710074425E0,8.590233326E-1,1.411167145E0
7.302501540E-1,9.720243454E0,8.398807645E-1,1.420738459E0
7.326324450E-1,9.744172096E0,8.356932998E-1,1.415952802E0
7.350147370E-1,9.739386559E0,8.404789567E-1,1.435095429E0
7.373970290E-1,9.744172096E0,8.452646136E-1,1.439880967E0
7.397793200E-1,9.744172096E0,8.356932998E-1,1.454237938E0
7.421616120E-1,9.748957634E0,8.404789567E-1,1.439880967E0
7.445439040E-1,9.748957634E0,8.309076428E-1,1.463809252E0
7.469262480E-1,9.739386559E0,8.261220455E-1,1.473380566E0
7.493085390E-1,9.744172096E0,8.452646136E-1,1.478166223E0
7.516908310E-1,9.753743172E0,8.452646136E-1,1.468594909E0
7.540731230E-1,9.748957634E0,8.356932998E-1,1.459023595E0
7.564554140E-1,9.758528709E0,8.452646136E-1,1.459023595E0
7.588377060E-1,9.748957634E0,8.309076428E-1,1.454237938E0
7.612199980E-1,9.748957634E0,8.213363886E-1,1.473380566E0
7.636022890E-1,9.758528709E0,8.261220455E-1,1.463809252E0
7.659845810E-1,9.758528709E0,8.356932998E-1,1.468594909E0
7.683669250E-1,9.748957634E0,8.404789567E-1,1.468594909E0
7.707492160E-1,9.739386559E0,8.452646136E-1,1.463809252E0
7.731315080E-1,9.734601021E0,8.452646136E-1,1.468594909E0
7.755138000E-1,9.725028992E0,8.548358679E-1,1.478166223E0
7.778960910E-1,9.701101303E0,8.494520187E-1,1.459023595E0
7.802783830E-1,9.686744690E0,8.542376757E-1,1.473380566E0
7.826606750E-1,9.677172661E0,8.638089895E-1,1.487737536E0
7.850429660E-1,9.643673897E0,8.679963946E-1,1.487737536E0
7.874252580E-1,9.628718376E0,8.775677085E-1,1.487737536E0
7.898075500E-1,9.623932838E0,8.775677085E-1,1.478166223E0
7.921898930E-1,9.604789734E0,8.823533654E-1,1.478166223E0
7.945721850E-1,9.590433121E0,8.913264275E-1,1.477568030E0
7.969544770E-1,9.590433121E0,8.865407705E-1,1.468594909E0
7.993367680E-1,9.581459999E0,8.721838593E-1,1.463809252E0
8.017190600E-1,9.576674461E0,8.817551732E-1,1.449452281E0
8.041013520E-1,9.562317848E0,8.626125455E-1,1.463809252E0
8.064836430E-1,9.562317848E0,8.817551732E-1,1.454237938E0
8.088659350E-1,9.567103386E0,8.769695163E-1,1.444666624E0
8.112482270E-1,9.567103386E0,8.769695163E-1,1.439880967E0
8.136305180E-1,9.580862045E0,8.913264275E-1,1.429711580E0
8.160128100E-1,9.585647583E0,9.008977413E-1,1.415354609E0
8.183951540E-1,9.591031075E0,8.721838593E-1,1.401595831E0
8.207774450E-1,9.604789734E0,8.769695163E-1,1.406381488E0
8.231597370E-1,9.623932838E0,8.721838593E-1,1.406381488E0
8.255420290E-1,9.647860527E0,8.775677085E-1,1.396211982E0
8.279243200E-1,9.657432556E0,8.823533654E-1,1.400997639E0
8.303066120E-1,9.652647018E0,8.871390224E-1,1.396211982E0
8.326889040E-1,9.681360245E0,8.871390224E-1,1.405783296E0
8.350711950E-1,9.710074425E0,8.925228715E-1,1.396211982E0
8.374534870E-1,9.724431038E0,8.829515576E-1,1.420140266E0
8.398358310E-1,9.738189697E0,9.068797827E-1,1.405783296E0
8.422181230E-1,9.757930756E0,8.835497499E-1,1.410568953E0
8.446004140E-1,9.786046028E0,9.026923180E-1,1.405783296E0
8.469827060E-1,9.814760208E0,9.032905698E-1,1.381855130E0
8.493649980E-1,9.838688850E0,9.320043921E-1,1.367498159E0
8.517472890E-1,9.833903313E0,9.224331379E-1,1.362712502E0
8.541295810E-1,9.838688850E0,9.176474810E-1,1.353141189E0
8.565118730E-1,9.843474388E0,9.176474810E-1,1.348355532E0
8.588941640E-1,9.848259926E0,8.985049129E-1,1.357926846E0
8.612764560E-1,9.853045464E0,9.032905698E-1,1.386640668E0
8.636588000E-1,9.833903313E0,9.080761671E-1,1.391426325E0
8.660410910E-1,9.809974670E0,8.985049129E-1,1.410568953E0
8.684233830E-1,9.801001549E0,8.889335990E-1,1.424925923E0
8.708056750E-1,9.801001549E0,8.793623447E-1,1.448854089E0
8.731879660E-1,9.767501831E0,8.650053740E-1,1.487139225E0
8.755702580E-1,9.743574142E0,8.596215248E-1,1.502094388E0
8.779525500E-1,9.729216576E0,8.644071817E-1,1.511067510E0
8.803348410E-1,9.705886841E0,8.452646136E-1,1.506880045E0
8.827171330E-1,9.696315765E0,8.356932998E-1,1.521237016E0
8.850994250E-1,9.677172661E0,8.165507317E-1,1.549950838E0
8.874817160E-1,9.668199539E0,8.165507317E-1,1.554736495E0
8.898640600E-1,9.639486313E0,7.968099117E-1,1.559522152E0
8.922463520E-1,9.620343208E0,7.920243144E-1,1.535593987E0
8.946286430E-1,9.610772133E0,8.009973764E-1,1.530808330E0
8.970109350E-1,9.596415520E0,7.770691514E-1,1.549950838E0
8.993932270E-1,9.591629982E0,7.866404653E-1,1.564307809E0
9.017755180E-1,9.591629982E0,8.009973764E-1,1.588235974E0
9.041578100E-1,9.577272415E0,7.962117195E-1,1.593021631E0
9.065401020E-1,9.562915802E0,7.914260626E-1,1.612164259E0
9.089223930E-1,9.582057953E0,7.968099117E-1,1.626521230E0
9.113046850E-1,9.582057953E0,8.159525394E-1,1.626521230E0
9.136870290E-1,9.586843491E0,8.207381964E-1,1.621735573E0
9.160693200E-1,9.591031075E0,8.344969153E-1,1.578664780E0
9.184516120E-1,9.595816612E0,8.297112584E-1,1.549950838E0
9.208339040E-1,9.614959717E0,8.536394835E-1,1.482951880E0
9.232161950E-1,9.610174179E0,8.482556343E-1,1.430309772E0
9.255984870E-1,9.619147301E0,8.721838593E-1,1.377667665E0
9.279807790E-1,9.623932838E0,8.865407705E-1,1.329213023E0
9.303630700E-1,9.628718376E0,8.817551732E-1,1.290927768E0
9.327453620E-1,9.633503914E0,8.763712645E-1,1.262213945E0
9.351277060E-1,9.638289452E0,8.859425783E-1,1.238285661E0
9.375099980E-1,9.662218094E0,8.961120844E-1,1.223928809E0
9.398922890E-1,9.681360245E0,8.865407705E-1,1.219143152E0
9.422745810E-1,9.695717812E0,8.865407705E-1,1.214357495E0
9.446568730E-1,9.719645500E0,8.775677085E-1,1.223928809E0
9.470391640E-1,9.748359680E0,8.823533654E-1,1.223928809E0
9.494214560E-1,9.757930756E0,8.542376757E-1,1.247856975E0
9.518037480E-1,9.767501831E0,8.398807645E-1,1.272383451E0
9.541860390E-1,9.786644936E0,8.356932998E-1,1.310668588E0
9.565683310E-1,9.787242889E0,8.165507317E-1,1.334596872E0
9.589506750E-1,9.811170578E0,8.075776696E-1,1.363310695E0
9.613329660E-1,9.806385040E0,7.932206988E-1,1.401595831E0
9.637152580E-1,9.801599503E0,7.836494446E-1,1.420738459E0
9.660975500E-1,9.801599503E0,7.884350419E-1,1.459023595E0
9.684798410E-1,9.811769485E0,7.746763229E-1,1.473380566E0
9.708621330E-1,9.787840843E0,7.645068169E-1,1.506880045E0
9.732444250E-1,9.773484230E0,7.501499057E-1,1.502094388E0
9.756267160E-1,9.730413437E0,7.591229677E-1,1.492523074E0
9.780090080E-1,9.716654778E0,7.399803996E-1,1.502094388E0
9.803913520E-1,9.702297211E0,7.304090858E-1,1.526620865E0
9.827736430E-1,9.659226418E0,7.441678643E-1,1.521835208E0
9.851559350E-1,9.625727654E0,7.435696125E-1,1.483550072E0
9.875382270E-1,9.620942116E0,7.339983582E-1,1.469193101E0
9.899205180E-1,9.597013474E0,7.339983582E-1,1.454836130E0
9.923028100E-1,9.573084831E0,7.477570772E-1,1.430907965E0
9.946851020E-1,9.568299294E0,7.238288522E-1,1.402194023E0
9.970673930E-1,9.568299294E0,7.328019142E-1,1.363908887E0
9.994496850E-1,9.558728218E0,7.280163169E-1,1.344766378E0
1.001831977E0,9.577870369E0,7.328019142E-1,1.330409408E0
1.004214268E0,9.582656860E0,7.423732281E-1,1.330409408E0
1.006596612E0,9.577870369E0,7.519445419E-1,1.301695466E0
1.008978904E0,9.586843491E0,7.567301393E-1,1.305882931E0
1.011361195E0,9.610772133E0,7.716853023E-1,1.305882931E0
1.013743487E0,9.638887405E0,8.051848412E-1,1.301097274E0
1.016125779E0,9.662816048E0,8.147560954E-1,1.301097274E0
1.018508070E0,9.681958199E0,8.105686903E-1,1.305882931E0
1.020890362E0,9.725028992E0,8.159525394E-1,1.296311617E0
1.023272654E0,9.743574142E0,8.542376757E-1,1.286142230E0
1.025654945E0,9.801001549E0,8.644071817E-1,1.305284739E0
1.028037237E0,9.829715729E0,8.644071817E-1,1.290927768E0
1.030419581E0,9.848857880E0,8.745766878E-1,1.290927768E0
1.032801873E0,9.887143135E0,8.697910309E-1,1.305284739E0
1.035184164E0,9.891928673E0,8.416753411E-1,1.305284739E0
1.037566456E0,9.911071777E0,8.368897438E-1,1.276570916E0
1.039948748E0,9.925428391E0,8.129615188E-1,1.281954765E0
1.042331039E0,9.925428391E0,8.177471161E-1,1.276570916E0
1.044713331E0,9.935597420E0,7.986045480E-1,1.277169108E0
1.047095623E0,9.902098656E0,7.842476368E-1,1.267597795E0
1.049477914E0,9.897313118E0,7.651050687E-1,1.277169108E0
1.051860206E0,9.887741089E0,7.597211599E-1,1.253240824E0
1.054242550E0,9.869196892E0,7.501499057E-1,1.262812138E0
1.056624841E0,9.854840279E0,7.262216806E-1,1.262812138E0
1.059007133E0,9.830911636E0,7.304090858E-1,1.262812138E0
1.061389425E0,9.826126099E0,7.304090858E-1,1.253240824E0
1.063771716E0,9.826724052E0,7.064808607E-1,1.267597795E0
1.066154008E0,9.798010826E0,6.873382926E-1,1.258624673E0
1.068536300E0,9.778867722E0,6.921239495E-1,1.258624673E0
1.070918591E0,9.764511108E0,6.771687865E-1,1.253839016E0
1.073300883E0,9.755537987E0,6.580262184E-1,1.244267821E0
1.075683175E0,9.745966911E0,6.628118753E-1,1.229910851E0
1.078065518E0,9.722038269E0,6.526423693E-1,1.234696507E0
1.080447810E0,9.707681656E0,6.622136831E-1,1.249053478E0
1.082830102E0,9.678967476E0,6.765705943E-1,1.258624673E0
1.085212393E0,9.674181938E0,6.574280262E-1,1.253839016E0
1.087594685E0,9.664610863E0,6.717849374E-1,1.263410330E0
1.089976977E0,9.668798447E0,6.909275651E-1,1.258624673E0
1.092359268E0,9.654440880E0,6.903293133E-1,1.263410330E0
1.094741560E0,9.644869804E0,7.094719410E-1,1.277767301E0
1.097123852E0,9.654440880E0,7.196413875E-1,1.296909928E0
1.099506195E0,9.668798447E0,7.100701332E-1,1.282552958E0
1.101888487E0,9.687940598E0,7.196413875E-1,1.287338614E0
1.104270779E0,9.702297211E0,7.148557901E-1,1.296909928E0
1.106653070E0,9.702297211E0,7.196413875E-1,1.306481123E0
1.109035362E0,9.716055870E0,7.441678643E-1,1.305882931E0
1.111417654E0,9.706484795E0,7.483552694E-1,1.296311617E0
1.113799945E0,9.735198975E0,7.393822074E-1,1.291526079E0
1.116182237E0,9.735198975E0,7.585247755E-1,1.305882931E0
1.118564529E0,9.739984512E0,7.393822074E-1,1.315454245E0
1.120946820E0,9.725627899E0,7.345965505E-1,1.329811215E0
1.123329164E0,9.735198975E0,7.345965505E-1,1.325025558E0
1.125711456E0,9.726225853E0,7.202396393E-1,1.344766378E0
1.128093748E0,9.716654778E0,7.058826685E-1,1.344766378E0
1.130476039E0,9.702297211E0,6.963114142E-1,1.354337573E0
1.132858331E0,9.702297211E0,6.915257573E-1,1.363908887E0
1.135240623E0,9.692726135E0,6.915257573E-1,1.354337573E0
1.137622914E0,9.687940598E0,7.010970116E-1,1.354337573E0
1.140005206E0,9.673583984E0,6.957131624E-1,1.344766378E0
1.142387498E0,9.664012909E0,7.004988194E-1,1.359123230E0
1.144769841E0,9.644869804E0,7.100701332E-1,1.359123230E0
1.147152133E0,9.640084267E0,7.142575383E-1,1.335195065E0
1.149534425E0,9.635298729E0,7.046862841E-1,1.339980721E0
1.151916716E0,9.630513191E0,7.190431952E-1,1.311266780E0
1.154299008E0,9.635298729E0,7.238288522E-1,1.306481123E0
1.156681300E0,9.644869804E0,7.286145091E-1,1.296909928E0
1.159063591E0,9.649655342E0,7.190431952E-1,1.296909928E0
1.161445883E0,9.659226418E0,7.244270444E-1,1.306481123E0
1.163828175E0,9.659226418E0,7.292127013E-1,1.301695466E0
1.166210466E0,9.678369522E0,7.100701332E-1,1.301695466E0
1.168592810E0,9.683155060E0,7.052844763E-1,1.282552958E0
1.170975102E0,9.697511673E0,7.052844763E-1,1.292124271E0
1.173357393E0,9.716654778E0,7.010970116E-1,1.287338614E0
1.175739685E0,9.721440315E0,7.106683254E-1,1.292124271E0
1.178121977E0,9.731011391E0,7.058826685E-1,1.282552958E0
1.180504268E0,9.745368004E0,6.867401004E-1,1.306481123E0
1.182886560E0,9.774082184E0,6.921239495E-1,1.320838094E0
1.185268852E0,9.798010826E0,6.777670383E-1,1.311266780E0
1.187651143E0,9.812367439E0,6.687939167E-1,1.311266780E0
1.190033435E0,9.826724052E0,6.783652306E-1,1.335195065E0
1.192415779E0,9.850652695E0,6.693921089E-1,1.354337573E0
1.194798070E0,9.869794846E0,6.646065116E-1,1.373480201E0
1.197180362E0,9.884152412E0,6.604190469E-1,1.402194023E0
1.199562654E0,9.884152412E0,6.987041831E-1,1.435693622E0
1.201944945E0,9.879366875E0,6.843472719E-1,1.459621787E0
1.204327237E0,9.855438232E0,7.076773047E-1,1.464407444E0
1.206709529E0,9.821938515E0,7.268198729E-1,1.497308731E0
1.209091820E0,9.806983948E0,7.316055298E-1,1.497308731E0
1.211474112E0,9.769296646E0,7.214360237E-1,1.512263894E0
1.213856456E0,9.745368004E0,7.022934556E-1,1.502692580E0
1.216238748E0,9.711869240E0,7.160521746E-1,1.502692580E0
1.218621039E0,9.697511673E0,7.016952634E-1,1.493121386E0
1.221003331E0,9.664610863E0,6.963114142E-1,1.478764415E0
1.223385623E0,9.650253296E0,6.771687865E-1,1.469193101E0
1.225767914E0,9.621540070E0,6.957131624E-1,1.473978758E0
1.228150206E0,9.625727654E0,7.100701332E-1,1.440479279E0
1.230532498E0,9.616155624E0,7.339983582E-1,1.421336651E0
1.232914789E0,9.601799011E0,7.286145091E-1,1.411765337E0
1.235297081E0,9.577870369E0,7.477570772E-1,1.397408366E0
1.237679425E0,9.577870369E0,7.615157962E-1,1.363310695E0
1.240061716E0,9.596415520E0,7.668996453E-1,1.353739381E0
1.242444008E0,9.591629982E0,7.716853023E-1,1.344168067E0
1.244826300E0,9.596415520E0,7.812566161E-1,1.348953724E0
1.247208591E0,9.605986595E0,7.956135273E-1,1.348953724E0
1.249590883E0,9.625128746E0,7.860422134E-1,1.348953724E0
1.251973175E0,9.629914284E0,7.956135273E-1,1.339382529E0
1.254355466E0,9.648459435E0,8.147560954E-1,1.339382529E0
1.256737758E0,9.653842926E0,7.914260626E-1,1.348953724E0
1.259120102E0,9.663414001E0,7.818548083E-1,1.334596872E0
1.261502393E0,9.696913719E0,7.722834945E-1,1.334596872E0
1.263884685E0,9.715457916E0,7.968099117E-1,1.334596872E0
1.266266977E0,9.744172096E0,7.920243144E-1,1.325025558E0
1.268649268E0,9.763314247E0,7.878368497E-1,1.339382529E0
1.271031560E0,9.777671814E0,8.021938205E-1,1.334596872E0
1.273413852E0,9.777671814E0,8.117650747E-1,1.339382529E0
1.275796143E0,9.777671814E0,8.069794178E-1,1.358525038E0
1.278178435E0,9.777072906E0,8.452646136E-1,1.368096352E0
1.280560779E0,9.762716293E0,8.548358679E-1,1.372283816E0
1.282943070E0,9.738788605E0,8.638089895E-1,1.396211982E0
1.285325362E0,9.738788605E0,8.685946465E-1,1.410568953E0
1.287707654E0,9.734002113E0,8.733802438E-1,1.391426325E0
1.290089945E0,9.724431038E0,8.685946465E-1,1.405783296E0
1.292472237E0,9.710074425E0,8.829515576E-1,1.415354609E0
1.294854529E0,9.690931320E0,8.733802438E-1,1.415354609E0
1.297236820E0,9.686145782E0,8.967102766E-1,1.405783296E0
1.299619112E0,9.676574707E0,9.062815905E-1,1.396211982E0
1.302001404E0,9.667003632E0,8.919246197E-1,1.396211982E0
1.304383748E0,9.667003632E0,8.967102766E-1,1.391426325E0
1.306766039E0,9.662218094E0,9.158528447E-1,1.400997639E0
1.309148331E0,9.667003632E0,8.919246197E-1,1.381855130E0
1.311530623E0,9.662218094E0,8.823533654E-1,1.391426325E0
1.313912914E0,9.676574707E0,8.871390224E-1,1.386640668E0
1.316295206E0,9.667003632E0,9.062815905E-1,1.400997639E0
1.318677498E0,9.657432556E0,9.110672474E-1,1.420140266E0
1.321059789E0,9.652647018E0,9.110672474E-1,1.415354609E0
1.323442081E0,9.667003632E0,9.110672474E-1,1.405783296E0
1.325824373E0,9.657432556E0,9.206385016E-1,1.391426325E0
1.328206716E0,9.656833649E0,9.349954724E-1,1.405783296E0
1.330589008E0,9.652048111E0,9.445667267E-1,1.381855130E0
1.332971300E0,9.657432556E0,9.158528447E-1,1.396211982E0
1.335353591E0,9.638289452E0,9.200403094E-1,1.386640668E0
1.337735883E0,9.633503914E0,9.152546525E-1,1.386640668E0
1.340118175E0,9.652647018E0,9.014959335E-1,1.381855130E0
1.342500466E0,9.638289452E0,8.961120844E-1,1.362712502E0
1.344882758E0,9.647860527E0,8.727820516E-1,1.362712502E0
1.347265050E0,9.633503914E0,8.769695163E-1,1.362712502E0
1.349647393E0,9.643074989E0,8.727820516E-1,1.372882009E0
1.352029685E0,9.643673897E0,8.578268886E-1,1.358525038E0
1.354411977E0,9.643673897E0,8.536394835E-1,1.372882009E0
1.356794268E0,9.643673897E0,8.297112584E-1,1.353739381E0
1.359176560E0,9.658030510E0,8.344969153E-1,1.344168067E0
1.361558852E0,9.643673897E0,8.386843204E-1,1.339382529E0
1.363941143E0,9.648459435E0,8.338986635E-1,1.334596872E0
1.366323435E0,9.653244972E0,8.057830334E-1,1.325025558E0
1.368705727E0,9.667601585E0,8.057830334E-1,1.315454245E0
1.371088070E0,9.667601585E0,8.009973764E-1,1.315454245E0
1.373470362E0,9.687342644E0,7.914260626E-1,1.301097274E0
1.375852654E0,9.696315765E0,8.057830334E-1,1.310668588E0
1.378234945E0,9.696913719E0,7.770691514E-1,1.325025558E0
1.380617237E0,9.701101303E0,8.153542876E-1,1.325025558E0
1.382999529E0,9.705886841E0,8.063812256E-1,1.329811215E0
1.385381820E0,9.720243454E0,8.350951076E-1,1.334596872E0
1.387764112E0,9.710074425E0,8.590233326E-1,1.348953724E0
1.390146456E0,9.719645500E0,8.542376757E-1,1.363310695E0
1.392528695E0,9.724431038E0,8.733802438E-1,1.357926846E0
1.394911039E0,9.734002113E0,8.925228715E-1,1.353141189E0
1.397293331E0,9.734002113E0,9.020941257E-1,1.357926846E0
1.399675623E0,9.747760773E0,9.068797827E-1,1.353141189E0
1.402057914E0,9.752547264E0,9.164510965E-1,1.372283816E0
1.404440206E0,9.757332802E0,9.266205430E-1,1.377069473E0
1.406822498E0,9.762118340E0,9.218349457E-1,1.372283816E0
1.409204789E0,9.747760773E0,9.355936646E-1,1.396211982E0
1.411587081E0,9.757332802E0,9.314061999E-1,1.391426325E0
1.413969373E0,9.762118340E0,9.409775138E-1,1.386640668E0
1.416351664E0,9.742975235E0,9.403793216E-1,1.386640668E0
1.418734008E0,9.742975235E0,9.499505758E-1,1.381855130E0
1.421116300E0,9.728618622E0,9.451649189E-1,1.400997639E0
1.423498591E0,9.728618622E0,9.451649189E-1,1.400997639E0
1.425880883E0,9.714262009E0,9.643075466E-1,1.405783296E0
1.428263175E0,9.699904442E0,9.355936646E-1,1.405783296E0
1.430645466E0,9.675976753E0,9.493523836E-1,1.396211982E0
1.433027758E0,9.690333366E0,9.302098155E-1,1.400997639E0
1.435410050E0,9.680762291E0,9.349954724E-1,1.410568953E0
1.437792341E0,9.671191216E0,9.397810698E-1,1.410568953E0
1.440174685E0,9.666405678E0,9.254241586E-1,1.415354609E0
1.442556977E0,9.661619186E0,9.445667267E-1,1.439282775E0
1.444939268E0,9.671191216E0,9.445667267E-1,1.434497118E0
1.447321560E0,9.671191216E0,9.541380405E-1,1.415354609E0
1.449703852E0,9.652048111E0,9.302098155E-1,1.429711580E0
1.452086143E0,9.642477036E0,9.349954724E-1,1.420140266E0
1.454468435E0,9.637691498E0,9.493523836E-1,1.429711580E0
1.456850727E0,9.628120422E0,9.493523836E-1,1.444068432E0
1.459233070E0,9.632905960E0,9.445667267E-1,1.448854089E0
1.461615362E0,9.618548393E0,9.487541914E-1,1.439282775E0
1.463997654E0,9.632905960E0,9.541380405E-1,1.458425403E0
1.466379945E0,9.623334885E0,9.493523836E-1,1.467996716E0
1.468762237E0,9.623334885E0,9.349954724E-1,1.482353687E0
1.471144529E0,9.632905960E0,9.445667267E-1,1.458425403E0
1.473526820E0,9.637691498E0,9.397810698E-1,1.463211060E0
1.475909112E0,9.642477036E0,9.349954724E-1,1.467996716E0
1.478291404E0,9.661619186E0,9.403793216E-1,1.477568030E0
1.480673695E0,9.675976753E0,9.403793216E-1,1.463211060E0
1.483055987E0,9.675976753E0,9.403793216E-1,1.458425403E0
1.485438331E0,9.690333366E0,9.451649189E-1,1.434497118E0
1.487820623E0,9.704689980E0,9.499505758E-1,1.420140266E0
1.490202914E0,9.704689980E0,9.355936646E-1,1.410568953E0
1.492585206E0,9.699904442E0,9.212366939E-1,1.420140266E0
1.494967498E0,9.714262009E0,9.164510965E-1,1.410568953E0
1.497349789E0,9.709476471E0,9.164510965E-1,1.396211982E0
1.499732081E0,9.676574707E0,8.919246197E-1,1.400997639E0
1.502114373E0,9.690931320E0,8.685946465E-1,1.400997639E0
1.504496716E0,9.690931320E0,8.733802438E-1,1.405783296E0
1.506879008E0,9.681360245E0,8.781659007E-1,1.420140266E0
1.509261300E0,9.667003632E0,8.727820516E-1,1.424925923E0
1.511643591E0,9.667601585E0,8.590233326E-1,1.444666624E0
1.514025883E0,9.658030510E0,8.584251404E-1,1.449452281E0
1.516408175E0,9.657432556E0,8.727820516E-1,1.454237938E0
1.518790466E0,9.662816048E0,8.632107973E-1,1.444666624E0
1.521172758E0,9.648459435E0,8.584251404E-1,1.459023595E0
1.523555050E0,9.643074989E0,8.871390224E-1,1.448854089E0
1.525937341E0,9.647860527E0,9.110672474E-1,1.453639746E0
1.528319685E0,9.638289452E0,8.919246197E-1,1.448854089E0
1.530701977E0,9.643074989E0,8.919246197E-1,1.439282775E0
1.533084268E0,9.662218094E0,8.871390224E-1,1.448854089E0
1.535466560E0,9.662218094E0,9.014959335E-1,1.429711580E0
1.537848852E0,9.671789169E0,8.967102766E-1,1.429711580E0
1.540231143E0,9.676574707E0,8.877372146E-1,1.434497118E0
1.542613435E0,9.705288887E0,9.020941257E-1,1.448854089E0
1.544995727E0,9.719645500E0,9.068797827E-1,1.448854089E0
1.547378018E0,9.728618622E0,9.170492887E-1,1.458425403E0
1.549760362E0,9.757332802E0,9.218349457E-1,1.458425403E0
1.552142654E0,9.781260490E0,9.224331379E-1,1.453639746E0
1.554524945E0,9.800403595E0,9.272187948E-1,1.458425403E0
1.556907237E0,9.800403595E0,9.272187948E-1,1.424925923E0
1.559289529E0,9.814760208E0,9.176474810E-1,1.377069473E0
1.561671820E0,9.814760208E0,9.266205430E-1,1.329213023E0
1.564054112E0,9.814162254E0,9.553344250E-1,1.266999602E0
1.566436404E0,9.804591179E0,9.499505758E-1,1.223928809E0
1.568818695E0,9.799804688E0,9.547362328E-1,1.161715388E0
1.571201039E0,9.785448074E0,9.589236975E-1,1.104287624E0
1.573583331E0,9.771091461E0,9.726824164E-1,1.065404296E0
1.575965623E0,9.742377281E0,9.822536707E-1,1.036690354E0
1.578347914E0,9.742377281E0,9.672985673E-1,1.018146038E0
1.580730206E0,9.737591743E0,9.768698215E-1,1.031904817E0
1.583112498E0,9.723235130E0,9.816554785E-1,1.022333503E0
1.585494789E0,9.718449593E0,9.672985673E-1,1.042074203E0
1.587877081E0,9.723235130E0,9.625129104E-1,1.051645517E0
1.590259373E0,9.704092026E0,9.672985673E-1,1.085145116E0
1.592641716E0,9.695118904E0,9.433703423E-1,1.099501967E0
1.595024008E0,9.695118904E0,9.200403094E-1,1.128215909E0
1.597406300E0,9.680762291E0,9.200403094E-1,1.171286702E0
1.599788591E0,9.695118904E0,9.248259664E-1,1.209571838E0
1.602170883E0,9.690333366E0,9.056833982E-1,1.252642632E0
1.604553175E0,9.685547829E0,9.062815905E-1,1.290927768E0
1.606935466E0,9.690931320E0,8.871390224E-1,1.314856052E0
1.609317758E0,9.690931320E0,9.062815905E-1,1.348355532E0
1.611700050E0,9.676574707E0,8.871390224E-1,1.362712502E0
1.614082393E0,9.681360245E0,8.823533654E-1,1.362712502E0
1.616464685E0,9.690931320E0,8.781659007E-1,1.381855130E0
1.618846977E0,9.686145782E0,8.823533654E-1,1.386640668E0
1.621229268E0,9.681360245E0,8.679963946E-1,1.377069473E0
1.623611560E0,9.700503349E0,8.733802438E-1,1.372283816E0
1.625993852E0,9.690931320E0,8.823533654E-1,1.362712502E0
1.628376143E0,9.676574707E0,9.014959335E-1,1.353141189E0
1.630758435E0,9.680762291E0,9.110672474E-1,1.305284739E0
1.633140727E0,9.675976753E0,9.110672474E-1,1.295713425E0
1.635523070E0,9.680762291E0,9.248259664E-1,1.276570916E0
1.637905362E0,9.685547829E0,9.152546525E-1,1.266999602E0
1.640287654E0,9.675976753E0,9.391828775E-1,1.252642632E0
1.642669945E0,9.675976753E0,9.343972206E-1,1.238285661E0
1.645052237E0,9.680762291E0,9.583254457E-1,1.228714466E0
1.647434529E0,9.684949875E0,9.583254457E-1,1.228714466E0
1.649816820E0,9.689735413E0,9.678967595E-1,1.233500123E0
1.652199112E0,9.684949875E0,9.678967595E-1,1.228714466E0
1.654581404E0,9.699306488E0,9.678967595E-1,1.214357495E0
1.656963695E0,9.699306488E0,9.631111026E-1,1.228714466E0
1.659346039E0,9.689735413E0,9.583254457E-1,1.233500123E0
1.661728331E0,9.704092026E0,9.589236975E-1,1.257428288E0
1.664110623E0,9.709476471E0,9.397810698E-1,1.252642632E0
1.666492914E0,9.709476471E0,9.302098155E-1,1.271785259E0
1.668875206E0,9.723833084E0,9.110672474E-1,1.281356573E0
1.671257498E0,9.733404160E0,9.254241586E-1,1.281356573E0
1.673639789E0,9.728618622E0,9.062815905E-1,1.281356573E0
1.676022081E0,9.738189697E0,9.260223508E-1,1.305284739E0
1.678404425E0,9.738788605E0,8.877372146E-1,1.305284739E0
1.680786716E0,9.743574142E0,8.733802438E-1,1.314856052E0
1.683169008E0,9.748359680E0,8.781659007E-1,1.305284739E0
1.685551300E0,9.753145218E0,8.685946465E-1,1.319641709E0
1.687933591E0,9.748359680E0,8.685946465E-1,1.319641709E0
1.690315883E0,9.743574142E0,8.638089895E-1,1.319641709E0
1.692698175E0,9.753743172E0,8.350951076E-1,1.325025558E0
1.695080466E0,9.753743172E0,8.255237937E-1,1.329811215E0
1.697462758E0,9.748957634E0,8.255237937E-1,1.296311617E0
1.699845102E0,9.744172096E0,8.303094506E-1,1.310668588E0
1.702227393E0,9.744172096E0,8.015955687E-1,1.301097274E0
1.704609685E0,9.748957634E0,8.015955687E-1,1.296311617E0
1.706991977E0,9.729815483E0,8.159525394E-1,1.272383451E0
1.709374268E0,9.739386559E0,8.063812256E-1,1.272383451E0
1.711756560E0,9.734601021E0,8.015955687E-1,1.267597795E0
1.714138852E0,9.720243454E0,8.297112584E-1,1.272383451E0
1.716521143E0,9.710672379E0,8.344969153E-1,1.262812138E0
1.718903435E0,9.691530228E0,8.392825127E-1,1.267597795E0
1.721285779E0,9.705288887E0,8.536394835E-1,1.262812138E0
1.723668070E0,9.671789169E0,8.769695163E-1,1.276570916E0
1.726050362E0,9.667003632E0,8.961120844E-1,1.266999602E0
1.728432654E0,9.667003632E0,9.056833982E-1,1.276570916E0
1.730814945E0,9.656833649E0,9.152546525E-1,1.286142230E0
1.733197237E0,9.652048111E0,9.296116233E-1,1.305284739E0
1.735579529E0,9.661619186E0,9.439685345E-1,1.324427366E0
1.737961820E0,9.671191216E0,9.296116233E-1,1.300499082E0
1.740344112E0,9.671191216E0,9.343972206E-1,1.305284739E0
1.742726456E0,9.685547829E0,9.349954724E-1,1.329213023E0
1.745108748E0,9.704689980E0,9.493523836E-1,1.319641709E0
1.747491039E0,9.709476471E0,9.589236975E-1,1.348355532E0
1.749873331E0,9.728020668E0,9.684949517E-1,1.333998680E0
1.752255623E0,9.733404160E0,9.499505758E-1,1.377069473E0
1.754637914E0,9.728618622E0,9.595218897E-1,1.357926846E0
1.757020206E0,9.723833084E0,9.451649189E-1,1.386640668E0
1.759402498E0,9.723833084E0,9.451649189E-1,1.391426325E0
1.761784789E0,9.723833084E0,9.403793216E-1,1.415354609E0
1.764167133E0,9.728618622E0,9.260223508E-1,1.434497118E0
1.766549425E0,9.700503349E0,9.164510965E-1,1.424925923E0
1.768931716E0,9.695118904E0,9.212366939E-1,1.429711580E0
1.771314008E0,9.681360245E0,9.206385016E-1,1.444068432E0
1.773696300E0,9.667003632E0,9.110672474E-1,1.434497118E0
1.776078591E0,9.661619186E0,9.254241586E-1,1.429711580E0
1.778460883E0,9.661619186E0,9.254241586E-1,1.429711580E0
1.780843175E0,9.628120422E0,9.391828775E-1,1.415354609E0
1.783225466E0,9.623932838E0,9.152546525E-1,1.372283816E0
1.785607810E0,9.623334885E0,9.296116233E-1,1.362712502E0
1.787990102E0,9.614361763E0,9.104689956E-1,1.343569875E0
1.790372393E0,9.619147301E0,9.200403094E-1,1.343569875E0
1.792754685E0,9.628120422E0,9.248259664E-1,1.329213023E0
1.795136977E0,9.633503914E0,9.152546525E-1,1.314856052E0
1.797519268E0,9.628120422E0,9.290133715E-1,1.305284739E0
1.799901560E0,9.638289452E0,9.056833982E-1,1.305284739E0
1.802283852E0,9.643074989E0,9.152546525E-1,1.300499082E0
1.804666143E0,9.647262573E0,9.200403094E-1,1.300499082E0
1.807048487E0,9.667003632E0,9.104689956E-1,1.295713425E0
1.809430779E0,9.666405678E0,9.200403094E-1,1.305284739E0
1.811813070E0,9.686145782E0,9.014959335E-1,1.305284739E0
1.814195362E0,9.695717812E0,8.967102766E-1,1.295713425E0
1.816577654E0,9.686145782E0,8.967102766E-1,1.319641709E0
1.818959945E0,9.700503349E0,9.062815905E-1,1.290927768E0
1.821342237E0,9.690931320E0,9.014959335E-1,1.310070395E0
1.823724529E0,9.710074425E0,9.014959335E-1,1.305284739E0
1.826106873E0,9.710074425E0,9.062815905E-1,1.314856052E0
1.828489164E0,9.690931320E0,9.062815905E-1,1.300499082E0
1.830871456E0,9.704689980E0,9.158528447E-1,1.310070395E0
1.833253748E0,9.710074425E0,8.967102766E-1,1.310070395E0
1.835636039E0,9.699904442E0,9.158528447E-1,1.305284739E0
1.838018331E0,9.699904442E0,9.110672474E-1,1.310070395E0
1.840400623E0,9.699904442E0,9.110672474E-1,1.305284739E0
1.842782914E0,9.695118904E0,9.349954724E-1,1.319641709E0
1.845165206E0,9.723833084E0,9.206385016E-1,1.314856052E0
1.847547498E0,9.719047546E0,9.349954724E-1,1.295713425E0
1.849929841E0,9.704689980E0,9.349954724E-1,1.310070395E0
1.852312133E0,9.704689980E0,9.302098155E-1,1.310070395E0
1.854694425E0,9.699904442E0,9.541380405E-1,1.290927768E0
1.857076716E0,9.704689980E0,9.445667267E-1,1.281356573E0
1.859459008E0,9.680762291E0,9.439685345E-1,1.276570916E0
1.861841300E0,9.699904442E0,9.296116233E-1,1.266999602E0
1.864223591E0,9.690333366E0,9.296116233E-1,1.262213945E0
1.866605883E0,9.680762291E0,9.296116233E-1,1.233500123E0
1.868988227E0,9.675976753E0,9.343972206E-1,1.228714466E0
1.871370518E0,9.680762291E0,9.296116233E-1,1.238285661E0
1.873752810E0,9.695118904E0,9.104689956E-1,1.233500123E0
1.876135102E0,9.676574707E0,8.961120844E-1,1.233500123E0
1.878517393E0,9.681360245E0,8.817551732E-1,1.228714466E0
1.880899685E0,9.676574707E0,8.626125455E-1,1.234098315E0
1.883281977E0,9.686744690E0,8.482556343E-1,1.253240824E0
1.885664268E0,9.681958199E0,8.291130662E-1,1.262812138E0
1.888046560E0,9.691530228E0,8.153542876E-1,1.262812138E0
1.890428852E0,9.677771568E0,7.914260626E-1,1.281954765E0
1.892811195E0,9.682557106E0,7.866404653E-1,1.291526079E0
1.895193487E0,9.687342644E0,7.962117195E-1,1.296311617E0
1.897575779E0,9.716055870E0,7.914260626E-1,1.315454245E0
1.899958070E0,9.710672379E0,8.057830334E-1,1.320239902E0
1.902340362E0,9.696315765E0,8.105686903E-1,1.310668588E0
1.904722654E0,9.701101303E0,8.057830334E-1,1.329811215E0
1.907104945E0,9.696315765E0,8.057830334E-1,1.315454245E0
1.909487237E0,9.710672379E0,8.153542876E-1,1.315454245E0
1.911869581E0,9.696315765E0,8.009973764E-1,1.315454245E0
1.914251873E0,9.696315765E0,7.962117195E-1,1.301097274E0
1.916634164E0,9.720243454E0,7.968099117E-1,1.315454245E0
1.919016456E0,9.715457916E0,8.009973764E-1,1.291526079E0
1.921398748E0,9.720243454E0,7.914260626E-1,1.277169108E0
1.923781039E0,9.715457916E0,7.962117195E-1,1.267597795E0
1.926163331E0,9.705886841E0,7.962117195E-1,1.253240824E0
1.928545623E0,9.715457916E0,7.866404653E-1,1.234098315E0
1.930927914E0,9.715457916E0,7.866404653E-1,1.224527001E0
1.933310258E0,9.710672379E0,8.057830334E-1,1.205384374E0
1.935692550E0,9.715457916E0,7.962117195E-1,1.205384374E0
1.938074841E0,9.720243454E0,8.105686903E-1,1.186241865E0
1.940457133E0,9.739386559E0,8.105686903E-1,1.181456208E0
1.942839425E0,9.734601021E0,8.249256015E-1,1.171884894E0
1.945221716E0,9.734601021E0,8.201399446E-1,1.167099237E0
1.947604008E0,9.753743172E0,8.249256015E-1,1.167099237E0
1.949986300E0,9.757930756E0,8.392825127E-1,1.157527924E0
1.952368591E0,9.753145218E0,8.440681696E-1,1.157527924E0
1.954750935E0,9.772287369E0,8.344969153E-1,1.171884894E0
1.957133227E0,9.757930756E0,8.297112584E-1,1.157527924E0
1.959515518E0,9.768099785E0,8.153542876E-1,1.152742267E0
1.961897810E0,9.786644936E0,8.303094506E-1,1.147956610E0
1.964280102E0,9.772886276E0,8.153542876E-1,1.133599758E0
1.966662393E0,9.772886276E0,8.105686903E-1,1.133599758E0
1.969044685E0,9.777671814E0,7.962117195E-1,1.147956610E0
1.971426977E0,9.777671814E0,7.962117195E-1,1.143171072E0
1.973809268E0,9.787242889E0,7.824530005E-1,1.143171072E0
1.976191612E0,9.782457352E0,7.824530005E-1,1.147956610E0
1.978573904E0,9.777671814E0,8.009973764E-1,1.133599758E0
1.980956195E0,9.777671814E0,7.866404653E-1,1.119242787E0
1.983338487E0,9.768099785E0,7.770691514E-1,1.114457130E0
1.985720779E0,9.763314247E0,7.722834945E-1,1.114457130E0
1.988103070E0,9.763913155E0,7.579265833E-1,1.109671474E0
1.990485362E0,9.749555588E0,7.531409264E-1,1.100100160E0
1.992867654E0,9.749555588E0,7.621139884E-1,1.080957651E0
1.995249998E0,9.730413437E0,7.525427341E-1,1.066600680E0
1.997632289E0,9.730413437E0,7.477570772E-1,1.076171994E0
2.000014581E0,9.711270332E0,7.334001660E-1,1.071386337E0
2.002396873E0,9.716055870E0,7.334001660E-1,1.052243710E0
2.004779164E0,9.701699257E0,7.238288522E-1,1.071386337E0
2.007161456E0,9.687940598E0,6.993024349E-1,1.062413216E0
2.009543748E0,9.692726135E0,6.999006271E-1,1.067198873E0
2.011926039E0,9.687940598E0,6.903293133E-1,1.081555843E0
2.014308331E0,9.697511673E0,6.759724021E-1,1.067198873E0
2.016690675E0,9.697511673E0,6.664010882E-1,1.057627559E0
2.019072966E0,9.683753014E0,6.610172391E-1,1.062413216E0
2.021455258E0,9.688538551E0,6.329016089E-1,1.062413216E0
2.023837550E0,9.683753014E0,6.323033571E-1,1.052842021E0
2.026219841E0,9.693324089E0,6.424728632E-1,1.057627559E0
2.028602133E0,9.702896118E0,6.472585201E-1,1.057627559E0
2.030984425E0,9.702896118E0,6.520441771E-1,1.043270707E0
2.033366716E0,9.698110580E0,6.233302951E-1,1.038485050E0
2.035749060E0,9.702896118E0,6.472585201E-1,1.038485050E0
2.038131352E0,9.716654778E0,6.616154313E-1,1.033699393E0
2.040513643E0,9.735796928E0,6.616154313E-1,1.024128079E0
2.042895935E0,9.726823807E0,6.472585201E-1,1.024128079E0
2.045278227E0,9.731011391E0,6.616154313E-1,1.019342422E0
2.047660518E0,9.731011391E0,6.664010882E-1,1.028913736E0
2.050042810E0,9.740582466E0,6.568298340E-1,1.024128079E0
2.052425102E0,9.740582466E0,6.711867452E-1,1.019342422E0
2.054807393E0,9.740582466E0,6.807580590E-1,1.024128079E0
2.057189737E0,9.750154495E0,6.759724021E-1,1.000199914E0
2.059572029E0,9.759725571E0,6.664010882E-1,1.019342422E0
2.061954320E0,9.769296646E0,6.717849374E-1,1.014556766E0
2.064336612E0,9.764511108E0,6.759724021E-1,1.009771109E0
2.066718904E0,9.764511108E0,6.622136831E-1,1.019342422E0
2.069101195E0,9.759725571E0,6.616154313E-1,9.954141974E-1
2.071483487E0,9.769296646E0,6.765705943E-1,1.014556766E0
2.073865779E0,9.778867722E0,6.622136831E-1,9.906286001E-1
2.076248070E0,9.774680138E0,6.382854581E-1,9.858429432E-1
2.078630362E0,9.774082184E0,6.568298340E-1,9.667003751E-1
2.081012706E0,9.764511108E0,6.568298340E-1,9.762716293E-1
2.083394998E0,9.759725571E0,6.472585201E-1,9.810572863E-1
2.085777289E0,9.750752449E0,6.281159520E-1,9.906286001E-1
2.088159581E0,9.765109062E0,6.382854581E-1,1.014556766E0
2.090541873E0,9.750752449E0,6.281159520E-1,1.014556766E0
2.092924164E0,9.755537987E0,6.191428304E-1,1.028913736E0
2.095306456E0,9.755537987E0,6.287141442E-1,1.062413216E0
2.097688748E0,9.760323524E0,6.191428304E-1,1.091127157E0
2.100071091E0,9.769894600E0,6.239284873E-1,1.110269666E0
2.102453383E0,9.793823242E0,6.101697683E-1,1.124626637E0
2.104835675E0,9.780064583E0,5.862415433E-1,1.158126116E0
2.107217966E0,9.789635658E0,5.766702294E-1,1.177866936E0
2.109600258E0,9.799206734E0,5.820540786E-1,1.210768223E0
2.111982550E0,9.808777809E0,5.772684813E-1,1.249651670E0
2.114364841E0,9.818349838E0,5.874379873E-1,1.268195987E0
2.116747133E0,9.837491989E0,5.874379873E-1,1.292124271E0
2.119129425E0,9.836894035E0,6.065805554E-1,1.311266780E0
2.121511768E0,9.836894035E0,6.113662124E-1,1.316052437E0
2.123894060E0,9.836894035E0,6.305087805E-1,1.316052437E0
2.126276352E0,9.836894035E0,6.496513486E-1,1.301695466E0
2.128658643E0,9.836296082E0,6.544370055E-1,1.306481123E0
2.131040935E0,9.821938515E0,6.969096065E-1,1.263410330E0
2.133423227E0,9.807581902E0,7.016952634E-1,1.253839016E0
2.135805518E0,9.802198410E0,7.495517135E-1,1.210170031E0
2.138187810E0,9.783055305E0,7.393822074E-1,1.157527924E0
2.140570154E0,9.787840843E0,7.537391186E-1,1.133599758E0
2.142952445E0,9.763314247E0,7.674978375E-1,1.090528965E0
2.145334737E0,9.748957634E0,7.621139884E-1,1.042672515E0
2.147717029E0,9.739984512E0,7.573283911E-1,1.037886858E0
2.150099320E0,9.725627899E0,7.615157962E-1,9.948160052E-1
2.152481612E0,9.716055870E0,7.471588850E-1,9.852447510E-1
2.154863904E0,9.692128181E0,7.375875711E-1,9.756734371E-1
2.157246195E0,9.692128181E0,7.280163169E-1,9.661021233E-1
2.159628487E0,9.682557106E0,7.136593461E-1,9.571290612E-1
2.162010831E0,9.668798447E0,6.801598072E-1,9.906286001E-1
2.164393123E0,9.664012909E0,6.658028960E-1,1.009771109E0
2.166775414E0,9.678967476E0,6.466603279E-1,1.024128079E0
2.169157706E0,9.669396400E0,6.370890141E-1,1.019342422E0
2.171539998E0,9.683753014E0,6.323033571E-1,1.048056364E0
2.173922289E0,9.683753014E0,6.233302951E-1,1.057627559E0
2.176304581E0,9.688538551E0,6.185446382E-1,1.062413216E0
2.178686873E0,9.688538551E0,6.089733839E-1,1.067198873E0
2.181069216E0,9.722038269E0,5.994020700E-1,1.071984529E0
2.183451508E0,9.722038269E0,6.233302951E-1,1.081555843E0
2.185833800E0,9.731609344E0,6.191428304E-1,1.086341500E0
2.188216091E0,9.736394882E0,6.143572330E-1,1.086341500E0
2.190598383E0,9.736394882E0,6.000002623E-1,1.086341500E0
2.192980675E0,9.731609344E0,6.047859192E-1,1.076770186E0
2.195362966E0,9.741181374E0,6.047859192E-1,1.081555843E0
2.197745258E0,9.750752449E0,6.047859192E-1,1.086341500E0
2.200127550E0,9.750752449E0,6.047859192E-1,1.091127157E0
2.202509893E0,9.745966911E0,6.095715761E-1,1.086341500E0
2.204892185E0,9.755537987E0,6.095715761E-1,1.091127157E0
2.207274477E0,9.769894600E0,6.191428304E-1,1.076770186E0
2.209656768E0,9.769894600E0,6.000002623E-1,1.043270707E0
2.212039060E0,9.793823242E0,6.047859192E-1,1.014556766E0
2.214421352E0,9.789037704E0,6.095715761E-1,9.714859724E-1
2.216803643E0,9.784252167E0,6.041877270E-1,9.284151793E-1
2.219185935E0,9.789037704E0,6.089733839E-1,8.853443861E-1
2.221568279E0,9.793823242E0,5.898307562E-1,8.470591903E-1
2.223950570E0,9.784252167E0,5.898307562E-1,8.183453679E-1
2.226332862E0,9.817750931E0,5.898307562E-1,7.992027402E-1
2.228715154E0,9.808179855E0,5.850451589E-1,7.752745152E-1
2.231097445E0,9.798608780E0,5.659025311E-1,7.752745152E-1
2.233479737E0,9.803394318E0,5.754738450E-1,7.800601721E-1
2.235862029E0,9.827322960E0,5.605186820E-1,7.896314859E-1
2.238244320E0,9.832108498E0,5.557330847E-1,7.848458290E-1
2.240626612E0,9.808179855E0,5.706881881E-1,8.087740541E-1
2.243008956E0,9.812965393E0,5.659025311E-1,8.231309652E-1
2.245391248E0,9.813564301E0,5.605186820E-1,8.422735929E-1
2.247773539E0,9.808777809E0,5.605186820E-1,8.572286963E-1
2.250155831E0,9.803992271E0,5.563312769E-1,8.907282352E-1
2.252538123E0,9.789635658E0,5.706881881E-1,8.997012973E-1
2.254920414E0,9.770493507E0,5.659025311E-1,9.146564603E-1
2.257302706E0,9.760921478E0,5.659025311E-1,9.625129104E-1
2.259684998E0,9.746564865E0,5.659025311E-1,9.625129104E-1
2.262067289E0,9.736993790E0,5.659025311E-1,9.960124493E-1
2.264449633E0,9.732208252E0,5.461617708E-1,1.005583763E0
2.266831925E0,9.727422714E0,5.413761139E-1,1.019940615E0
2.269214216E0,9.713065147E0,5.557330847E-1,1.048654556E0
2.271596508E0,9.693922997E0,5.509474277E-1,1.048654556E0
2.273978800E0,9.694520950E0,5.413761139E-1,1.053440213E0
2.276361091E0,9.699306488E0,5.318048596E-1,1.058225870E0
2.278743383E0,9.694520950E0,5.318048596E-1,1.063011408E0
2.281125675E0,9.680164337E0,5.413761139E-1,1.058225870E0
2.283508018E0,9.675378799E0,5.359922647E-1,1.010369420E0
2.285890310E0,9.679565430E0,5.455635786E-1,1.000798106E0
2.288272602E0,9.679565430E0,5.653043389E-1,9.672985673E-1
2.290654893E0,9.684351921E0,5.700899959E-1,9.146564603E-1
2.293037185E0,9.689137459E0,5.790630579E-1,8.955138922E-1
2.295419477E0,9.688538551E0,5.886343718E-1,8.518448472E-1
2.297801768E0,9.707681656E0,5.982056856E-1,8.183453679E-1
2.300184060E0,9.712467194E0,5.886343718E-1,7.752745152E-1
2.302566352E0,9.717252731E0,5.934200287E-1,7.609176040E-1
2.304948695E0,9.731609344E0,6.029912829E-1,7.465606928E-1
2.307330987E0,9.717252731E0,6.029912829E-1,7.226324677E-1
2.309713279E0,9.755537987E0,6.077769399E-1,7.226324677E-1
2.312095570E0,9.755537987E0,6.077769399E-1,7.034898400E-1
2.314477862E0,9.765109062E0,5.982056856E-1,7.082754970E-1
2.316860154E0,9.779465675E0,5.796613097E-1,7.082754970E-1
2.319242445E0,9.803394318E0,5.700899959E-1,7.274180651E-1
2.321624737E0,9.827322960E0,5.605186820E-1,7.226324677E-1
2.324007081E0,9.813564301E0,5.509474277E-1,7.471588850E-1
2.326389373E0,9.842277527E0,5.222335458E-1,7.567301393E-1
2.328771664E0,9.847063065E0,5.132604837E-1,7.806583643E-1
2.331153956E0,9.857233047E0,4.941178858E-1,7.950153351E-1
2.333536248E0,9.847063065E0,4.989035130E-1,8.141579032E-1
2.335918539E0,9.876375198E0,4.851447940E-1,8.428717852E-1
2.338300831E0,9.871589661E0,4.755735099E-1,8.524430394E-1
2.340683123E0,9.866804123E0,4.468596280E-1,8.715856671E-1
2.343065414E0,9.857233047E0,4.564309120E-1,8.763712645E-1
2.345447758E0,9.852447510E0,4.468596280E-1,8.907282352E-1
2.347830050E0,9.862616539E0,4.372883439E-1,8.668000102E-1
2.350212341E0,9.842875481E0,4.462614357E-1,8.715856671E-1
2.352594633E0,9.833903313E0,4.319044948E-1,8.715856671E-1
2.354976925E0,9.833903313E0,4.319044948E-1,8.572286963E-1
2.357359216E0,9.833304405E0,4.510470629E-1,8.811569214E-1
2.359741508E0,9.833304405E0,4.510470629E-1,8.668000102E-1
2.362123800E0,9.823733330E0,4.558327198E-1,8.955138922E-1
2.364506091E0,9.809974670E0,4.510470629E-1,8.955138922E-1
2.366888435E0,9.809974670E0,4.462614357E-1,9.050851464E-1
2.369270727E0,9.790832520E0,4.462614357E-1,9.194421172E-1
2.371653018E0,9.776474953E0,4.510470629E-1,9.529415965E-1
2.374035310E0,9.766903877E0,4.462614357E-1,9.864411354E-1
2.376417602E0,9.762118340E0,4.319044948E-1,1.015753269E0
2.378799893E0,9.762118340E0,4.271188378E-1,1.044467092E0
2.381182185E0,9.742975235E0,4.414757788E-1,1.087537885E0
2.383564529E0,9.743574142E0,4.181457460E-1,1.111466169E0
2.385946820E0,9.729216576E0,4.229314029E-1,1.159322619E0
2.388329112E0,9.695717812E0,4.366901219E-1,1.183250785E0
2.390711404E0,9.675976753E0,4.462614357E-1,1.192822099E0
2.393093695E0,9.652048111E0,4.606183469E-1,1.207179070E0
2.395475987E0,9.642477036E0,4.648058116E-1,1.221535921E0
2.397858279E0,9.613762856E0,4.791627228E-1,1.226321578E0
2.400240570E0,9.585049629E0,4.833501875E-1,1.202393413E0
2.402622862E0,9.560523033E0,5.264210105E-1,1.192223907E0
2.405005206E0,9.541379929E0,5.545366406E-1,1.173081279E0
2.407387498E0,9.525827408E0,5.886343718E-1,1.158724308E0
2.409769789E0,9.487542152E0,6.167500615E-1,1.144367456E0
2.412152081E0,9.463613510E0,6.209374666E-1,1.139581800E0
2.414534373E0,9.448657990E0,6.544370055E-1,1.134197950E0
2.416916664E0,9.415159225E0,6.729813814E-1,1.119840980E0
2.419298956E0,9.396016121E0,6.825526357E-1,1.105484009E0
2.421681248E0,9.391230583E0,7.160521746E-1,1.138983607E0
2.424063539E0,9.366703987E0,7.250252366E-1,1.143769264E0
2.426445883E0,9.381061554E0,7.489534616E-1,1.143769264E0
2.428828175E0,9.371489525E0,7.776673436E-1,1.138983607E0
2.431210466E0,9.357132912E0,7.776673436E-1,1.138983607E0
2.433592758E0,9.375677109E0,7.968099117E-1,1.138385415E0
2.435975050E0,9.380462646E0,8.015955687E-1,1.128814101E0
2.438357341E0,9.394221306E0,8.494520187E-1,1.114457130E0
2.440739633E0,9.394221306E0,8.398807645E-1,1.090528965E0
2.443121925E0,9.422935486E0,8.733802438E-1,1.061815023E0
2.445504268E0,9.446265221E0,8.829515576E-1,1.009172916E0
2.447886560E0,9.474979401E0,8.739784956E-1,1.009172916E0
2.450268852E0,9.470193863E0,8.973084688E-1,9.750752449E-1
2.452651143E0,9.493523598E0,9.355936646E-1,9.080761671E-1
2.455033435E0,9.517452240E0,9.260223508E-1,8.458628058E-1
2.457415727E0,9.546764374E0,9.451649189E-1,7.980063558E-1
2.459798018E0,9.555737495E0,9.690931439E-1,7.405785918E-1
2.462180310E0,9.594022751E0,9.786644578E-1,7.022934556E-1
2.464562654E0,9.626923561E0,9.840483069E-1,6.586244106E-1
2.466944945E0,9.631709099E0,9.840483069E-1,6.394818425E-1
2.469327237E0,9.656235695E0,9.649057388E-1,6.113662124E-1
2.471709529E0,9.670592308E0,9.649057388E-1,5.874379873E-1
2.474091820E0,9.694520950E0,9.314061999E-1,5.874379873E-1
2.476474112E0,9.723235130E0,9.320043921E-1,5.778666735E-1
2.478856404E0,9.756733894E0,9.080761671E-1,5.581258535E-1
2.481238695E0,9.766903877E0,8.889335990E-1,5.485545993E-1
2.483621039E0,9.771689415E0,8.697910309E-1,5.198407173E-1
2.486003331E0,9.795618057E0,8.656035662E-1,4.959124923E-1
2.488385623E0,9.795618057E0,8.416753411E-1,4.815555513E-1
2.490767914E0,9.829116821E0,8.177471161E-1,4.624129832E-1
2.493150206E0,9.820143700E0,7.986045480E-1,4.677968323E-1
2.495532498E0,9.824930191E0,7.842476368E-1,4.534398913E-1
2.497914789E0,9.824930191E0,7.746763229E-1,4.582255483E-1
2.500297081E0,9.824930191E0,7.746763229E-1,4.869394004E-1
2.502679425E0,9.820143700E0,7.746763229E-1,5.108676553E-1
2.505061716E0,9.820143700E0,7.704889178E-1,5.252245665E-1
2.507444008E0,9.820143700E0,7.848458290E-1,5.395814776E-1
2.509826300E0,9.824930191E0,7.848458290E-1,5.641079545E-1
2.512208591E0,9.810572624E0,8.039883971E-1,5.880361795E-1
2.514590883E0,9.824930191E0,8.087740541E-1,6.161518097E-1
2.516973175E0,9.848259926E0,8.333004713E-1,6.257231236E-1
2.519355466E0,9.848259926E0,8.524430394E-1,6.448656917E-1
2.521737758E0,9.876375198E0,8.811569214E-1,6.687939167E-1
2.524120102E0,9.905089378E0,8.817551732E-1,6.927221417E-1
2.526502393E0,9.933803558E0,8.919246197E-1,7.022934556E-1
2.528884685E0,9.962516785E0,8.823533654E-1,7.118647099E-1
2.531266977E0,9.976874352E0,9.014959335E-1,7.070791125E-1
2.533649268E0,1.001037312E1,8.973084688E-1,7.262216806E-1
2.536031560E0,1.003908730E1,8.787640929E-1,7.118647099E-1
2.538413852E0,1.004865837E1,8.644071817E-1,7.022934556E-1
2.540796143E0,1.005344391E1,8.548358679E-1,6.975077987E-1
2.543178435E0,1.008215809E1,8.548358679E-1,6.879364848E-1
2.545560779E0,1.010130119E1,8.548358679E-1,6.640082598E-1
2.547943070E0,1.009172916E1,8.452646136E-1,6.257231236E-1
2.550325362E0,1.007258701E1,8.590233326E-1,5.826523304E-1
2.552707654E0,1.006301594E1,8.590233326E-1,5.635097623E-1
2.555089945E0,1.003908730E1,8.584251404E-1,5.198407173E-1
2.557472237E0,1.001515961E1,8.913264275E-1,4.815555513E-1
2.559854529E0,9.995418549E0,9.104689956E-1,4.618147612E-1
2.562236820E0,9.947562218E0,9.146564603E-1,4.426721931E-1
2.564619164E0,9.914062500E0,9.427721500E-1,4.522434771E-1
2.567001456E0,9.861420631E0,9.661021233E-1,4.713860750E-1
2.569383748E0,9.822537422E0,9.990034699E-1,4.666004181E-1
2.571766039E0,9.760921478E0,1.003190875E0,4.809573591E-1
2.574148331E0,9.698110580E0,1.060020447E0,5.192425251E-1
2.576530623E0,9.644869804E0,1.098305583E0,5.575276613E-1
2.578912914E0,9.582656860E0,1.150349498E0,6.101697683E-1
2.581295206E0,9.524032593E0,1.202393413E0,6.532405615E-1
2.583677550E0,9.476176262E0,1.240080357E0,6.867401004E-1
2.586059841E0,9.413364410E0,1.272981644E0,7.250252366E-1
2.588442133E0,9.365508080E0,1.301695466E0,7.483552694E-1
2.590824425E0,9.317052841E0,1.348953724E0,8.057830334E-1
2.593206716E0,9.283554077E0,1.363310695E0,8.249256015E-1
2.595589008E0,9.250054359E0,1.396211982E0,8.823533654E-1
2.597971300E0,9.211769104E0,1.415354609E0,9.158528447E-1
2.600353591E0,9.197412491E0,1.415354609E0,9.637092948E-1
2.602735935E0,9.159127235E0,1.405185103E0,9.972088337E-1
2.605118227E0,9.126225471E0,1.386042476E0,1.045065284E0
2.607500518E0,9.111868858E0,1.376471281E0,1.078564763E0
2.609882810E0,9.083154678E0,1.357328653E0,1.136590719E0
2.612265102E0,9.074181557E0,1.347757339E0,1.155733347E0
2.614647393E0,9.069396019E0,1.319641709E0,1.194018483E0
2.617029685E0,9.074181557E0,1.300499082E0,1.217946768E0
2.619411977E0,9.084351540E0,1.271785259E0,1.237089276E0
2.621794320E0,9.103493690E0,1.253240824E0,1.284945726E0
2.624176612E0,9.123234749E0,1.229910851E0,1.319043517E0
2.626558904E0,9.156734467E0,1.206580877E0,1.352542996E0
2.628941195E0,9.161520004E0,1.182652593E0,1.390828133E0
2.631323487E0,9.209974289E0,1.168893814E0,1.414756417E0
2.633705779E0,9.267401695E0,1.145563841E0,1.419542074E0
2.636088070E0,9.320044518E0,1.127019525E0,1.433898926E0
2.638470362E0,9.377471924E0,1.099501967E0,1.438684583E0
2.640852706E0,9.430113792E0,1.085743308E0,1.438684583E0
2.643234998E0,9.506684303E0,1.067198873E0,1.433898926E0
2.645617289E0,9.560523033E0,1.039083242E0,1.424327731E0
2.647999581E0,9.627521515E0,1.025324464E0,1.414756417E0
2.650381873E0,9.699306488E0,1.006780148E0,1.409970760E0
2.652764164E0,9.780662537E0,9.840483069E-1,1.390828133E0
2.655146456E0,9.857831001E0,9.367900491E-1,1.367498159E0
2.657528748E0,9.915258408E0,9.134600163E-1,1.377069473E0
2.659911091E0,9.978070259E0,8.572286963E-1,1.400997639E0
2.662293383E0,1.005464077E1,8.440681696E-1,1.439282775E0
2.664675675E0,1.009771156E1,8.063812256E-1,1.458425403E0
2.667057966E0,1.013599682E1,8.213363886E-1,1.515853167E0
2.669440258E0,1.018385315E1,7.980063558E-1,1.563709617E0
2.671822550E0,1.023170948E1,7.842476368E-1,1.611566067E0
2.674204841E0,1.027537823E1,7.615157962E-1,1.664806366E0
2.676587133E0,1.030887794E1,7.615157962E-1,1.703091502E0
2.678969425E0,1.032263660E1,7.764709592E-1,1.746162295E0
2.681351768E0,1.031785107E1,8.051848412E-1,1.779661894E0
2.683734060E0,1.033160973E1,8.344969153E-1,1.827518344E0
2.686116352E0,1.033101177E1,8.919246197E-1,1.846062660E0
2.688498643E0,1.033101177E1,9.110672474E-1,1.865205288E0
2.690880935E0,1.031605625E1,9.637092948E-1,1.908276081E0
2.693263227E0,1.030169964E1,9.966106415E-1,1.927418590E0
2.695645518E0,1.028195858E1,1.030110121E0,1.956132531E0
2.698027810E0,1.027657509E1,1.077966571E0,1.984248161E0
2.700410154E0,1.025264645E1,1.116251707E0,2.008176327E0
2.702792445E0,1.024786091E1,1.130608678E0,2.003390789E0
2.705174737E0,1.020479012E1,1.139581800E0,2.008176327E0
2.707557029E0,1.019043350E1,1.153938770E0,2.051247120E0
2.709939320E0,1.016171932E1,1.129412293E0,2.036890268E0
2.712321612E0,1.011864853E1,1.119242787E0,2.012962103E0
2.714703904E0,1.007139015E1,1.100100160E0,2.032104731E0
2.717086195E0,1.002353382E1,1.089930773E0,2.046461582E0
2.719468539E0,9.946963310E0,1.089332461E0,2.061416626E0
2.721850831E0,9.928419113E0,1.084546804E0,2.075773716E0
2.724233123E0,9.852447510E0,1.035493970E0,2.094916344E0
2.726615414E0,9.814760208E0,9.828519225E-1,2.085943222E0
2.728997706E0,9.757332802E0,9.678967595E-1,2.100300074E0
2.731379998E0,9.705288887E0,9.146564603E-1,2.095514536E0
2.733762289E0,9.662816048E0,8.709874153E-1,2.081755638E0
2.736144581E0,9.610772133E0,8.327022791E-1,2.086541414E0
2.738526925E0,9.568299294E0,8.081758618E-1,2.086541414E0
2.740909216E0,9.534201622E0,7.884350419E-1,2.082353830E0
2.743291508E0,9.486943245E0,7.447660565E-1,2.034497499E0
2.745673800E0,9.463613510E0,6.963114142E-1,1.957927108E0
2.748056091E0,9.430113792E0,6.723831892E-1,1.929811478E0
2.750438383E0,9.416355133E0,6.287141442E-1,1.862812400E0
2.752820675E0,9.407382011E0,5.946164131E-1,1.810170293E0
2.755202966E0,9.397810936E0,5.754738450E-1,1.757528186E0
2.757585310E0,9.412167549E0,5.605186820E-1,1.704886079E0
2.759967602E0,9.388239861E0,5.599204898E-1,1.685743570E0
2.762349893E0,9.378668785E0,5.551348329E-1,1.632503271E0
2.764732185E0,9.359525681E0,5.694918036E-1,1.608574986E0
2.767114477E0,9.388239861E0,5.838487148E-1,1.599003673E0
2.769496768E0,9.392427444E0,5.982056856E-1,1.565504193E0
2.771879060E0,9.415757179E0,6.460621357E-1,1.527219057E0
2.774261352E0,9.406186104E0,6.891329288E-1,1.517049551E0
2.776643695E0,9.409774780E0,7.465606928E-1,1.507478237E0
2.779025987E0,9.424132347E0,7.848458290E-1,1.507478237E0
2.781408279E0,9.413962364E0,8.368897438E-1,1.497308731E0
2.783790570E0,9.399007797E0,8.703892231E-1,1.492523074E0
2.786172862E0,9.394221306E0,9.086744189E-1,1.502094388E0
2.788555154E0,9.379266739E0,9.661021233E-1,1.511067510E0
2.790937445E0,9.388239861E0,1.018744230E0,1.506281853E0
2.793319737E0,9.354142189E0,1.061216831E0,1.525424480E0
2.795702081E0,9.353543282E0,1.104287624E0,1.520040631E0
2.798084373E0,9.343972206E0,1.156929731E0,1.534397483E0
2.800466664E0,9.319445610E0,1.180259824E0,1.567897081E0
2.802848956E0,9.318847656E0,1.223330617E0,1.572084427E0
2.805231248E0,9.308678627E0,1.285543919E0,1.586441398E0
2.807613539E0,9.318249702E0,1.314257860E0,1.596012712E0
2.809995831E0,9.303294182E0,1.347757339E0,1.624128342E0
2.812378123E0,9.307481766E0,1.405185103E0,1.614557028E0
2.814760414E0,9.321838379E0,1.443470240E0,1.624128342E0
2.817142758E0,9.316454887E0,1.500898004E0,1.647458434E0
2.819525050E0,9.325428009E0,1.520638824E0,1.676172256E0
2.821907341E0,9.325428009E0,1.568495274E0,1.691127419E0
2.824289633E0,9.343972206E0,1.573280931E0,1.700698733E0
2.826671925E0,9.358329773E0,1.597209096E0,1.709671736E0
2.829054216E0,9.377471924E0,1.597807288E0,1.738385677E0
2.831436508E0,9.377471924E0,1.578664780E0,1.719841242E0
2.833818852E0,9.372686386E0,1.593021631E0,1.719243050E0
2.836201143E0,9.382257462E0,1.573879123E0,1.710269928E0
2.838583435E0,9.378069878E0,1.544566989E0,1.666600943E0
2.840965727E0,9.378069878E0,1.520638824E0,1.637887120E0
2.843348018E0,9.354740143E0,1.482353687E0,1.604387641E0
2.845730310E0,9.354740143E0,1.448255897E0,1.542772412E0
2.848112602E0,9.364909172E0,1.390828133E0,1.485344648E0
2.850494893E0,9.341579437E0,1.351944804E0,1.413560033E0
2.852877237E0,9.351749420E0,1.299302697E0,1.380658627E0
2.855259529E0,9.337391853E0,1.261017561E0,1.347159147E0
2.857641820E0,9.338588715E0,1.194018483E0,1.313659668E0
2.860024112E0,9.324232101E0,1.179063320E0,1.304686546E0
2.862406404E0,9.329615593E0,1.127019525E0,1.309472203E0
2.864788695E0,9.324830055E0,1.117448211E0,1.319043517E0
2.867170987E0,9.305686951E0,1.103091240E0,1.342971683E0
2.869553279E0,9.315856934E0,1.088734269E0,1.362114310E0
2.871935570E0,9.311071396E0,1.064806104E0,1.415354609E0
2.874317914E0,9.301499367E0,1.050449133E0,1.444068432E0
2.876700206E0,9.287740707E0,1.051047325E0,1.491924882E0
2.879082498E0,9.296713829E0,1.065404296E0,1.534995675E0
2.881464789E0,9.296713829E0,1.084546804E0,1.582253933E0
2.883847081E0,9.296713829E0,1.104287624E0,1.610967875E0
2.886229373E0,9.300901413E0,1.123430252E0,1.625324726E0
2.888611664E0,9.310472488E0,1.137787223E0,1.668395638E0
2.890994008E0,9.339186668E0,1.167099237E0,1.702493310E0
2.893376300E0,9.348159790E0,1.181456208E0,1.721635938E0
2.895758591E0,9.381659508E0,1.215553880E0,1.749751568E0
2.898140883E0,9.381061554E0,1.268195987E0,1.778465390E0
2.900523175E0,9.394820213E0,1.287338614E0,1.788036704E0
2.902905466E0,9.418747902E0,1.311864972E0,1.788036704E0
2.905287758E0,9.446864128E0,1.345364571E0,1.782652855E0
2.907670050E0,9.466006279E0,1.364507079E0,1.782652855E0
2.910052393E0,9.489336014E0,1.389033556E0,1.811366796E0
2.912434685E0,9.508479118E0,1.379462242E0,1.816152334E0
2.914816977E0,9.532406807E0,1.389631748E0,1.840080619E0
2.917199268E0,9.547362328E0,1.403988719E0,1.840080619E0
2.919581560E0,9.566504478E0,1.394417405E0,1.840080619E0
2.921963852E0,9.566504478E0,1.409372568E0,1.854437590E0
2.924346143E0,9.580862045E0,1.399801254E0,1.868794441E0
2.926728435E0,9.552147865E0,1.395015597E0,1.883151412E0
2.929110779E0,9.561718941E0,1.390229940E0,1.883151412E0
2.931493070E0,9.547362328E0,1.389631748E0,1.883151412E0
2.933875362E0,9.533005714E0,1.380060434E0,1.897508383E0
2.936257654E0,9.522835732E0,1.384846091E0,1.911865234E0
2.938639945E0,9.503693581E0,1.399203062E0,1.921436548E0
2.941022237E0,9.480362892E0,1.389033556E0,1.926222205E0
2.943404529E0,9.456435204E0,1.365105271E0,1.931007862E0
2.945786820E0,9.442676544E0,1.341177106E0,1.926222205E0
2.948169164E0,9.428318977E0,1.345962763E0,1.945364833E0
2.950551456E0,9.404391289E0,1.345364571E0,1.945364833E0
2.952933748E0,9.394820213E0,1.316650629E0,1.936391711E0
2.955316039E0,9.370891571E0,1.335793257E0,1.931606054E0
2.957698331E0,9.356534958E0,1.306481123E0,1.912463546E0
2.960080623E0,9.323633194E0,1.292124271E0,1.907677889E0
2.962462914E0,9.304491043E0,1.258026481E0,1.869392633E0
2.964845258E0,9.304491043E0,1.262812138E0,1.850250125E0
2.967227550E0,9.281160355E0,1.247856975E0,1.826321840E0
2.969609841E0,9.290732384E0,1.224527001E0,1.811964989E0
2.971992133E0,9.276374817E0,1.209571838E0,1.779063582E0
2.974374425E0,9.271589279E0,1.195214868E0,1.774278045E0
2.976756716E0,9.281759262E0,1.185643673E0,1.755135417E0
2.979139008E0,9.300901413E0,1.152144074E0,1.731207132E0
2.981521300E0,9.315258980E0,1.138385415E0,1.726421595E0
2.983903643E0,9.305686951E0,1.142572761E0,1.731207132E0
2.986285935E0,9.320642471E0,1.114457130E0,1.716850281E0
2.988668227E0,9.329615593E0,1.128814101E0,1.707278967E0
2.991050518E0,9.363115311E0,1.128814101E0,1.726421595E0
2.993432810E0,9.382257462E0,1.138983607E0,1.726421595E0
2.995815102E0,9.396614075E0,1.138983607E0,1.755135417E0
2.998197393E0,9.420542717E0,1.130010486E0,1.769492388E0
3.000579685E0,9.434301376E0,1.163509965E0,1.774278045E0
3.002961977E0,9.444471359E0,1.135394335E0,1.807777524E0
3.005344320E0,9.473184586E0,1.149751306E0,1.826920033E0
3.007726612E0,9.477970123E0,1.144965649E0,1.841277003E0
3.010108904E0,9.506086349E0,1.179063320E0,1.874776483E0
3.012491195E0,9.506086349E0,1.174277663E0,1.898704767E0
3.014873487E0,9.510871887E0,1.202991605E0,1.926820397E0
3.017255779E0,9.520442963E0,1.213161111E0,1.965105653E0
3.019638070E0,9.534201622E0,1.237089276E0,1.989033818E0
3.022020414E0,9.549157143E0,1.261017561E0,1.931606054E0
3.024402706E0,9.558728218E0,1.265803218E0,1.955534339E0
3.026784998E0,9.562915802E0,1.280758262E0,1.969891191E0
3.029167289E0,9.567701340E0,1.285543919E0,1.955534339E0
3.031549581E0,9.567701340E0,1.308874011E0,1.945364833E0
3.033931873E0,9.572486877E0,1.299302697E0,1.931007862E0
3.036314164E0,9.577272415E0,1.313659668E0,1.892722726E0
3.038696456E0,9.562915802E0,1.308874011E0,1.859223247E0
3.041078800E0,9.543772697E0,1.289133191E0,1.831107497E0
3.043461091E0,9.543772697E0,1.274776220E0,1.792822361E0
3.045843383E0,9.538389206E0,1.278963685E0,1.754537225E0
3.048225675E0,9.519247055E0,1.274178028E0,1.711466432E0
3.050607966E0,9.524630547E0,1.235892892E0,1.697109461E0
3.052990258E0,9.534201622E0,1.211964726E0,1.677368641E0
3.055372550E0,9.524630547E0,1.207179070E0,1.667797327E0
3.057754841E0,9.544371605E0,1.192822099E0,1.672582984E0
3.060137185E0,9.544969559E0,1.164108157E0,1.677966833E0
3.062519477E0,9.549755096E0,1.164706469E0,1.702493310E0
3.064901768E0,9.559326172E0,1.135992527E0,1.731207132E0
3.067284060E0,9.569496155E0,1.102493048E0,1.755135417E0
3.069666352E0,9.564710617E0,1.112662554E0,1.788634896E0
3.072048643E0,9.559925079E0,1.112662554E0,1.826920033E0
3.074430935E0,9.569496155E0,1.122233868E0,1.850848317E0
3.076813227E0,9.564710617E0,1.103091240E0,1.884347796E0
3.079195570E0,9.569496155E0,1.146760225E0,1.927418590E0
3.081577862E0,9.579067230E0,1.146760225E0,1.932204247E0
3.083960154E0,9.583254814E0,1.180259824E0,1.955534339E0
3.086342445E0,9.607182503E0,1.200000525E0,1.965105653E0
3.088724737E0,9.601799011E0,1.223330617E0,1.965105653E0
3.091107029E0,9.615557671E0,1.266999602E0,1.974676847E0
3.093489320E0,9.625128746E0,1.300499082E0,1.964507341E0
3.095871612E0,9.643673897E0,1.324427366E0,1.964507341E0
3.098253956E0,9.657432556E0,1.391426325E0,1.954936147E0
3.100636248E0,9.675976753E0,1.453639746E0,1.949552298E0
3.103018539E0,9.680164337E0,1.501496196E0,1.935195327E0
3.105400831E0,9.693922997E0,1.578066587E0,1.953739643E0
3.107783123E0,9.731609344E0,1.625923038E0,1.934597135E0
3.110165414E0,9.754341125E0,1.689332843E0,1.938784599E0
3.112547706E0,9.792028427E0,1.756331801E0,1.953141451E0
3.114930050E0,9.824930191E0,1.819143414E0,1.962114573E0
3.117312341E0,9.867402077E0,1.876571178E0,1.957328916E0
3.119694633E0,9.905089378E0,1.925025821E0,1.961516380E0
3.122076925E0,9.952347755E0,1.987837434E0,1.975873351E0
3.124459216E0,9.989436150E0,2.050648928E0,1.994417667E0
3.126841508E0,1.004686451E1,2.074577332E0,1.989632010E0
3.129223800E0,1.007497978E1,2.127817631E0,2.017747641E0
3.131606143E0,1.014616585E1,2.157727718E0,2.051247120E0
3.133988435E0,1.020299530E1,2.201396942E0,2.079961061E0
3.136370727E0,1.025563812E1,2.225923300E0,2.127219439E0
3.138753018E0,1.031725311E1,2.245664120E0,2.155933142E0
3.141135310E0,1.036510944E1,2.232503414E0,2.189432621E0
3.143517602E0,1.042253685E1,2.228316069E0,2.227717876E0
3.145899893E0,1.046082211E1,2.209771633E0,2.256431818E0
3.148282185E0,1.048534870E1,2.181656122E0,2.299502611E0
3.150664529E0,1.050508976E1,2.129612207E0,2.333600283E0
3.153046820E0,1.052483082E1,2.072184324E0,2.362314224E0
3.155429112E0,1.053918743E1,2.029711723E0,2.396411896E0
3.157811404E0,1.053499985E1,1.991426587E0,2.439482689E0
3.160193695E0,1.052183914E1,1.905285001E0,2.473580360E0
3.162575987E0,1.050808048E1,1.838884234E0,2.507079840E0
3.164958279E0,1.049910736E1,1.771885157E0,2.531606436E0
3.167340570E0,1.048594666E1,1.700100541E0,2.565105915E0
3.169722914E0,1.045783138E1,1.618146300E0,2.594418049E0
3.172105206E0,1.041595650E1,1.527219057E0,2.623729944E0
3.174487498E0,1.040219784E1,1.469791293E0,2.633301258E0
3.176869789E0,1.034536839E1,1.406979680E0,2.672184706E0
3.179252081E0,1.031306553E1,1.339980721E0,2.696112871E0
3.181634373E0,1.029452133E1,1.258624673E0,2.706282377E0
3.184016664E0,1.023828983E1,1.181456208E0,2.754737139E0
3.186398956E0,1.020060253E1,1.124028444E0,2.778665304E0
3.188781300E0,1.016351414E1,1.037886858E0,2.818146944E0
3.191163591E0,1.013539886E1,9.661021233E-1,2.832503796E0
3.193545883E0,1.012642574E1,8.991031051E-1,2.842673302E0
3.195928175E0,1.011266708E1,8.560323119E-1,2.847458839E0
3.198310466E0,1.011805058E1,8.027920127E-1,2.799602509E0
3.200692758E0,1.011864853E1,7.405785918E-1,2.785245657E0
3.203075050E0,1.012821960E1,7.166503668E-1,2.751745939E0
3.205457341E0,1.015214825E1,7.214360237E-1,2.699103832E0
3.207839685E0,1.020000458E1,7.172485590E-1,2.636890650E0
3.210221977E0,1.024247742E1,7.411768436E-1,2.574677229E0
3.212604268E0,1.029990482E1,7.651050687E-1,2.498106956E0
3.214986560E0,1.036570740E1,8.135597110E-1,2.401795626E0
3.217368852E0,1.047039413E1,8.668000102E-1,2.301297188E0
3.219751143E0,1.058405304E1,9.433703423E-1,2.137987137E0
3.222133487E0,1.073659515E1,1.025922656E0,1.974676847E0
3.224515779E0,1.090289593E1,1.079162955E0,1.801795483E0
3.226898070E0,1.107876873E1,1.137787223E0,1.642672777E0
3.229280362E0,1.126002502E1,1.182054400E0,1.479960799E0
3.231662654E0,1.142692471E1,1.207179070E0,1.354935765E0
3.234044945E0,1.162672520E1,1.228116274E0,1.230509043E0
3.236427237E0,1.179003525E1,1.238883972E0,1.143769264E0
3.238809529E0,1.196172047E1,1.254437327E0,1.033699393E0
3.241191820E0,1.212383366E1,1.260419369E0,9.332008362E-1
3.243574164E0,1.224766254E1,1.271187067E0,8.560323119E-1
3.245956456E0,1.237687492E1,1.262812138E0,7.459624410E-1
3.248338748E0,1.248215961E1,1.253839016E0,6.741777658E-1
3.250721039E0,1.258205986E1,1.235294700E0,6.215356588E-1
3.253103331E0,1.266341591E1,1.211964726E0,5.347958803E-1
3.255485623E0,1.271665573E1,1.188634634E0,4.965106845E-1
3.257867914E0,1.275015545E1,1.150947690E0,4.731806815E-1
3.260250258E0,1.277468204E1,1.098305583E0,4.492524564E-1
3.262632550E0,1.276570892E1,1.031306505E0,4.444667995E-1
3.265014841E0,1.275254822E1,9.595218897E-1,4.498506486E-1
3.267397133E0,1.271007538E1,8.967102766E-1,4.456632137E-1
3.269779425E0,1.265863037E1,7.722834945E-1,4.654040039E-1
3.272161716E0,1.256411362E1,6.753742099E-1,4.845465720E-1
3.274544008E0,1.249352551E1,5.694918036E-1,4.851447940E-1
3.276926300E0,1.237508011E1,4.821537733E-1,4.905286431E-1
3.279308643E0,1.226142120E1,3.948157430E-1,4.959124923E-1
3.281690935E0,1.212802124E1,3.403790295E-1,4.917250574E-1
3.284073227E0,1.198086262E1,3.008974493E-1,4.725824594E-1
3.286455518E0,1.181396389E1,2.458625287E-1,4.301098585E-1
3.288837810E0,1.164646626E1,2.392822653E-1,3.918247223E-1
3.291220102E0,1.145982552E1,2.321037948E-1,3.535395563E-1
3.293602393E0,1.124507046E1,2.440679073E-1,3.062812984E-1
3.295984737E0,1.102493000E1,2.943171859E-1,2.967100143E-1
3.298367029E0,1.079043388E1,3.343969584E-1,2.871387303E-1
3.300749320E0,1.054516983E1,3.894318938E-1,2.823530734E-1
3.303131612E0,1.032024384E1,4.630111754E-1,2.530409992E-1
3.305500623E0,1.010010433E1,5.132604837E-1,2.291127741E-1
3.307896195E0,9.888937950E0,5.688936114E-1,1.860419661E-1
3.310325779E0,9.673583984E0,6.281159520E-1,1.142572835E-1
3.312755362E0,9.471988678E0,6.640082598E-1,6.640082598E-2
3.315184945E0,9.251250267E0,7.232306600E-1,-1.974078640E-2
3.317601404E0,8.877969742E0,7.998009920E-1,-1.824527234E-1
3.320044841E0,8.739186287E0,8.410771489E-1,-2.733799815E-1
3.322474737E0,8.599804878E0,8.865407705E-1,-3.505485058E-1
3.324904633E0,8.513663292E0,9.188438654E-1,-4.366901219E-1
3.327334529E0,8.412566185E0,9.409775138E-1,-5.617151260E-1
3.329764477E0,8.344968796E0,9.732806087E-1,-6.669993401E-1
3.332194373E0,8.286943436E0,1.015154958E0,-7.627122402E-1
3.334624268E0,8.215158463E0,1.042672515E0,-8.201399446E-1
3.337054164E0,8.181060791E0,1.085145116E0,-8.973084688E-1
3.339484060E0,8.166703224E0,1.098903775E0,-9.643075466E-1
3.341913956E0,8.147561073E0,1.127019525E0,-1.031306505E0
3.344343852E0,8.151748657E0,1.146162033E0,-1.045663476E0
3.346773800E0,8.142177582E0,1.146162033E0,-1.098305583E0
3.349203695E0,8.146963120E0,1.146162033E0,-1.117448211E0
3.351633591E0,8.127820015E0,1.131206870E0,-1.141376376E0
3.354063487E0,8.157132149E0,1.098305583E0,-1.131805062E0
3.356493383E0,8.162516594E0,1.055234790E0,-1.112064362E0
3.358923279E0,8.172087669E0,1.007378340E0,-1.102493048E0
3.361353175E0,8.215756416E0,9.463613629E-1,-1.083350420E0
3.363783070E0,8.245666504E0,8.751748800E-1,-1.030110121E0
3.366213018E0,8.303692818E0,8.135597110E-1,-9.678967595E-1
3.368642914E0,8.380861282E0,7.286145091E-1,-9.098708034E-1
3.371072810E0,8.472985268E0,6.490531564E-1,-8.141579032E-1
3.373502706E0,8.584251404E0,5.545366406E-1,-7.178468108E-1
3.375932602E0,8.685347557E0,4.749752879E-1,-6.077769399E-1
3.378362498E0,8.800801277E0,3.906283081E-1,-5.012963414E-1
3.380792393E0,8.921041489E0,3.158525825E-1,-4.007977843E-1
3.383222289E0,9.060422897E0,2.608176768E-1,-3.140579760E-1
3.385652237E0,9.203991890E0,2.003988922E-1,-2.231307179E-1
3.388082133E0,9.324232101E0,1.304088384E-1,-1.178465188E-1
3.390512029E0,9.449256897E0,8.913264424E-2,-4.606183618E-2
3.392941925E0,9.579067230E0,3.349951655E-2,-7.178467698E-3
3.395371820E0,9.699306488E0,-3.589233849E-3,3.589234129E-2
3.397801716E0,9.804591179E0,-3.529413417E-2,4.546362907E-2
3.400231612E0,9.891330719E0,-8.255238086E-2,3.110669367E-2
3.402661560E0,9.967901230E0,-1.058823988E-1,1.196411345E-2
3.405091456E0,1.006839943E1,-1.573280841E-1,-4.546362907E-2
3.407521352E0,1.015454102E1,-1.854437590E-1,-1.028913707E-1
3.409951248E0,1.023170948E1,-2.512463629E-1,-1.214357466E-1
3.412381143E0,1.028495026E1,-2.889333367E-1,-1.357926875E-1
3.414811039E0,1.035194874E1,-3.170489967E-1,-1.357926875E-1
3.417240935E0,1.041476059E1,-3.595215976E-1,-1.310070455E-1
3.419670831E0,1.044287586E1,-3.589234054E-1,-1.310070455E-1
3.422100779E0,1.049133110E1,-3.870390654E-1,-1.208375469E-1
3.424530675E0,1.052961636E1,-3.822534084E-1,-1.118644550E-1
3.426960570E0,1.053858948E1,-3.768695593E-1,-1.118644550E-1
3.429390466E0,1.057687473E1,-3.768695593E-1,-9.272187948E-2
3.431775727E0,1.060080242E1,-3.523431420E-1,-1.214357466E-1
3.434158018E0,1.063430214E1,-3.475574851E-1,-1.070788130E-1
3.436540310E0,1.062413216E1,-3.332005441E-1,-9.750752151E-2
3.438922654E0,1.062891865E1,-2.853440940E-1,-8.315058798E-2
3.441304945E0,1.062353420E1,-2.614158690E-1,-7.417750359E-2
3.443687237E0,1.059422207E1,-1.800599098E-1,-4.546362907E-2
3.446069529E0,1.057448101E1,-1.136590764E-1,-1.256231871E-2
3.448451820E0,1.052602673E1,-5.623133108E-2,4.486542568E-2
3.450834112E0,1.046800041E1,1.495514158E-2,7.836493850E-2
3.453216404E0,1.044347477E1,1.052841991E-1,1.256231815E-1
3.455598748E0,1.035613632E1,1.956132501E-1,1.298106313E-1
3.457981039E0,1.028375340E1,2.949153781E-1,1.776670814E-1
3.460363331E0,1.018744278E1,3.756731451E-1,2.201396823E-1
3.462745623E0,1.010548782E1,4.606183469E-1,2.249253243E-1
3.465127914E0,1.002293587E1,5.407779217E-1,2.195414752E-1
3.467510206E0,9.921838760E0,6.311069727E-1,2.147558331E-1
3.469892498E0,9.825528145E0,6.969096065E-1,2.141576260E-1
3.472274789E0,9.739386559E0,7.393822074E-1,2.141576260E-1
3.474657133E0,9.667003632E0,8.147560954E-1,1.806581169E-1
3.477039425E0,9.580264091E0,8.470591903E-1,1.848455518E-1
3.479421716E0,9.483952522E0,8.943174481E-1,2.135594189E-1
3.481804008E0,9.402596474E0,9.170492887E-1,2.183450609E-1
3.484186300E0,9.335597992E0,9.260223508E-1,2.470589429E-1
3.486568591E0,9.268598557E0,9.349954724E-1,2.422732860E-1
3.488950883E0,9.197412491E0,9.152546525E-1,3.002992272E-1
3.491333227E0,9.149555206E0,9.098708034E-1,3.050848842E-1
3.493715518E0,9.102297783E0,8.811569214E-1,3.337987661E-1
3.496097810E0,9.064012527E0,8.566305041E-1,3.625126183E-1
3.498480102E0,9.054440498E0,8.518448472E-1,3.816552162E-1
3.500862393E0,9.040681839E0,8.327022791E-1,3.816552162E-1
3.503244685E0,9.059824944E0,7.950153351E-1,3.918247223E-1
3.505626977E0,9.079565048E0,7.519445419E-1,3.583251834E-1
3.508009320E0,9.103493690E0,7.328019142E-1,3.152543902E-1
3.510391612E0,9.142376900E0,6.993024349E-1,2.243271172E-1
3.512773904E0,9.180064201E0,6.897311211E-1,1.477568001E-1
3.515156195E0,9.227920532E0,6.945167780E-1,6.640082598E-2
3.517538487E0,9.266205788E0,6.807580590E-1,-5.982056609E-4
3.519920779E0,9.309276581E0,6.616154313E-1,-9.152546525E-2
3.522303070E0,9.357132912E0,6.329016089E-1,-1.585244983E-1
3.524685414E0,9.366703987E0,6.281159520E-1,-2.111666054E-1
3.527067706E0,9.400203705E0,6.281159520E-1,-2.733799815E-1
3.529449998E0,9.438488960E0,6.143572330E-1,-2.973082066E-1
3.531832289E0,9.458230019E0,6.000002623E-1,-3.068794906E-1
3.534214581E0,9.458230019E0,5.952146053E-1,-2.733799815E-1
3.536596873E0,9.448657990E0,5.760720372E-1,-2.392822653E-1
3.538979164E0,9.439684868E0,5.473581553E-1,-1.770688742E-1
3.541361456E0,9.430113792E0,5.186443329E-1,-1.100698411E-1
3.543743800E0,9.387641907E0,4.803591371E-1,-3.828516230E-2
3.546126091E0,9.354740143E0,4.420739710E-1,6.281159073E-2
3.548508383E0,9.336195946E0,4.187439680E-1,1.489532143E-1
3.550890675E0,9.284152031E0,3.559323549E-1,2.261217386E-1
3.553272966E0,9.232108116E0,3.080759048E-1,3.122633696E-1
3.555655258E0,9.194420815E0,2.841476798E-1,3.888336718E-1
3.558037550E0,9.161520004E0,2.368894368E-1,5.042873621E-1
3.560419893E0,9.099904060E0,2.171486616E-1,5.718846321E-1
3.562802185E0,9.056833267E0,1.788634956E-1,6.251249313E-1
3.565184477E0,8.995218277E0,1.399801224E-1,6.681957245E-1
3.567566768E0,8.957531929E0,1.256231815E-1,7.112665176E-1
3.569949060E0,8.919844627E0,8.195417374E-2,7.160521746E-1
3.572331352E0,8.857631683E0,8.135596663E-2,7.310073376E-1
3.574713643E0,8.819346428E0,6.221338734E-2,7.214360237E-1
3.577095987E0,8.781659126E0,5.682953820E-2,6.975077987E-1
3.579478279E0,8.748159409E0,5.144568533E-2,6.735795736E-1
3.581860570E0,8.729017258E0,5.084748194E-2,6.448656917E-1
3.584242862E0,8.700303078E0,5.503492057E-2,5.970092416E-1
3.586625154E0,8.690732002E0,4.546362907E-2,5.198407173E-1
3.589007445E0,8.671588898E0,5.922235921E-2,4.719842672E-1
3.591389737E0,8.675776482E0,6.400800496E-2,4.384847581E-1
3.593772029E0,8.685946465E0,5.443671346E-2,3.858426511E-1
3.596154373E0,8.685946465E0,4.426721856E-2,3.475574851E-1
3.598536664E0,8.690732002E0,3.948157281E-2,3.475574851E-1
3.600918956E0,8.709874153E0,2.572284266E-2,3.523431420E-1
3.603301248E0,8.733802795E0,1.674975827E-2,4.001995921E-1
3.605683539E0,8.762516975E0,-2.392822644E-3,4.145565331E-1
3.608065831E0,8.787042618E0,-4.007977992E-2,4.582255483E-1
3.610448175E0,8.820542336E0,-6.819544733E-2,5.300102234E-1
3.612830466E0,8.868997574E0,-1.100698411E-1,5.688936114E-1
3.615212758E0,8.902496338E0,-1.238285750E-1,6.263213158E-1
3.617595050E0,8.941379547E0,-1.567298770E-1,7.028916478E-1
3.619977341E0,8.970093727E0,-1.609173268E-1,7.363911867E-1
3.622359633E0,8.994022369E0,-1.842473447E-1,7.555337548E-1
3.624741925E0,9.013164520E0,-1.603191197E-1,8.033902049E-1
3.627124216E0,9.051449776E0,-1.692921966E-1,8.177471161E-1
3.629506560E0,9.080163956E0,-1.830509305E-1,8.273184299E-1
3.631888852E0,9.094520569E0,-1.782652885E-1,8.273184299E-1
3.634271143E0,9.128020287E0,-1.633101404E-1,8.273184299E-1
3.636653435E0,9.151947975E0,-1.680957973E-1,8.273184299E-1
3.639035727E0,9.160921097E0,-1.345962733E-1,8.081758618E-1
3.641418018E0,9.179466248E0,-1.010967568E-1,7.555337548E-1
3.643800310E0,9.183652878E0,-5.324030295E-2,7.310073376E-1
3.646182654E0,9.198010445E0,-1.555334684E-2,6.975077987E-1
3.648564945E0,9.206983566E0,-1.196411322E-3,6.400800347E-1
3.650947237E0,9.211171150E0,3.230310604E-2,5.916253924E-1
3.653329529E0,9.230313301E0,5.144568533E-2,5.288137794E-1
3.655711820E0,9.244071960E0,7.956135273E-2,4.953143001E-1
3.658094112E0,9.258428574E0,8.434699476E-2,4.426721931E-1
3.660476404E0,9.287142754E0,1.088734269E-1,4.187439680E-1
3.662858695E0,9.291330338E0,1.178465188E-1,3.948157430E-1
3.665241039E0,9.310472488E0,1.423729509E-1,3.750749528E-1
3.667623331E0,9.329615593E0,1.328016520E-1,3.702892959E-1
3.670005623E0,9.334401131E0,1.232303679E-1,3.798605800E-1
3.672387914E0,9.344570160E0,9.990034252E-2,4.139583111E-1
3.674770206E0,9.349356651E0,7.118647546E-2,4.666004181E-1
3.677152498E0,9.345169067E0,4.785645381E-2,5.335994363E-1
3.679534789E0,9.349954605E0,1.914258115E-2,6.011967063E-1
3.681917133E0,9.355338097E0,5.982056609E-4,6.586244106E-1
3.684299425E0,9.369695663E0,-3.230310604E-2,7.453642488E-1
3.686681716E0,9.369695663E0,-1.316052489E-2,7.932206988E-1
3.689064008E0,9.351150513E0,-3.230310604E-2,8.506484628E-1
3.691446300E0,9.341579437E0,-5.563312769E-2,9.128618240E-1
3.693828591E0,9.336793900E0,-6.041877344E-2,9.511470199E-1
3.696210935E0,9.317651749E0,-6.999006122E-2,9.894321561E-1
3.698593227E0,9.303294182E0,-6.520441920E-2,1.018146038E0
3.700975518E0,9.284152031E0,-6.041877344E-2,1.037288666E0
3.703357810E0,9.288937569E0,-4.127619043E-2,1.051645517E0
3.705740102E0,9.279366493E0,-5.084748194E-2,1.070788145E0
3.708122393E0,9.284152031E0,-3.649054468E-2,1.123430252E0
3.710504685E0,9.274580956E0,-1.734796353E-2,1.142572761E0
3.712886977E0,9.279366493E0,-1.674975827E-2,1.171286702E0
3.715269320E0,9.279366493E0,-7.178467698E-3,1.185643673E0
3.717651612E0,9.302696228E0,2.153540403E-2,1.223928809E0
3.720033904E0,9.283554077E0,2.153540403E-2,1.290927768E0
3.722416195E0,9.331410408E0,2.751746029E-2,1.328614831E0
3.724798487E0,9.355338097E0,5.144568533E-2,1.347757339E0
3.727180779E0,9.383454323E0,6.640082598E-2,1.381256819E0
3.729563123E0,9.436096191E0,7.657032460E-2,1.409970760E0
3.731945414E0,9.469595909E0,9.631111473E-2,1.405185103E0
3.734327706E0,9.512067795E0,1.058823988E-1,1.400399446E0
3.736709998E0,9.550951958E0,1.351944804E-1,1.390229940E0
3.739092289E0,9.583852768E0,1.686939895E-1,1.380658627E0
3.741474581E0,9.611968994E0,1.878365725E-1,1.342373490E0
3.743856873E0,9.659825325E0,2.027917206E-1,1.328016520E0
3.746239164E0,9.702896118E0,2.177468538E-1,1.308275819E0
3.748621508E0,9.745368004E0,2.416750938E-1,1.274776220E0
3.751003800E0,9.778867722E0,2.422732860E-1,1.269990563E0
3.753386091E0,9.812367439E0,2.422732860E-1,1.241276741E0
3.755768383E0,9.850054741E0,2.572284341E-1,1.226919770E0
3.758150675E0,9.883553505E0,2.524427772E-1,1.222134113E0
3.760532966E0,9.935597420E0,2.961117923E-1,1.207179070E0
3.762915258E0,9.949954987E0,3.056831062E-1,1.211964726E0
3.765297602E0,9.973882675E0,3.302095234E-1,1.192822099E0
3.767679893E0,9.968499184E0,3.822534084E-1,1.197607756E0
3.770062185E0,9.982855797E0,3.828516304E-1,1.197607756E0
3.772444477E0,9.991828918E0,4.163511395E-1,1.182652593E0
3.774826768E0,9.991230965E0,4.498506486E-1,1.192223907E0
3.777209060E0,9.981659889E0,4.731806815E-1,1.192223907E0
3.779591352E0,9.981659889E0,4.923232496E-1,1.211366415E0
3.781973695E0,9.981060982E0,5.216353536E-1,1.244866014E0
3.784355987E0,9.971489906E0,5.401797295E-1,1.259222865E0
3.786738279E0,9.971489906E0,5.653043389E-1,1.301695466E0
3.789120570E0,9.966106415E0,5.748756528E-1,1.339980721E0
3.791502862E0,9.971489906E0,5.700899959E-1,1.363908887E0
3.793885154E0,9.952347755E0,5.599204898E-1,1.402194023E0
3.796267445E0,9.952347755E0,5.551348329E-1,1.431506157E0
3.798649737E0,9.952945709E0,5.222335458E-1,1.465005636E0
3.801032081E0,9.952945709E0,4.839483798E-1,1.488933921E0
3.803414373E0,9.943972588E0,4.504488707E-1,1.503290772E0
3.805796664E0,9.949356079E0,3.882354796E-1,1.508674622E0
3.808178956E0,9.935597420E0,3.403790295E-1,1.494317770E0
3.810561248E0,9.950552940E0,2.787638307E-1,1.490130305E0
3.812943539E0,9.951150894E0,2.356930375E-1,1.470987678E0
3.815325883E0,9.946963310E0,1.734796464E-1,1.466202021E0
3.817708175E0,9.947562218E0,1.160518974E-1,1.442872047E0
3.820090466E0,9.938589096E0,4.366901144E-2,1.433300734E0
3.822472758E0,9.948758125E0,1.076770201E-2,1.438684583E0
3.824855050E0,9.939785004E0,-5.623133108E-2,1.429113269E0
3.827237341E0,9.949356079E0,-8.494520187E-2,1.424327731E0
3.829619633E0,9.930811882E0,-1.184447184E-1,1.415354609E0
3.832001977E0,9.935597420E0,-1.519442350E-1,1.391426325E0
3.834384268E0,9.940981865E0,-1.902294010E-1,1.410568953E0
3.836766560E0,9.955338478E0,-1.950150430E-1,1.405783296E0
3.839148852E0,9.975079536E0,-2.231307179E-1,1.400997639E0
3.841531143E0,9.989436150E0,-2.231307179E-1,1.410568953E0
3.843913435E0,1.001276588E1,-2.231307179E-1,1.410568953E0
3.846295727E0,1.003669453E1,-2.225325108E-1,1.429711580E0
3.848678070E0,1.005105114E1,-1.986042857E-1,1.467996716E0
3.851060362E0,1.006540871E1,-1.932204217E-1,1.487139225E0
3.853442654E0,1.007916737E1,-1.549352705E-1,1.530210137E0
3.855824945E0,1.008873844E1,-1.304088384E-1,1.573280931E0
3.858207237E0,1.010788059E1,-1.154536903E-1,1.640279889E0
3.860589529E0,1.012164021E1,-8.195417374E-2,1.677966833E0
3.862971820E0,1.016471100E1,-8.614161611E-2,1.726421595E0
3.865354112E0,1.016411209E1,-5.204389244E-2,1.812563181E0
3.867736404E0,1.016949654E1,-5.623133108E-2,1.908276081E0
3.870118748E0,1.018804073E1,-4.127619043E-2,1.999203324E0
3.872501039E0,1.019342422E1,-4.606183618E-2,2.085345030E0
3.874883331E0,1.020239735E1,-7.178467698E-3,2.195414782E0
3.877265623E0,1.022154045E1,8.374879137E-3,2.315055847E0
3.879647914E0,1.022632599E1,2.751746029E-2,2.400599241E0
3.882030206E0,1.023051357E1,5.682953820E-2,2.510669231E0
3.884412550E0,1.023470020E1,1.094716340E-1,2.568096876E0
3.886794841E0,1.023410225E1,1.722832322E-1,2.658426046E0
3.889177133E0,1.022871876E1,2.392822653E-1,2.711068153E0
3.891559425E0,1.019462109E1,3.302095234E-1,2.787040234E0
3.893941716E0,1.017009449E1,3.828516304E-1,2.854637384E0
3.896324008E0,1.015035343E1,4.737788737E-1,2.921038151E0
3.898706352E0,1.010668468E1,5.497509837E-1,2.997608662E0
3.901088643E0,1.007677460E1,6.269195080E-1,3.044866800E0
3.903470935E0,1.004806042E1,6.699903607E-1,3.145365477E0
3.905853227E0,1.002353382E1,7.465606928E-1,3.211766243E0
3.908235518E0,9.989436150E0,8.087740541E-1,3.293122053E0
3.910617810E0,9.983454704E0,9.044869542E-1,3.378665686E0
3.913000102E0,9.978070259E0,9.810572863E-1,3.412165165E0
3.915382393E0,9.987043381E0,1.028913736E0,3.430709362E0
3.917764737E0,9.976874352E0,1.071984529E0,3.440280676E0
3.920147029E0,9.991230965E0,1.110269666E0,3.430709362E0
3.922529320E0,1.000498962E1,1.158126116E0,3.406183004E0
3.924911612E0,1.002831936E1,1.177268744E0,3.358326674E0
3.927293904E0,1.004267693E1,1.191625714E0,3.286541939E0
3.929676195E0,1.006181908E1,1.205982566E0,3.214757204E0
3.932058487E0,1.007079220E1,1.238883972E0,3.133401155E0
3.934440831E0,1.008455086E1,1.266999602E0,3.008376360E0
3.936823123E0,1.012702370E1,1.295713425E0,2.898306370E0
3.939205414E0,1.015992451E1,1.328614831E0,2.706282377E0
3.941587706E0,1.020299530E1,1.351944804E0,2.485544443E0
3.943969998E0,1.026939678E1,1.342373490E0,2.255833626E0
3.946352289E0,1.034118080E1,1.308275819E0,1.939980984E0
3.948734581E0,1.041775131E1,1.278963685E0,1.618744493E0
3.951116925E0,1.053260708E1,1.235294700E0,1.278963685E0
3.953499216E0,1.066720295E1,1.168295622E0,9.062815905E-1
3.955868227E0,1.085025406E1,1.034895778E0,5.952146053E-1
3.958263800E0,1.105125141E1,9.637092948E-1,2.452643216E-1
3.960646091E0,1.127139091E1,8.644071817E-1,-7.956135273E-2
3.963015102E0,1.151605701E1,7.746763229E-1,-3.954139352E-1
3.965410675E0,1.173081303E1,7.280163169E-1,-6.927221417E-1
3.967793018E0,1.197069359E1,6.717849374E-1,-9.942178130E-1
3.970162029E0,1.220518970E1,6.346961856E-1,-1.324427366E0
3.972557602E0,1.239123249E1,6.113662124E-1,-1.654636860E0
3.974939893E0,1.255813122E1,5.874379873E-1,-2.009970903E0
3.977308904E0,1.268196011E1,6.113662124E-1,-2.330609322E0
3.979704477E0,1.274417305E1,6.155536175E-1,-2.617748022E0
3.982086768E0,1.276750374E1,6.191428304E-1,-2.871985435E0
3.984455831E0,1.276211929E1,6.568298340E-1,-3.087937593E0
3.986851404E0,1.272383404E1,6.795616150E-1,-3.245863914E0
3.989233695E0,1.264247799E1,6.879364848E-1,-3.317648649E0
3.991602706E0,1.254197979E1,7.106683254E-1,-3.317648649E0
3.993998279E0,1.237866974E1,7.663014531E-1,-3.236292601E0
3.996380570E0,1.219681549E1,8.033902049E-1,-3.116651535E0
3.998762862E0,1.199103260E1,8.781659007E-1,-2.977867842E0
4.001145206E0,1.179003525E1,9.385846853E-1,-2.810370207E0
4.003527498E0,1.153998566E1,1.018146038E0,-2.657229662E0
4.005909789E0,1.124327564E1,1.096511006E0,-2.528017044E0
4.008292081E0,1.102313614E1,1.118644595E0,-2.475374937E0
4.010674373E0,1.081316566E1,1.131805062E0,-2.158924341E0
4.013056664E0,1.048774147E1,1.172483087E0,-1.957927108E0
4.015438956E0,1.025384331E1,1.160519004E0,-1.876571178E0
4.017821300E0,9.986445427E0,1.153340459E0,-1.761117458E0
4.020190310E0,9.724431038E0,1.127019525E0,-1.649851203E0
4.022585883E0,9.513862610E0,1.121037364E0,-1.439282775E0
4.024968175E0,9.303294182E0,1.143769264E0,-1.219143152E0
4.027337185E0,9.122037888E0,1.161715388E0,-1.032503009E0
4.029732758E0,9.002396584E0,1.180259824E0,-8.602197170E-1
4.032115050E0,8.878568649E0,1.174875975E0,-6.921239495E-1
4.034497393E0,8.792427063E0,1.208375454E0,-5.240281820E-1
4.036879685E0,8.744570732E0,1.227517962E0,-4.187439680E-1
4.039261977E0,8.739784241E0,1.232303619E0,-3.756731451E-1
4.041644268E0,8.711071014E0,1.241276741E0,-3.517449200E-1
4.044026560E0,8.739784241E0,1.222732425E0,-3.182454109E-1
4.046408852E0,8.825926781E0,1.195214868E0,-2.656033039E-1
4.048791143E0,8.927022934E0,1.129412293E0,-2.560320199E-1
4.051173487E0,9.028120041E0,1.030110121E0,-2.937189937E-1
4.053555779E0,9.139386177E0,9.164510965E-1,-3.080759048E-1
4.055938070E0,9.264410973E0,8.273184299E-1,-3.409772217E-1
4.058320362E0,9.394820213E0,6.945167780E-1,-3.499503136E-1
4.060702654E0,9.559326172E0,5.629115105E-1,-3.493520916E-1
4.063084945E0,9.699306488E0,4.348955154E-1,-3.254238665E-1
4.065467237E0,9.839286804E0,2.979064286E-1,-2.721835673E-1
4.067849581E0,9.969695091E0,1.375873089E-1,-1.758724600E-1
4.070231873E0,1.010010433E1,1.974078640E-2,-8.434699476E-2
4.072614164E0,1.024965572E1,-1.310070455E-1,-2.392822644E-3
4.074996456E0,1.038066292E1,-2.823530734E-1,9.391828626E-2
4.077378748E0,1.051585770E1,-4.241278172E-1,1.519442350E-1
4.079761039E0,1.066002464E1,-5.365904570E-1,2.195414752E-1
4.082143331E0,1.081974602E1,-6.885347366E-1,2.434697002E-1
4.084525675E0,1.096451187E1,-8.009973764E-1,2.919243574E-1
4.086907966E0,1.110927773E1,-9.236295223E-1,3.212364316E-1
4.089290258E0,1.126840019E1,-1.055832982E0,3.361915946E-1
4.091672550E0,1.140299606E1,-1.168893814E0,3.457628787E-1
4.094054841E0,1.155254745E1,-1.286740422E0,3.463610709E-1
4.096437133E0,1.170628643E1,-1.409372568E0,3.756731451E-1
4.098819425E0,1.183669567E1,-1.493719578E0,3.756731451E-1
4.101201768E0,1.193360519E1,-1.573879123E0,3.475574851E-1
4.103584060E0,1.205324554E1,-1.639681697E0,3.092723191E-1
4.105966352E0,1.216391373E1,-1.692323804E0,2.518445849E-1
4.108348643E0,1.223569870E1,-1.749153376E0,1.950150430E-1
4.110730935E0,1.227458191E1,-1.782652855E0,1.088734269E-1
4.113113227E0,1.229372501E1,-1.806581140E0,2.751746029E-2
4.115495518E0,1.225543976E1,-1.826321840E0,-3.948157281E-2
4.117877862E0,1.220758247E1,-1.817348838E0,-1.256231815E-1
4.120260154E0,1.209751320E1,-1.814357758E0,-2.165504545E-1
4.122642445E0,1.196830082E1,-1.773081541E0,-2.835494876E-1
4.125024737E0,1.182951736E1,-1.741376638E0,-3.649054468E-1
4.127407029E0,1.164646626E1,-1.680957913E0,-3.696911037E-1
4.129789320E0,1.147418308E1,-1.615753531E0,-3.840480447E-1
4.132171612E0,1.126780224E1,-1.532004714E0,-3.846462369E-1
4.134553956E0,1.106620693E1,-1.462612867E0,-3.607180119E-1
4.136936248E0,1.086461163E1,-1.345364571E0,-3.326023519E-1
4.139318539E0,1.066301632E1,-1.232901812E0,-3.134597540E-1
4.141700831E0,1.044586754E1,-1.096511006E0,-2.709871531E-1
4.144083123E0,1.025384331E1,-9.882357717E-1,-2.189432681E-1
4.146465414E0,1.005165005E1,-8.566305041E-1,-1.806581169E-1
4.148847706E0,9.830911636E0,-7.106683254E-1,-1.190429255E-1
4.151230050E0,9.633503914E0,-5.976074338E-1,-8.135596663E-2
4.153612341E0,9.421739578E0,-4.893322289E-1,-4.307080805E-2
4.155981352E0,9.220144272E0,-3.816552162E-1,-2.452643216E-2
4.158376925E0,9.032905579E0,-2.829512656E-1,1.375873014E-2
4.160759216E0,8.864809990E0,-2.033899277E-1,6.161518395E-2
4.163128227E0,8.677571297E0,-1.190429255E-1,8.015955985E-2
4.165523800E0,8.504690170E0,-4.486542568E-2,8.494520187E-2
4.167906143E0,8.322237015E0,4.426721856E-2,1.130608693E-1
4.170275154E0,8.149355888E0,1.142572835E-1,1.465603858E-1
4.172670727E0,7.990831375E0,2.177468538E-1,1.609173268E-1
4.175053018E0,7.841877937E0,2.638086975E-1,1.698904037E-1
4.177435310E0,7.707281590E0,3.439682424E-1,1.986042857E-1
4.179817602E0,7.582854748E0,3.948157430E-1,2.177468538E-1
4.182199945E0,7.496713161E0,4.325026870E-1,2.608176768E-1
4.184582237E0,7.390830994E0,4.600201547E-1,2.991028428E-1
4.186964529E0,7.309474945E0,4.929214716E-1,3.326023519E-1
4.189346820E0,7.251449108E0,5.258227587E-1,3.894318938E-1
4.191729112E0,7.203592777E0,5.306084156E-1,4.420739710E-1
4.194111404E0,7.155735970E0,5.204389095E-1,5.000999570E-1
4.196493695E0,7.161119938E0,5.210371017E-1,5.724828243E-1
4.198875987E0,7.170691490E0,5.168496966E-1,6.442674994E-1
4.201258331E0,7.189833641E0,5.030909777E-1,7.399803996E-1
4.203640623E0,7.232904434E0,4.941178858E-1,8.117650747E-1
4.206022914E0,7.271189690E0,4.851447940E-1,8.644071817E-1
4.208405206E0,7.324429989E0,4.767699242E-1,9.026923180E-1
4.210787498E0,7.386643410E0,4.821537733E-1,9.314061999E-1
4.213169789E0,7.457829952E0,5.072783828E-1,9.786644578E-1
4.215552081E0,7.539186001E0,5.030909777E-1,9.786644578E-1
4.217934425E0,7.629515171E0,5.234299302E-1,9.786644578E-1
4.220316716E0,7.744370461E0,5.437689424E-1,9.643075466E-1
4.222699008E0,7.849056244E0,5.736792088E-1,9.158528447E-1
4.225081300E0,7.972885132E0,5.844469070E-1,8.632107973E-1
4.227463591E0,8.101499557E0,6.329016089E-1,7.764709592E-1
4.229845883E0,8.234899521E0,6.532405615E-1,6.999006271E-1
4.232228175E0,8.362915039E0,7.022934556E-1,5.844469070E-1
4.234610518E0,8.502297401E0,7.076773047E-1,4.833501875E-1
4.236992810E0,8.630910873E0,7.375875711E-1,4.067798555E-1
4.239375102E0,8.788239479E0,7.579265833E-1,3.296113312E-1
4.241757393E0,8.921639442E0,7.878368497E-1,2.626122832E-1
4.244139685E0,9.059824944E0,7.938188910E-1,2.195414752E-1
4.246521977E0,9.198010445E0,8.524430394E-1,1.902294010E-1
4.248904268E0,9.345169067E0,9.068797827E-1,1.704886109E-1
4.251286612E0,9.468997002E0,9.415757060E-1,1.561316848E-1
4.253668904E0,9.602995872E0,1.000199914E0,1.555334777E-1
4.256051195E0,9.726823807E0,1.034895778E0,1.603191197E-1
4.258433487E0,9.845867157E0,1.060618639E0,1.788634956E-1
4.260815779E0,9.945767403E0,1.080957651E0,2.315055877E-1
4.263198070E0,1.003609657E1,1.110867858E0,2.937189937E-1
4.265580414E0,1.010309505E1,1.121635556E0,3.894318938E-1
4.267962706E0,1.018923664E1,1.146760225E0,4.654040039E-1
4.270344998E0,1.025145054E1,1.138385415E0,5.419743061E-1
4.272727289E0,1.028495026E1,1.134197950E0,6.047859192E-1
4.275109581E0,1.031366348E1,1.134796143E0,6.669993401E-1
4.277491873E0,1.032323551E1,1.130010486E0,7.148557901E-1
4.279874164E0,1.030887794E1,1.125224829E0,7.531409264E-1
4.282256456E0,1.027059269E1,1.106082320E0,7.776673436E-1
4.284638800E0,1.019940662E1,1.095912814E0,7.920243144E-1
4.287021091E0,1.010847950E1,1.089930773E0,7.968099117E-1
4.289403383E0,1.001815033E1,1.069591761E0,7.968099117E-1
4.291785675E0,9.908679008E0,1.044467092E0,7.926225066E-1
4.294167966E0,9.789635658E0,1.014556766E0,7.878368497E-1
4.296550258E0,9.693922997E0,9.996016622E-1,7.734799385E-1
4.298932602E0,9.574879646E0,9.834501147E-1,7.645068169E-1
4.301314893E0,9.450452805E0,9.583254457E-1,7.501499057E-1
4.303697185E0,9.369695663E0,9.242277741E-1,7.501499057E-1
4.306079477E0,9.259625435E0,9.182456732E-1,7.411768436E-1
4.308461768E0,9.164510727E0,8.931210637E-1,7.363911867E-1
4.310844060E0,9.078369141E0,9.062815905E-1,7.316055298E-1
4.313226352E0,8.963513374E0,9.337990284E-1,7.507480979E-1
4.315608695E0,8.886942863E0,9.427721500E-1,7.316055298E-1
4.317990987E0,8.800801277E0,9.511470199E-1,7.411768436E-1
4.320373279E0,8.738588333E0,9.744769931E-1,7.459624410E-1
4.322755570E0,8.671588898E0,9.882357717E-1,7.507480979E-1
4.325137862E0,8.623134613E0,1.035493970E0,7.316055298E-1
4.327520154E0,8.575278282E0,1.049252748E0,7.411768436E-1
4.329902445E0,8.545966148E0,1.082154036E0,7.501499057E-1
4.332284737E0,8.545966148E0,1.096511006E0,7.645068169E-1
4.334667081E0,8.541180611E0,1.115653515E0,7.740781307E-1
4.337049373E0,8.574680328E0,1.121037364E0,8.315058947E-1
4.339431664E0,8.627322197E0,1.117448211E0,8.937192559E-1
4.341813956E0,8.660821915E0,1.098903775E0,9.320043921E-1
4.344196248E0,8.722436905E0,1.123430252E0,9.607182741E-1
4.346578539E0,8.784649849E0,1.114457130E0,9.894321561E-1
4.348960883E0,8.847461700E0,1.091725349E0,1.027717352E0
4.351343175E0,8.913862228E0,1.092323542E0,1.075573802E0
4.353725466E0,8.985647202E0,1.083948612E0,1.133001566E0
4.356107758E0,9.053244591E0,1.056431174E0,1.171286702E0
4.358490050E0,9.119645119E0,1.067198873E0,1.247856975E0
4.360872341E0,9.182456970E0,1.043868899E0,1.290927768E0
4.363254633E0,9.235098839E0,1.045065284E0,1.367498159E0
4.365636925E0,9.268598557E0,1.021735311E0,1.429711580E0
4.368019268E0,9.316454887E0,9.984052777E-1,1.487139225E0
4.370401560E0,9.355338097E0,9.661021233E-1,1.563709617E0
4.372783852E0,9.398408890E0,9.332008362E-1,1.630708575E0
4.375166143E0,9.427721024E0,9.050851464E-1,1.679163337E0
4.377548435E0,9.428318977E0,8.715856671E-1,1.737189293E0
4.379930727E0,9.428318977E0,8.434699774E-1,1.770688772E0
4.382313018E0,9.433703423E0,7.908278704E-1,1.800000787E0
4.384695362E0,9.424730301E0,7.573283911E-1,1.804786444E0
4.387077654E0,9.410971642E0,6.903293133E-1,1.809572101E0
4.389459945E0,9.382855415E0,6.568298340E-1,1.824527264E0
4.391842237E0,9.326025963E0,5.892325640E-1,1.848455548E0
4.394224529E0,9.259625435E0,5.401797295E-1,1.834696770E0
4.396606820E0,9.169296265E0,5.246263742E-1,1.829911113E0
4.398989164E0,9.102297783E0,4.953143001E-1,1.829911113E0
4.401371456E0,9.016754150E0,4.755735099E-1,1.835294962E0
4.403753748E0,8.940781593E0,4.169493318E-1,1.825723648E0
4.406136039E0,8.874381065E0,3.924229145E-1,1.816152334E0
4.408518331E0,8.797810555E0,3.870390654E-1,1.788036704E0
4.410900623E0,8.740981102E0,3.667000830E-1,1.744965911E0
4.413282914E0,8.688339233E0,3.469592929E-1,1.692323804E0
4.415665258E0,8.655437469E0,3.224328458E-1,1.653440475E0
4.418047550E0,8.612366676E0,3.122633696E-1,1.591227055E0
4.420429841E0,8.598010063E0,2.829512656E-1,1.539183140E0
4.422812133E0,8.578866959E0,2.967100143E-1,1.476969719E0
4.425194425E0,8.574081421E0,2.727817893E-1,1.409970760E0
4.427576716E0,8.598010063E0,2.679961324E-1,1.371685624E0
4.429959008E0,8.622536659E0,2.392822653E-1,1.314257860E0
4.432341352E0,8.660223007E0,2.536391914E-1,1.261615753E0
4.434723643E0,8.727820396E0,2.015953064E-1,1.199402332E0
4.437105935E0,8.804390907E0,1.501496136E-1,1.180259824E0
4.439488227E0,8.895915985E0,1.178465188E-1,1.218544960E0
4.441870518E0,9.001200676E0,1.046859920E-1,1.237687469E0
4.444252810E0,9.129815102E0,1.016949639E-1,1.323829174E0
4.446635102E0,9.239884377E0,1.220339537E-1,1.409970760E0
4.449017445E0,9.382855415E0,1.579262912E-1,1.509871125E0
4.451399737E0,9.501898766E0,2.021935135E-1,1.600798368E0
4.453782029E0,9.620942116E0,2.901297510E-1,1.686939955E0
4.456164320E0,9.763314247E0,3.589234054E-1,1.743769526E0
4.458546612E0,9.882357597E0,4.325026870E-1,1.829911113E0
4.460928904E0,9.982257843E0,4.911268353E-1,1.896311998E0
4.463311248E0,1.007677460E1,5.694918036E-1,1.938784599E0
4.465693539E0,1.019581699E1,6.233302951E-1,1.962712765E0
4.468075831E0,1.027178955E1,6.765705943E-1,1.957328916E0
4.470458123E0,1.033819008E1,6.963114142E-1,1.962114573E0
4.472840414E0,1.039501953E1,7.160521746E-1,1.971685886E0
4.475222706E0,1.045244789E1,7.549355626E-1,1.966302037E0
4.477604998E0,1.049551868E1,7.220342159E-1,1.938186288E0
4.479987341E0,1.050030422E1,7.316055298E-1,1.899302959E0
4.482369633E0,1.052363396E1,7.411768436E-1,1.846660852E0
4.484751925E0,1.053799057E1,7.357929349E-1,1.798804402E0
4.487134216E0,1.050987530E1,7.214360237E-1,1.780260086E0
4.489516508E0,1.050987530E1,7.118647099E-1,1.780260086E0
4.491898800E0,1.050090218E1,6.687939167E-1,1.794616938E0
4.494281091E0,1.049133110E1,6.496513486E-1,1.789831281E0
4.496663383E0,1.047757244E1,6.209374666E-1,1.794616938E0
4.499045727E0,1.049252701E1,5.635097623E-1,1.814357758E0
4.501428018E0,1.048833942E1,5.006981492E-1,1.838286042E0
4.503810310E0,1.048415279E1,4.534398913E-1,1.862812400E0
4.506192602E0,1.049432182E1,3.768695593E-1,1.905883193E0
4.508574893E0,1.050927734E1,3.056831062E-1,1.944766641E0
4.510957185E0,1.050508976E1,2.536391914E-1,2.006979942E0
4.513339477E0,1.053440189E1,2.350948304E-1,2.107478619E0
4.515721820E0,1.053021431E1,1.830509305E-1,2.218146563E0
4.518104112E0,1.054935646E1,1.692921966E-1,2.347358942E0
4.520486404E0,1.055892849E1,1.794617027E-1,2.462214470E0
4.522868695E0,1.058285618E1,1.710868180E-1,2.591426849E0
4.525250987E0,1.058764172E1,1.860419661E-1,2.696711063E0
4.527633279E0,1.061635590E1,2.057827413E-1,2.816950560E0
4.530015570E0,1.061635590E1,2.111666054E-1,2.898306370E0
4.532397914E0,1.064028454E1,2.117647976E-1,2.984447956E0
4.534780206E0,1.065942669E1,2.171486616E-1,3.051447153E0
4.537162498E0,1.067438221E1,2.123630047E-1,3.118446112E0
4.539544789E0,1.067916775E1,2.177468538E-1,3.161516905E0
4.541927081E0,1.068873882E1,1.842473447E-1,3.204587698E0
4.544309373E0,1.070847988E1,1.561316848E-1,3.238087177E0
4.546691716E0,1.072762203E1,1.328016520E-1,3.252444267E0
4.549074008E0,1.072821999E1,8.494520187E-2,3.267399311E0
4.551456300E0,1.075753212E1,1.375873014E-2,3.281756163E0
4.553838591E0,1.075813103E1,-4.845465720E-2,3.263211966E0
4.556220883E0,1.075454140E1,-1.489532143E-1,3.215355396E0
4.558603175E0,1.077906799E1,-2.303091735E-1,3.182454109E0
4.560985466E0,1.079521942E1,-3.690928817E-1,3.139981508E0
4.563367810E0,1.081974602E1,-4.791627228E-1,3.044866800E0
4.565750102E0,1.085025406E1,-6.179464459E-1,2.968894720E0
4.568132393E0,1.087956619E1,-7.334001660E-1,2.849851847E0
4.570514685E0,1.091426182E1,-8.578268886E-1,2.715255499E0
4.572896977E0,1.095852947E1,-9.822536707E-1,2.562713146E0
4.575279268E0,1.102193928E1,-1.082752228E0,2.381456852E0
4.577661560E0,1.108953667E1,-1.202393413E0,2.142772675E0
4.580043904E0,1.115713406E1,-1.274178028E0,1.908276081E0
4.582426195E0,1.125284672E1,-1.313061476E0,1.610967875E0
4.584808487E0,1.137667561E1,-1.327418327E0,1.314257860E0
4.587190779E0,1.153340530E1,-1.269990563E0,9.499505758E-1
4.589573070E0,1.172363472E1,-1.197607756E0,5.760720372E-1
4.591942081E0,1.194676495E1,-1.063609719E0,1.824527234E-1
4.594337654E0,1.222194004E1,-9.092726111E-1,-2.159522474E-1
4.596719998E0,1.249711418E1,-7.310073376E-1,-5.521438122E-1
4.599089008E0,1.276211929E1,-5.521438122E-1,-8.793623447E-1
4.601484581E0,1.310489178E1,-4.217349887E-1,-1.301097274E0
4.603866873E0,1.345185089E1,-2.667997181E-1,-1.670788407E0
4.606235883E0,1.374616814E1,-1.411765367E-1,-2.055434704E0
4.608631456E0,1.405125237E1,-2.931207791E-2,-2.434098721E0
4.611013748E0,1.432223988E1,5.802594870E-2,-2.803191662E0
4.613382810E0,1.459382534E1,1.022931710E-1,-3.115455151E0
4.615778383E0,1.480319691E1,1.369891018E-1,-3.388834953E0
4.618160675E0,1.496531105E1,1.471585929E-1,-3.652045488E0
4.620529685E0,1.511785316E1,1.716850251E-1,-3.853640795E0
4.622925258E0,1.519980717E1,1.764706671E-1,-4.002593994E0
4.625307550E0,1.523749447E1,1.668993831E-1,-4.069592953E0
4.627676612E0,1.521895027E1,1.142572835E-1,-4.092923164E0
4.630072185E0,1.515254974E1,6.580262631E-2,-4.045066833E0
4.632454477E0,1.504786301E1,7.776673418E-3,-3.958326817E0
4.634836768E0,1.489591885E1,-8.434699476E-2,-3.851846218E0
4.637219060E0,1.469671631E1,-2.003988922E-1,-3.726821184E0
4.639601352E0,1.444487190E1,-3.170489967E-1,-3.582653761E0
4.641983643E0,1.413081455E1,-4.342973232E-1,-3.418745279E0
4.644365987E0,1.379282761E1,-5.377869010E-1,-3.274577856E0
4.646748279E0,1.340219975E1,-6.376872063E-1,-3.149552822E0
4.649130570E0,1.296311665E1,-7.040880919E-1,-3.023929596E0
4.651512862E0,1.249532032E1,-7.274180651E-1,-2.889931440E0
4.653895154E0,1.199342537E1,-7.322037220E-1,-2.759522676E0
4.656264164E0,1.146760273E1,-7.088736892E-1,-2.605783939E0
4.658659737E0,1.092263699E1,-6.376872063E-1,-2.438286304E0
4.661042081E0,1.037707329E1,-5.850451589E-1,-2.231905222E0
4.663411091E0,9.884152412E0,-5.078766346E-1,-2.026122570E0
4.665806664E0,9.409774780E0,-4.067798555E-1,-1.877767563E0
4.668188956E0,8.969495773E0,-3.200400174E-1,-1.710269928E0
4.670557966E0,8.577671051E0,-2.518445849E-1,-1.556531072E0
4.672953539E0,8.232506752E0,-1.740778536E-1,-1.427318692E0
4.675335831E0,7.901698589E0,-8.673982322E-2,-1.341177106E0
4.677704893E0,7.551748276E0,6.281159073E-2,-1.250848055E0
4.680100466E0,7.210771084E0,1.740778536E-1,-1.246062398E0
4.682482758E0,6.990033150E0,2.913261652E-1,-1.170090318E0
4.684851768E0,6.864409924E0,4.007977843E-1,-1.046261668E0
4.687247341E0,6.748956203E0,4.905286431E-1,-9.936196208E-1
4.689629633E0,6.638288021E0,5.952146053E-1,-9.750752449E-1
4.691998695E0,6.546164513E0,7.040880919E-1,-9.415757060E-1
4.694394268E0,6.482754707E0,8.416753411E-1,-9.326026440E-1
4.696776560E0,6.448058605E0,9.852447510E-1,-9.140582681E-1
4.699145570E0,6.442076683E0,1.075573802E0,-9.002995491E-1
4.701541143E0,6.479165554E0,1.176670551E0,-8.338986635E-1
4.703923435E0,6.535397053E0,1.302293777E0,-7.627122402E-1
4.706305727E0,6.625725746E0,1.336391449E0,-7.292127013E-1
4.708688070E0,6.768098831E0,1.424327731E0,-7.010970116E-1
4.711070362E0,6.943971157E0,1.497906923E0,-6.777670383E-1
4.713452654E0,7.130013466E0,1.543370605E0,-6.448656917E-1
4.715834945E0,7.335795879E0,1.588235974E0,-6.448656917E-1
4.718217237E0,7.578667641E0,1.658226132E0,-6.406782866E-1
4.720599529E0,7.831110477E0,1.728216171E0,-6.317051649E-1
4.722981820E0,8.116454124E0,1.812563181E0,-6.466603279E-1
4.725364164E0,8.422137260E0,1.882553220E0,-6.233302951E-1
4.727746456E0,8.741579056E0,1.962712765E0,-6.143572330E-1
4.730128748E0,9.069993973E0,2.028515339E0,-6.149554253E-1
4.732511039E0,9.403793335E0,2.098505497E0,-6.538388133E-1
4.734880050E0,9.728618622E0,2.164308071E0,-6.592226624E-1
4.737275623E0,1.005224800E1,2.258226395E0,-7.172485590E-1
4.739657966E0,1.036211872E1,2.333002090E0,-7.657032609E-1
4.742026977E0,1.068634605E1,2.398804665E0,-8.333004713E-1
4.744422550E0,1.097228813E1,2.477767944E0,-8.865407705E-1
4.746804841E0,1.123430252E1,2.537588358E0,-9.637092948E-1
4.749173852E0,1.149631596E1,2.602792740E0,-9.834501147E-1
4.751569425E0,1.172004509E1,2.676372051E0,-1.022333503E0
4.753951716E0,1.189651585E1,2.726023197E0,-1.046859860E0
4.756320779E0,1.205384445E1,2.780459881E0,-1.046859860E0
4.758716352E0,1.215853024E1,2.825325251E0,-1.042672515E0
4.761098643E0,1.222493076E1,2.854637384E0,-1.009172916E0
4.763467654E0,1.224407387E1,2.869592667E0,-9.469595551E-1
4.765863227E0,1.220578861E1,2.874378204E0,-8.416753411E-1
4.768245518E0,1.213460159E1,2.869592667E0,-7.220342159E-1
4.770627810E0,1.199581814E1,2.863610506E0,-5.736792088E-1
4.773010154E0,1.183430290E1,2.819343328E0,-4.384847581E-1
4.775392445E0,1.166201973E1,2.784049034E0,-3.092723191E-1
4.777774737E0,1.144307613E1,2.720041037E0,-1.986042857E-1
4.780157029E0,1.123370457E1,2.660818815E0,-1.118644550E-1
4.782539320E0,1.100040436E1,2.587239504E0,-2.512463741E-2
4.784921612E0,1.077667522E1,2.513660192E0,4.247260094E-2
4.787303904E0,1.055773163E1,2.420340061E0,1.004985496E-1
4.789686248E0,1.034836006E1,2.322832584E0,1.824527234E-1
4.792068539E0,1.011565781E1,2.210968018E0,2.213360965E-1
4.794450831E0,9.897313118E0,2.088934183E0,2.458625287E-1
4.796833123E0,9.678369522E0,1.986641049E0,2.614158690E-1
4.799215414E0,9.464211464E0,1.878963947E0,2.620140910E-1
4.801597706E0,9.255437851E0,1.752742529E0,2.769692242E-1
4.803979998E0,9.050851822E0,1.634896040E0,2.775674164E-1
4.806349060E0,8.851649284E0,1.508674622E0,2.303091735E-1
4.808744633E0,8.671588898E0,1.396211982E0,1.980060786E-1
4.811126925E0,8.500502586E0,1.279561877E0,1.172483116E-1
4.813495935E0,8.358129501E0,1.153340459E0,1.256231871E-2
4.815891508E0,8.201399803E0,1.041476011E0,-7.776673883E-2
4.818273800E0,8.078168869E0,9.439685345E-1,-1.872383654E-1
4.820656091E0,7.978867054E0,8.422735929E-1,-2.727817893E-1
4.823038435E0,7.874779224E0,7.447660565E-1,-3.391826153E-1
4.825420727E0,7.775477409E0,6.526423693E-1,-3.870390654E-1
4.827803018E0,7.694719315E0,5.850451589E-1,-4.677968323E-1
4.830185310E0,7.643273830E0,5.168496966E-1,-5.006981492E-1
4.832567602E0,7.586444378E0,4.486542344E-1,-5.294120312E-1
4.834949893E0,7.524828911E0,4.049852192E-1,-5.431707501E-1
4.837332237E0,7.496713161E0,3.332005441E-1,-5.240281820E-1
4.839714529E0,7.454240799E0,3.092723191E-1,-4.947160780E-1
4.842096820E0,7.459624767E0,2.614158690E-1,-4.803591371E-1
4.844479112E0,7.459624767E0,2.470589429E-1,-4.468596280E-1
4.846861404E0,7.450053215E0,2.327020019E-1,-4.325026870E-1
4.849243695E0,7.455437183E0,1.998006850E-1,-3.990031779E-1
4.851625987E0,7.503293514E0,1.764706671E-1,-3.696911037E-1
4.854008331E0,7.522436142E0,1.621137410E-1,-3.744767308E-1
4.856390623E0,7.542177200E0,1.483550072E-1,-3.409772217E-1
4.858772914E0,7.570890903E0,1.298106313E-1,-3.026920557E-1
4.861155206E0,7.613961697E0,9.690931439E-2,-2.787638307E-1
4.863537498E0,7.648059368E0,7.357929647E-2,-2.500499785E-1
4.865919789E0,7.667201996E0,5.443671346E-2,-2.213360965E-1
4.868302081E0,7.706085205E0,2.153540403E-2,-1.974078715E-1
4.870684425E0,7.758727551E0,-1.076770201E-2,-1.680957973E-1
4.873066716E0,7.801798344E0,-3.409772366E-2,-1.441675574E-1
4.875449008E0,7.868797302E0,-5.264209956E-2,-9.152546525E-2
4.877831300E0,7.941180229E0,-6.580262631E-2,-4.366901144E-2
4.880213591E0,7.974679470E0,-9.391828626E-2,-5.982056609E-4
4.882595883E0,8.027321815E0,-1.076770201E-1,2.333002165E-2
4.884978227E0,8.099106789E0,-1.208375469E-1,5.204389244E-2
4.887360518E0,8.161319733E0,-1.441675574E-1,1.094716340E-1
4.889742810E0,8.223533630E0,-1.429711580E-1,1.429711580E-1
4.892125102E0,8.290532112E0,-1.136590764E-1,1.621137410E-1
4.894507393E0,8.328219414E0,-1.082752272E-1,1.860419661E-1
4.896889685E0,8.376075745E0,-7.956135273E-2,1.663011760E-1
4.899271977E0,8.419744492E0,-8.315058798E-2,1.998006850E-1
4.901654320E0,8.443074226E0,-5.443671346E-2,2.093719840E-1
4.904036612E0,8.467002869E0,-4.007977992E-2,2.093719840E-1
4.906418904E0,8.475975990E0,-2.572284266E-2,1.902294010E-1
4.908801195E0,8.499904633E0,1.734796353E-2,1.609173268E-1
4.911183487E0,8.508877754E0,2.213360928E-2,1.417747438E-1
4.913565779E0,8.547162056E0,1.316052489E-2,1.082752272E-1
4.915948070E0,8.556734085E0,3.589233849E-3,8.913264424E-2
4.918330414E0,8.590232849E0,3.589233849E-3,6.041877344E-2
4.920712706E0,8.638090134E0,-1.016949583E-2,7.776673418E-3
4.923094998E0,8.662017822E0,1.375873014E-2,-5.922235921E-2
4.925477289E0,8.705088615E0,4.187439568E-3,-1.166501045E-1
4.927859581E0,8.742775917E0,9.571290575E-3,-1.884347796E-1
4.930241873E0,8.781061172E0,4.785645287E-3,-2.650051117E-1
4.932624164E0,8.833703041E0,9.571290575E-3,-3.080759048E-1
4.935006508E0,8.862417221E0,1.914258115E-2,-3.655036688E-1
4.937388800E0,8.885746956E0,2.871387079E-2,-4.037888348E-1
4.939771091E0,8.924032211E0,2.452643216E-2,-4.037888348E-1
4.942153383E0,8.947959900E0,2.033899166E-2,-4.085744619E-1
4.944535675E0,8.962317467E0,4.426721856E-2,-4.043870270E-1
4.946917966E0,8.976076126E0,5.862415582E-2,-3.661018610E-1
4.949300310E0,8.990432739E0,6.879365444E-2,-3.278166950E-1
4.951682602E0,9.004789352E0,9.750752151E-2,-2.847459018E-1
4.954064893E0,9.014361382E0,9.810572863E-2,-2.321037948E-1
4.956447185E0,9.014361382E0,1.034895778E-1,-1.316052526E-1
4.958829477E0,9.043074608E0,1.040877849E-1,-6.939185411E-2
4.961211768E0,9.043074608E0,1.088734269E-1,-7.178467698E-3
4.963594112E0,9.071788788E0,9.511470050E-2,6.939185411E-2
4.965976404E0,9.076574326E0,1.004985496E-1,1.507478207E-1
4.968358695E0,9.086744308E0,7.716853172E-2,2.368894368E-1
4.970740987E0,9.071788788E0,9.631111473E-2,3.182454109E-1
4.973123279E0,9.053244591E0,9.212367237E-2,4.091726840E-1
4.975505570E0,9.057432175E0,1.112662554E-1,4.953143001E-1
4.977887862E0,9.038289070E0,1.399801224E-1,5.575276613E-1
4.980270154E0,9.028717995E0,1.495514214E-1,5.964110494E-1
4.982652498E0,9.028717995E0,1.597209126E-1,6.586244106E-1
4.985034789E0,9.013762474E0,2.171486616E-1,6.819544435E-1
4.987417081E0,8.999405861E0,2.123630047E-1,7.250252366E-1
4.989799373E0,8.985049248E0,2.315055877E-1,7.537391186E-1
4.992181664E0,8.955737114E0,2.596212626E-1,7.776673436E-1
4.994563956E0,8.950951576E0,2.691925466E-1,7.824530005E-1
