"Time (s)","Gyroscope x (rad/s)","Gyroscope y (rad/s)","Gyroscope z (rad/s)"
3.170723700E-2,1.679830020E-3,9.575030953E-2,-9.773556143E-3
3.408958100E-2,1.404948719E-2,9.575030953E-2,-8.551862091E-3
3.647187300E-2,2.397575416E-2,9.712471068E-2,-8.399149403E-3
3.885416400E-2,3.390202299E-2,9.712471068E-2,-8.399149403E-3
4.123645600E-2,4.260659590E-2,9.834641218E-2,-7.177455351E-3
4.361874800E-2,4.886778072E-2,9.727742523E-2,-4.734066315E-3
4.600103900E-2,5.375456065E-2,9.483403713E-2,-3.512371797E-3
4.838333100E-2,6.245913357E-2,9.361234307E-2,-9.162708884E-4
5.076562300E-2,6.627693027E-2,9.132166207E-2,1.527118147E-3
5.314791400E-2,7.238540053E-2,8.765657991E-2,2.748812549E-3
5.553020600E-2,7.742489129E-2,8.521319181E-2,1.527118147E-3
5.791249800E-2,8.246438205E-2,8.414421231E-2,2.748812549E-3
6.029478900E-2,8.246438205E-2,7.803573459E-2,2.748812549E-3
6.267713300E-2,8.124268800E-2,7.192726433E-2,3.970507067E-3
6.505942500E-2,8.002099395E-2,6.230641901E-2,5.344913341E-3
6.744171600E-2,7.879929990E-2,5.253286287E-2,5.344913341E-3
6.982400800E-2,7.146912813E-2,4.153761268E-2,5.344913341E-3
7.220630000E-2,6.536065787E-2,3.191677108E-2,4.123218823E-3
7.458859100E-2,5.665608495E-2,2.336490713E-2,4.123218823E-3
7.697088300E-2,5.176930502E-2,1.481304597E-2,5.344913341E-3
7.935317500E-2,4.566083103E-2,9.926267900E-3,6.566607859E-3
8.173546600E-2,3.817795217E-2,2.596100792E-3,6.566607859E-3
8.411775800E-2,3.206948191E-2,-4.734066315E-3,6.566607859E-3
8.650005000E-2,2.580829710E-2,-8.399149403E-3,6.566607859E-3
8.888234100E-2,2.336490713E-2,-1.084253844E-2,6.566607859E-3
9.126463300E-2,1.847812906E-2,-1.328592747E-2,1.023169141E-2
9.364697700E-2,1.359135192E-2,-1.328592747E-2,1.023169141E-2
9.602926800E-2,7.330167107E-3,-1.450762246E-2,7.788302377E-3
9.841156000E-2,2.290677279E-3,-1.572931744E-2,7.635590620E-3
1.007938520E-1,-1.374406274E-3,-1.939439960E-2,5.192201585E-3
1.031761430E-1,-1.374406274E-3,-1.817270555E-2,3.970507067E-3
1.055584350E-1,-3.817795310E-3,-1.588202827E-2,3.970507067E-3
1.079407270E-1,-3.817795310E-3,-1.466033421E-2,1.527118147E-3
1.103230180E-1,-3.970507067E-3,-1.099525020E-2,3.054236295E-4
1.127053100E-1,-3.970507067E-3,-8.551862091E-3,-9.162708884E-4
1.150876020E-1,-1.527118147E-3,-8.551862091E-3,-3.359660041E-3
1.174699450E-1,9.162708884E-4,-6.108472589E-3,-5.803049076E-3
1.198522370E-1,4.734066315E-3,-3.665083554E-3,-8.246437646E-3
1.222345290E-1,8.399149403E-3,-4.886778072E-3,-9.468132630E-3
1.246168200E-1,1.084253844E-2,-1.221694518E-3,-1.191152167E-2
1.269991120E-1,1.206423342E-2,1.221694518E-3,-1.313321572E-2
1.293814040E-1,1.450762246E-2,2.443389036E-3,-1.068982668E-2
1.317636950E-1,1.450762246E-2,6.108472589E-3,-8.246437646E-3
1.341459870E-1,1.572931744E-2,7.330167107E-3,-4.581354558E-3
1.365282790E-1,1.450762246E-2,6.108472589E-3,-3.359660041E-3
1.389105700E-1,1.572931744E-2,8.551862091E-3,-3.359660041E-3
1.412928620E-1,1.832541823E-2,9.773556143E-3,-4.581354558E-3
1.436752060E-1,2.199050039E-2,1.221694518E-2,-2.137965523E-3
1.460574980E-1,2.947338112E-2,1.221694518E-2,-3.359660041E-3
1.484397890E-1,3.680354729E-2,1.588202827E-2,-5.803049076E-3
1.508220810E-1,4.169032723E-2,2.199050039E-2,-8.246437646E-3
1.532043730E-1,4.428642616E-2,2.443389036E-2,-4.581354558E-3
1.555866640E-1,4.169032723E-2,2.809897438E-2,-4.581354558E-3
1.579689560E-1,4.046862945E-2,3.527642787E-2,-2.137965523E-3
1.603512480E-1,3.787253052E-2,4.260659590E-2,-3.359660041E-3
1.627335390E-1,3.787253052E-2,4.993676394E-2,-3.359660041E-3
1.651158830E-1,3.665083647E-2,5.344913527E-2,-2.137965523E-3
1.674981230E-1,3.542914242E-2,6.077930331E-2,3.054236295E-4
1.698804660E-1,3.787253052E-2,6.933116168E-2,3.054236295E-4
1.722627580E-1,3.649812192E-2,7.177454978E-2,3.054236295E-4
1.746450500E-1,3.909422457E-2,7.421794534E-2,3.054236295E-4
1.770273410E-1,3.649812192E-2,7.650861889E-2,1.527118147E-4
1.794096330E-1,3.771981969E-2,7.895200700E-2,1.374406274E-3
1.817919250E-1,3.649812192E-2,8.139539510E-2,2.596100792E-3
1.841742160E-1,3.405473381E-2,8.261708915E-2,2.596100792E-3
1.865565080E-1,3.161134571E-2,8.383878320E-2,3.817795310E-3
1.889388000E-1,2.779355086E-2,8.628217876E-2,5.039489828E-3
1.913210910E-1,2.779355086E-2,8.628217876E-2,7.482878864E-3
1.937034350E-1,2.412846684E-2,8.628217876E-2,9.926267900E-3
1.960857270E-1,2.168507688E-2,8.994726092E-2,8.704573847E-3
1.984680180E-1,1.924168877E-2,9.101624042E-2,1.114796288E-2
2.008503100E-1,1.924168877E-2,8.750387281E-2,9.926267900E-3
2.032326020E-1,1.786728203E-2,8.979454637E-2,9.926267900E-3
2.056148930E-1,1.664558798E-2,8.979454637E-2,8.704573847E-3
2.079971850E-1,1.420219894E-2,8.612946421E-2,9.926267900E-3
2.103794770E-1,1.298050396E-2,8.612946421E-2,8.704573847E-3
2.127617680E-1,1.298050396E-2,8.735115826E-2,6.261184346E-3
2.151440600E-1,1.053711493E-2,8.368607610E-2,3.817795310E-3
2.175263520E-1,1.175880991E-2,7.879929990E-2,2.596100792E-3
2.199086950E-1,9.315420873E-3,7.162184268E-2,1.527118147E-4
2.222909870E-1,1.053711493E-2,6.551336497E-2,-2.290677279E-3
2.246732790E-1,1.313321572E-2,5.818320066E-2,-3.512371797E-3
2.270555700E-1,1.175880991E-2,5.207473040E-2,-7.177455351E-3
2.294378620E-1,1.313321572E-2,4.611896724E-2,-8.399149403E-3
2.318201540E-1,1.191152167E-2,4.001049697E-2,-9.620844387E-3
2.342024450E-1,1.191152167E-2,3.390202299E-2,-1.084253844E-2
2.365847370E-1,1.068982668E-2,2.901524492E-2,-8.246437646E-3
2.389670290E-1,8.246437646E-3,2.428117767E-2,-8.246437646E-3
2.413493200E-1,8.246437646E-3,1.939439960E-2,-7.024743594E-3
2.437316120E-1,5.803049076E-3,1.695101149E-2,-5.803049076E-3
2.461139040E-1,9.162708884E-4,1.572931744E-2,-5.803049076E-3
2.484962480E-1,-3.054236295E-4,1.206423342E-2,-7.024743594E-3
2.508785390E-1,-3.054236295E-4,1.206423342E-2,-7.024743594E-3
2.532608310E-1,-1.527118147E-3,9.620844387E-3,-8.246437646E-3
2.556431230E-1,-2.748812549E-3,9.620844387E-3,-4.581354558E-3
2.580254140E-1,-2.901524538E-3,1.084253844E-2,-8.246437646E-3
2.604077060E-1,-1.527118147E-3,8.399149403E-3,-7.024743594E-3
2.627899980E-1,-1.527118147E-3,8.399149403E-3,-8.246437646E-3
2.651722890E-1,9.162708884E-4,7.177455351E-3,-8.246437646E-3
2.675545810E-1,2.137965523E-3,4.734066315E-3,-9.468132630E-3
2.699369250E-1,2.137965523E-3,2.290677279E-3,-8.246437646E-3
2.723192160E-1,-3.054236295E-4,2.290677279E-3,-4.581354558E-3
2.747015080E-1,-2.748812549E-3,1.068982761E-3,-4.581354558E-3
2.770838000E-1,-3.054236295E-4,2.290677279E-3,-4.581354558E-3
2.794660910E-1,-2.748812549E-3,4.734066315E-3,-3.359660041E-3
2.818483830E-1,-1.527118147E-3,8.399149403E-3,-3.359660041E-3
2.842306750E-1,-3.054236295E-4,1.450762246E-2,-2.137965523E-3
2.866129660E-1,-1.679830020E-3,1.817270555E-2,-4.581354558E-3
2.889952580E-1,-1.679830020E-3,2.290677279E-2,-7.177455351E-3
2.913775500E-1,-4.581354442E-4,2.657185495E-2,-9.620844387E-3
2.937598410E-1,-4.581354442E-4,3.145863488E-2,-9.620844387E-3
2.961421850E-1,-4.581354442E-4,3.634541109E-2,-9.620844387E-3
2.985244770E-1,-1.832541777E-3,4.107947648E-2,-1.328592747E-2
3.009067680E-1,-4.275931045E-3,4.107947648E-2,-1.450762246E-2
3.032890600E-1,-6.719320081E-3,4.352286831E-2,-1.450762246E-2
3.056713520E-1,-8.093725890E-3,4.718795046E-2,-1.450762246E-2
3.080536430E-1,-1.175880991E-2,4.825693369E-2,-1.572931744E-2
3.104359350E-1,-1.420219894E-2,4.581354558E-2,-1.939439960E-2
3.128182270E-1,-1.679829881E-2,4.581354558E-2,-2.199050039E-2
3.152005180E-1,-1.801999472E-2,4.947862774E-2,-2.076880634E-2
3.175828100E-1,-2.290677279E-2,4.947862774E-2,-2.076880634E-2
3.199651020E-1,-2.550287358E-2,5.436540768E-2,-2.076880634E-2
3.223474450E-1,-2.672456764E-2,6.032116711E-2,-2.321219631E-2
3.247297370E-1,-3.176405653E-2,6.032116711E-2,-2.321219631E-2
3.271120290E-1,-3.420744836E-2,6.398624927E-2,-2.321219631E-2
3.294943200E-1,-3.665083647E-2,6.520794332E-2,-2.565558441E-2
3.318766120E-1,-3.909422457E-2,6.276455522E-2,-2.443389036E-2
3.342589040E-1,-3.909422457E-2,6.154286116E-2,-2.321219631E-2
3.366411950E-1,-4.031591862E-2,6.276455522E-2,-2.321219631E-2
3.390234870E-1,-4.046862945E-2,6.505523622E-2,-2.321219631E-2
3.414057790E-1,-4.046862945E-2,6.520794332E-2,-2.199050039E-2
3.437880700E-1,-4.413371533E-2,6.383354217E-2,-2.199050039E-2
3.461703620E-1,-4.169032723E-2,6.505523622E-2,-2.443389036E-2
3.485527060E-1,-4.046862945E-2,6.398624927E-2,-2.321219631E-2
3.509349980E-1,-4.031591862E-2,6.154286116E-2,-2.199050039E-2
3.533172890E-1,-3.787253052E-2,5.787777901E-2,-2.076880634E-2
3.556995810E-1,-4.031591862E-2,5.543438718E-2,-1.710372418E-2
3.580818730E-1,-3.787253052E-2,5.070032179E-2,-1.588202827E-2
3.604641640E-1,-3.771981969E-2,4.581354558E-2,-1.588202827E-2
3.628464560E-1,-3.527642787E-2,4.092676565E-2,-1.343864016E-2
3.652287480E-1,-3.405473381E-2,3.726168349E-2,-1.084253844E-2
3.676110390E-1,-3.268032894E-2,2.886253223E-2,-1.084253844E-2
3.699933310E-1,-3.023693897E-2,2.397575416E-2,-9.620844387E-3
3.723756230E-1,-2.397575416E-2,2.168507688E-2,-9.620844387E-3
3.747579660E-1,-2.397575416E-2,1.557660475E-2,-8.399149403E-3
3.771402580E-1,-2.015795931E-2,1.313321572E-2,-8.399149403E-3
3.795225500E-1,-1.649287529E-2,8.246437646E-3,-9.620844387E-3
3.819048410E-1,-1.267508045E-2,5.955760833E-3,-9.620844387E-3
3.842871330E-1,-9.009997360E-3,3.512371797E-3,-1.068982668E-2
3.866694250E-1,-4.123218823E-3,3.512371797E-3,-1.068982668E-2
3.890517160E-1,-5.344913341E-3,3.512371797E-3,-1.068982668E-2
3.914340080E-1,-4.123218823E-3,2.290677279E-3,-1.191152167E-2
3.938163000E-1,-4.123218823E-3,5.955760833E-3,-1.068982668E-2
3.961985910E-1,-4.123218823E-3,1.084253844E-2,-9.468132630E-3
3.985809350E-1,-4.123218823E-3,1.084253844E-2,-9.468132630E-3
4.009632270E-1,-1.679830020E-3,1.328592747E-2,-9.468132630E-3
4.033455180E-1,2.137965523E-3,1.572931744E-2,-1.068982668E-2
4.057278100E-1,3.206948051E-3,2.168507688E-2,-1.328592747E-2
4.081101020E-1,5.650337320E-3,2.657185495E-2,-1.450762246E-2
4.104923930E-1,4.428642802E-3,3.634541109E-2,-1.572931744E-2
4.128746850E-1,8.093725890E-3,4.718795046E-2,-1.695101149E-2
4.152569770E-1,5.497625098E-3,6.047387794E-2,-1.817270555E-2
4.176392680E-1,3.054236295E-3,7.269082218E-2,-1.832541823E-2
4.200215600E-1,2.901524538E-3,8.597674966E-2,-1.954711229E-2
4.224038520E-1,-9.162708884E-4,9.330692142E-2,-2.199050039E-2
4.247861950E-1,-2.137965523E-3,9.804098308E-2,-2.199050039E-2
4.271684870E-1,-4.581354558E-3,1.017060652E-1,-2.199050039E-2
4.295507790E-1,-5.955760833E-3,1.029277667E-1,-2.321219631E-2
4.319330700E-1,-8.399149403E-3,1.004843712E-1,-2.199050039E-2
4.343153620E-1,-9.620844387E-3,9.681928903E-2,-2.443389036E-2
4.366976540E-1,-1.084253844E-2,9.315420687E-2,-2.687728032E-2
4.390799450E-1,-1.206423342E-2,8.948912472E-2,-2.809897438E-2
4.414622370E-1,-1.206423342E-2,8.948912472E-2,-2.932066843E-2
4.438445290E-1,-1.084253844E-2,8.704573661E-2,-2.932066843E-2
4.462268200E-1,-1.084253844E-2,8.338065445E-2,-2.932066843E-2
4.486091640E-1,-1.206423342E-2,7.986827940E-2,-2.932066843E-2
4.509914560E-1,-1.191152167E-2,7.620319724E-2,-2.565558441E-2
4.533737480E-1,-1.313321572E-2,7.131642103E-2,-2.443389036E-2
4.557560390E-1,-1.313321572E-2,6.765133142E-2,-2.199050039E-2
4.581383310E-1,-1.191152167E-2,6.169557199E-2,-2.076880634E-2
4.605206230E-1,-1.557660475E-2,5.436540768E-2,-1.832541823E-2
4.629029140E-1,-1.175880991E-2,4.718795046E-2,-1.572931744E-2
4.652852060E-1,-1.038440317E-2,3.619270027E-2,-1.328592747E-2
4.676674980E-1,-1.160609815E-2,2.535016090E-2,-1.328592747E-2
4.700497890E-1,-9.009997360E-3,1.557660475E-2,-1.084253844E-2
4.724320810E-1,-7.788302377E-3,2.290677279E-3,-8.246437646E-3
4.748144250E-1,-5.192201585E-3,-7.330167107E-3,-7.024743594E-3
4.771967160E-1,-1.527118147E-3,-1.221694518E-2,-7.024743594E-3
4.795790080E-1,1.068982761E-3,-1.954711229E-2,-8.246437646E-3
4.819613000E-1,4.734066315E-3,-2.550287358E-2,-9.468132630E-3
4.843435910E-1,8.551862091E-3,-3.038965166E-2,-1.068982668E-2
4.867258830E-1,1.221694518E-2,-3.527642787E-2,-1.053711493E-2
4.891081750E-1,1.725643501E-2,-4.001049697E-2,-6.872031838E-3
4.914904660E-1,2.229592577E-2,-4.489727318E-2,-6.872031838E-3
4.938727580E-1,2.473931387E-2,-5.329642445E-2,-5.650337320E-3
4.962550500E-1,2.855710872E-2,-6.169557199E-2,6.108472589E-4
4.986373410E-1,2.870982140E-2,-7.269082218E-2,6.108472589E-4
5.010196850E-1,3.115320951E-2,-8.353336155E-2,4.275931045E-3
5.034019770E-1,3.252761811E-2,-9.330692142E-2,5.497625098E-3
5.057842680E-1,3.374931216E-2,-1.029277667E-1,6.872031838E-3
5.081665600E-1,3.268032894E-2,-1.137702987E-1,9.315420873E-3
5.105488520E-1,3.023693897E-2,-1.320957243E-1,8.093725890E-3
5.129311430E-1,2.901524492E-2,-1.404948682E-1,8.093725890E-3
5.153134350E-1,3.161134571E-2,-1.453816444E-1,8.093725890E-3
5.176957270E-1,3.771981969E-2,-1.429382563E-1,9.315420873E-3
5.200780180E-1,4.520269856E-2,-1.380514801E-1,6.872031838E-3
5.224603100E-1,5.131116882E-2,-1.356080920E-1,8.093725890E-3
5.248426540E-1,5.635065958E-2,-1.319430023E-1,8.246437646E-3
5.272249450E-1,6.490252167E-2,-1.294996142E-1,8.246437646E-3
5.296072370E-1,7.116370648E-2,-1.293469071E-1,9.468132630E-3
5.319895290E-1,7.620319724E-2,-1.305686086E-1,1.068982668E-2
5.343718200E-1,7.742489129E-2,-1.330119967E-1,1.313321572E-2
5.367541120E-1,7.742489129E-2,-1.354553849E-1,1.557660475E-2
5.391364040E-1,7.620319724E-2,-1.414111406E-1,1.435491070E-2
5.415186950E-1,7.742489129E-2,-1.426328421E-1,1.313321572E-2
5.439009870E-1,7.864658535E-2,-1.426328421E-1,1.068982668E-2
5.462832790E-1,7.620319724E-2,-1.452289373E-1,4.581354558E-3
5.486656230E-1,7.864658535E-2,-1.464506239E-1,9.162708884E-4
5.510479140E-1,8.108997345E-2,-1.464506239E-1,-5.192201585E-3
5.534302060E-1,8.353336155E-2,-1.452289373E-1,-1.374406368E-2
5.558124980E-1,8.719844371E-2,-1.464506239E-1,-2.473931387E-2
5.581947890E-1,9.086353332E-2,-1.501157135E-1,-3.206948191E-2
5.605770810E-1,9.086353332E-2,-1.586675793E-1,-3.329117596E-2
5.629593730E-1,8.964183182E-2,-1.623326540E-1,-3.451287001E-2
5.653416640E-1,7.620319724E-2,-1.829487532E-1,-3.084778599E-2
5.677239560E-1,3.329117596E-2,-2.486148328E-1,-9.926267900E-3
5.701062480E-1,-9.773556143E-3,-2.922904193E-1,7.177455351E-3
5.724885390E-1,-3.451287001E-2,-2.997733057E-1,7.177455351E-3
5.748708310E-1,-4.718795046E-2,-2.805316150E-1,9.162708884E-4
5.772531750E-1,-5.100574717E-2,-2.490729690E-1,-1.267508045E-2
5.796354660E-1,-5.008947477E-2,-2.078407854E-1,-2.626643144E-2
5.820177580E-1,-4.413371533E-2,-1.690519750E-1,-3.741439432E-2
5.844000500E-1,-3.817795217E-2,-1.327065676E-1,-4.596625641E-2
5.867823410E-1,-3.222219273E-2,-1.059819981E-1,-5.467082933E-2
5.891646330E-1,-2.626643144E-2,-8.170082420E-2,-6.200099736E-2
5.915469250E-1,-2.015795931E-2,-6.230641901E-2,-6.581879407E-2
5.939292160E-1,-1.404948719E-2,-4.413371533E-2,-6.459710002E-2
5.963115080E-1,-1.282779220E-2,-2.840439789E-2,-6.337540597E-2
5.986938520E-1,-1.404948719E-2,-1.496575773E-2,-5.482354015E-2
6.010761430E-1,-1.542389300E-2,-3.054236295E-4,-4.382828996E-2
6.034584350E-1,-2.031067200E-2,9.315420873E-3,-3.771981969E-2
6.058407270E-1,-2.290677279E-2,1.786728203E-2,-3.038965166E-2
6.082230180E-1,-2.535016090E-2,2.275406010E-2,-2.672456764E-2
6.106053100E-1,-2.901524492E-2,2.764083818E-2,-2.565558441E-2
6.129876020E-1,-2.901524492E-2,3.008422814E-2,-2.321219631E-2
6.153698930E-1,-3.023693897E-2,2.886253223E-2,-2.061609551E-2
6.177521850E-1,-2.901524492E-2,3.130592033E-2,-1.939439960E-2
6.201344770E-1,-2.657185495E-2,3.008422814E-2,-1.939439960E-2
6.225168200E-1,-2.412846684E-2,3.008422814E-2,-1.695101149E-2
6.248991120E-1,-2.519745007E-2,2.641914412E-2,-1.450762246E-2
6.272814040E-1,-2.519745007E-2,2.153236605E-2,-1.450762246E-2
6.296636950E-1,-2.641914412E-2,1.068982668E-2,-1.572931744E-2
6.320459870E-1,-2.886253223E-2,2.137965523E-3,-1.572931744E-2
6.344282790E-1,-2.764083818E-2,-6.261184346E-3,-1.695101149E-2
6.368105700E-1,-2.870982140E-2,-1.725643501E-2,-1.695101149E-2
6.391928620E-1,-3.130592033E-2,-2.214321308E-2,-1.817270555E-2
6.415751540E-1,-3.115320951E-2,-2.702999115E-2,-1.817270555E-2
6.439574450E-1,-3.115320951E-2,-3.298575059E-2,-1.801999472E-2
6.463397370E-1,-3.237490356E-2,-3.665083647E-2,-1.801999472E-2
6.487220810E-1,-3.237490356E-2,-3.909422457E-2,-1.679829881E-2
6.511043730E-1,-3.481829539E-2,-3.909422457E-2,-1.924168877E-2
6.534866640E-1,-3.359659761E-2,-4.031591862E-2,-1.924168877E-2
6.558689560E-1,-3.359659761E-2,-3.909422457E-2,-1.801999472E-2
6.582512480E-1,-3.481829539E-2,-3.909422457E-2,-1.924168877E-2
6.606335390E-1,-3.603998944E-2,-3.909422457E-2,-2.046338283E-2
6.630158310E-1,-3.741439432E-2,-3.787253052E-2,-1.924168877E-2
6.653981230E-1,-3.863608837E-2,-3.665083647E-2,-1.801999472E-2
6.677804140E-1,-4.107947648E-2,-3.436015919E-2,-1.695101149E-2
6.701627060E-1,-4.230117425E-2,-3.191677108E-2,-1.695101149E-2
6.725450500E-1,-4.352286831E-2,-3.313846514E-2,-1.572931744E-2
6.749273410E-1,-4.474456236E-2,-2.947338112E-2,-1.206423342E-2
6.773096330E-1,-4.474456236E-2,-2.825168520E-2,-1.206423342E-2
6.796919250E-1,-4.474456236E-2,-3.191677108E-2,-1.450762246E-2
6.820742160E-1,-4.352286831E-2,-3.191677108E-2,-1.206423342E-2
6.844565080E-1,-4.474456236E-2,-3.436015919E-2,-1.206423342E-2
6.868388000E-1,-4.474456236E-2,-3.436015919E-2,-1.206423342E-2
6.892210910E-1,-4.352286831E-2,-3.542914242E-2,-1.191152167E-2
6.916033830E-1,-4.474456236E-2,-3.665083647E-2,-1.191152167E-2
6.939856750E-1,-4.230117425E-2,-4.031591862E-2,-1.191152167E-2
6.963680180E-1,-4.352286831E-2,-4.520269856E-2,-1.313321572E-2
6.987503100E-1,-4.352286831E-2,-4.642439261E-2,-1.068982668E-2
7.011326020E-1,-4.352286831E-2,-5.008947477E-2,-1.313321572E-2
7.035148930E-1,-4.337015375E-2,-5.253286287E-2,-1.313321572E-2
7.058971850E-1,-4.337015375E-2,-5.253286287E-2,-1.313321572E-2
7.082794770E-1,-4.474456236E-2,-5.253286287E-2,-1.313321572E-2
7.106617680E-1,-4.596625641E-2,-5.253286287E-2,-1.313321572E-2
7.130440600E-1,-4.474456236E-2,-5.497625470E-2,-1.435491070E-2
7.154263520E-1,-4.337015375E-2,-5.619794875E-2,-1.557660475E-2
7.178086430E-1,-4.092676565E-2,-5.497625470E-2,-1.313321572E-2
7.201909350E-1,-4.214845970E-2,-5.726693198E-2,-1.313321572E-2
7.225732790E-1,-4.214845970E-2,-5.619794875E-2,-1.435491070E-2
7.249555700E-1,-4.214845970E-2,-5.375456065E-2,-1.435491070E-2
7.273378620E-1,-4.092676565E-2,-5.482354015E-2,-1.191152167E-2
7.297201540E-1,-4.214845970E-2,-5.131116882E-2,-1.435491070E-2
7.321024450E-1,-4.230117425E-2,-4.764608666E-2,-1.557660475E-2
7.344847370E-1,-4.230117425E-2,-4.520269856E-2,-1.435491070E-2
7.368670290E-1,-4.352286831E-2,-4.764608666E-2,-1.435491070E-2
7.392493200E-1,-4.352286831E-2,-4.398100078E-2,-1.557660475E-2
7.416316120E-1,-4.107947648E-2,-3.909422457E-2,-1.435491070E-2
7.440139040E-1,-4.352286831E-2,-3.680354729E-2,-1.450762246E-2
7.463962480E-1,-4.230117425E-2,-3.802524135E-2,-1.695101149E-2
7.487785390E-1,-4.474456236E-2,-3.558185324E-2,-1.695101149E-2
7.511608310E-1,-4.611896724E-2,-3.191677108E-2,-1.817270555E-2
7.535431230E-1,-4.611896724E-2,-2.947338112E-2,-1.939439960E-2
7.559254140E-1,-4.489727318E-2,-2.947338112E-2,-2.061609551E-2
7.583077060E-1,-4.611896724E-2,-2.702999115E-2,-2.183778957E-2
7.606899980E-1,-4.734066129E-2,-2.473931387E-2,-2.550287358E-2
7.630722890E-1,-4.734066129E-2,-2.229592577E-2,-2.550287358E-2
7.654545810E-1,-4.993676394E-2,-2.351761982E-2,-2.550287358E-2
7.678369250E-1,-4.993676394E-2,-2.107422985E-2,-2.672456764E-2
7.702192160E-1,-5.115845799E-2,-1.863084175E-2,-2.672456764E-2
7.726015080E-1,-5.238015205E-2,-1.618745178E-2,-2.672456764E-2
7.749838000E-1,-5.238015205E-2,-1.496575773E-2,-2.550287358E-2
7.773660910E-1,-5.482354015E-2,-1.618745178E-2,-2.794626169E-2
7.797483830E-1,-5.482354015E-2,-1.267508045E-2,-2.794626169E-2
7.821306750E-1,-5.482354015E-2,-1.145338640E-2,-2.672456764E-2
7.845129660E-1,-5.604523420E-2,-1.374406368E-2,-2.672456764E-2
7.868952580E-1,-5.619794875E-2,-9.009997360E-3,-2.550287358E-2
7.892775500E-1,-5.619794875E-2,-1.023169141E-2,-2.428117767E-2
7.916598930E-1,-5.619794875E-2,-1.145338640E-2,-2.550287358E-2
7.940421850E-1,-5.482354015E-2,-1.130067464E-2,-2.428117767E-2
7.964244770E-1,-5.482354015E-2,-1.023169141E-2,-2.428117767E-2
7.988067680E-1,-5.482354015E-2,-9.009997360E-3,-2.428117767E-2
8.011890600E-1,-5.360184610E-2,-1.007897966E-2,-2.183778957E-2
8.035713520E-1,-5.115845799E-2,-1.252236869E-2,-2.061609551E-2
8.059536430E-1,-4.856235534E-2,-1.740914769E-2,-2.061609551E-2
8.083359350E-1,-4.856235534E-2,-1.863084175E-2,-1.695101149E-2
8.107182270E-1,-4.734066129E-2,-2.214321308E-2,-1.572931744E-2
8.131005180E-1,-4.489727318E-2,-2.458660305E-2,-1.695101149E-2
8.154828100E-1,-4.107947648E-2,-2.702999115E-2,-1.572931744E-2
8.178651540E-1,-4.107947648E-2,-3.069507517E-2,-1.572931744E-2
8.202474450E-1,-4.107947648E-2,-3.436015919E-2,-1.313321572E-2
8.226297370E-1,-4.107947648E-2,-3.787253052E-2,-1.435491070E-2
8.250120290E-1,-3.863608837E-2,-3.787253052E-2,-1.435491070E-2
8.273943200E-1,-4.107947648E-2,-3.909422457E-2,-1.435491070E-2
8.297766120E-1,-4.107947648E-2,-3.787253052E-2,-1.435491070E-2
8.321589040E-1,-3.985778242E-2,-4.031591862E-2,-1.435491070E-2
8.345411950E-1,-4.107947648E-2,-4.153761268E-2,-1.435491070E-2
8.369234870E-1,-4.352286831E-2,-4.153761268E-2,-1.435491070E-2
8.393058310E-1,-4.352286831E-2,-4.153761268E-2,-1.557660475E-2
8.416881230E-1,-4.352286831E-2,-3.909422457E-2,-1.435491070E-2
8.440704140E-1,-4.596625641E-2,-3.802524135E-2,-1.572931744E-2
8.464527060E-1,-4.734066129E-2,-3.313846514E-2,-1.450762246E-2
8.488349980E-1,-4.978405312E-2,-3.069507517E-2,-1.450762246E-2
8.512172890E-1,-5.100574717E-2,-2.336490713E-2,-1.328592747E-2
8.535995810E-1,-5.100574717E-2,-1.985253580E-2,-1.572931744E-2
8.559818730E-1,-5.238015205E-2,-1.374406368E-2,-1.695101149E-2
8.583641640E-1,-5.360184610E-2,-7.635590620E-3,-1.695101149E-2
8.607464560E-1,-5.741964281E-2,-4.581354442E-4,-1.572931744E-2
8.631288000E-1,-5.741964281E-2,6.872031838E-3,-1.710372418E-2
8.655110910E-1,-5.864133686E-2,1.282779220E-2,-1.832541823E-2
8.678933830E-1,-6.123743951E-2,2.015795931E-2,-1.954711229E-2
8.702756750E-1,-6.505523622E-2,2.977880463E-2,-1.832541823E-2
8.726579660E-1,-6.872031838E-2,3.466558084E-2,-1.954711229E-2
8.750402580E-1,-6.994201243E-2,4.077405483E-2,-1.954711229E-2
8.774225500E-1,-7.131642103E-2,4.428642616E-2,-2.214321308E-2
8.798048410E-1,-7.375980914E-2,4.795150831E-2,-2.214321308E-2
8.821871330E-1,-7.620319724E-2,4.917320609E-2,-2.336490713E-2
8.845694250E-1,-7.375980914E-2,5.039490014E-2,-2.458660305E-2
8.869517160E-1,-7.620319724E-2,4.917320609E-2,-2.458660305E-2
8.893340600E-1,-7.498150319E-2,4.795150831E-2,-2.336490713E-2
8.917163520E-1,-7.498150319E-2,4.428642616E-2,-2.336490713E-2
8.940986430E-1,-7.620319724E-2,4.062134400E-2,-2.702999115E-2
8.964809350E-1,-7.864658535E-2,3.451287001E-2,-2.580829710E-2
8.988632270E-1,-7.742489129E-2,2.611372061E-2,-2.687728032E-2
9.012455180E-1,-7.742489129E-2,1.878355257E-2,-2.687728032E-2
9.036278100E-1,-7.605048269E-2,1.160609815E-2,-2.687728032E-2
9.060101020E-1,-7.727217674E-2,1.832541777E-3,-2.687728032E-2
9.083923930E-1,-7.727217674E-2,-4.275931045E-3,-2.932066843E-2
9.107746850E-1,-7.849387079E-2,-1.023169141E-2,-2.809897438E-2
9.131570290E-1,-7.589777559E-2,-2.000524849E-2,-3.054236248E-2
9.155393200E-1,-7.589777559E-2,-2.733541466E-2,-2.932066843E-2
9.179216120E-1,-7.589777559E-2,-3.451287001E-2,-2.916795574E-2
9.203039040E-1,-7.467607409E-2,-3.817795217E-2,-2.916795574E-2
9.226861950E-1,-7.574506104E-2,-4.428642616E-2,-2.672456764E-2
9.250684870E-1,-7.330167294E-2,-4.428642616E-2,-2.794626169E-2
9.274507790E-1,-7.330167294E-2,-4.428642616E-2,-2.794626169E-2
9.298330700E-1,-7.207997888E-2,-4.184303805E-2,-2.794626169E-2
9.322153620E-1,-7.085828483E-2,-4.184303805E-2,-2.550287358E-2
9.345977060E-1,-6.841489673E-2,-4.184303805E-2,-2.550287358E-2
9.369799980E-1,-6.719319522E-2,-3.817795217E-2,-2.550287358E-2
9.393622890E-1,-6.719319522E-2,-3.206948191E-2,-2.672456764E-2
9.417445810E-1,-6.719319522E-2,-2.840439789E-2,-2.428117767E-2
9.441268730E-1,-6.597150117E-2,-2.351761982E-2,-2.428117767E-2
9.465091640E-1,-6.597150117E-2,-1.985253580E-2,-2.550287358E-2
9.488914560E-1,-6.597150117E-2,-1.756185852E-2,-2.428117767E-2
9.512737480E-1,-6.597150117E-2,-1.389677543E-2,-2.183778957E-2
9.536560390E-1,-6.734590977E-2,-1.023169141E-2,-2.199050039E-2
9.560383310E-1,-6.978929788E-2,-5.344913341E-3,-2.076880634E-2
9.584206750E-1,-6.856760383E-2,1.985253533E-3,-2.076880634E-2
9.608029660E-1,-6.734590977E-2,5.497625098E-3,-2.076880634E-2
9.631852580E-1,-6.734590977E-2,1.038440317E-2,-1.954711229E-2
9.655675500E-1,-6.612421572E-2,1.771457121E-2,-1.710372418E-2
9.679498410E-1,-6.490252167E-2,2.504473738E-2,-1.832541823E-2
9.703321330E-1,-6.368082762E-2,3.100049868E-2,-1.710372418E-2
9.727144250E-1,-6.245913357E-2,3.833066672E-2,-1.588202827E-2
9.750967160E-1,-5.879404768E-2,4.199574888E-2,-1.588202827E-2
9.774790080E-1,-5.390727147E-2,4.443913698E-2,-1.466033421E-2
9.798613520E-1,-4.886778072E-2,4.566083103E-2,-1.343864016E-2
9.822436430E-1,-4.398100078E-2,4.932591692E-2,-1.099525020E-2
9.846259350E-1,-4.031591862E-2,5.299099907E-2,-9.773556143E-3
9.870082270E-1,-3.527642787E-2,5.070032179E-2,-1.099525020E-2
9.893905180E-1,-3.283303976E-2,5.192201585E-2,-8.551862091E-3
9.917728100E-1,-3.161134571E-2,4.947862774E-2,-8.551862091E-3
9.941551020E-1,-2.779355086E-2,4.581354558E-2,-9.773556143E-3
9.965373930E-1,-2.397575416E-2,3.741439432E-2,-8.399149403E-3
9.989196850E-1,-2.153236605E-2,3.130592033E-2,-8.399149403E-3
1.001301977E0,-2.031067200E-2,2.412846684E-2,-8.399149403E-3
1.003684268E0,-1.893626526E-2,1.557660475E-2,-7.177455351E-3
1.006066612E0,-1.527118124E-2,8.399149403E-3,-7.177455351E-3
1.008448904E0,-1.267508045E-2,-1.527118147E-4,-5.803049076E-3
1.010831195E0,-1.267508045E-2,-3.817795310E-3,-3.359660041E-3
1.013213487E0,-8.857285604E-3,-8.551862091E-3,-2.137965523E-3
1.015595779E0,-6.413896102E-3,-1.343864016E-2,-2.137965523E-3
1.017978070E0,-2.596100792E-3,-1.343864016E-2,3.054236295E-4
1.020360362E0,1.068982761E-3,-1.466033421E-2,-9.162708884E-4
1.022742654E0,-1.527118147E-4,-1.099525020E-2,-9.162708884E-4
1.025124945E0,1.068982761E-3,-1.099525020E-2,-9.162708884E-4
1.027507237E0,3.512371797E-3,-9.773556143E-3,1.527118147E-3
1.029889581E0,4.734066315E-3,-6.108472589E-3,1.527118147E-3
1.032271873E0,5.955760833E-3,-1.221694518E-3,2.748812549E-3
1.034654164E0,7.177455351E-3,6.108472589E-3,3.970507067E-3
1.037036456E0,7.177455351E-3,1.343864016E-2,5.192201585E-3
1.039418748E0,8.399149403E-3,2.061609551E-2,6.413896102E-3
1.041801039E0,8.399149403E-3,2.550287358E-2,7.635590620E-3
1.044183331E0,1.084253844E-2,3.038965166E-2,1.007897966E-2
1.046565623E0,1.084253844E-2,3.771981969E-2,1.130067464E-2
1.048947914E0,1.068982668E-2,4.260659590E-2,1.252236869E-2
1.051330206E0,1.191152167E-2,4.978405312E-2,1.374406368E-2
1.053712550E0,9.468132630E-3,5.589252338E-2,1.374406368E-2
1.056094841E0,1.068982668E-2,5.955760926E-2,1.496575773E-2
1.058477133E0,9.468132630E-3,6.429167092E-2,1.481304597E-2
1.060859425E0,1.068982668E-2,6.795676053E-2,1.481304597E-2
1.063241716E0,1.053711493E-2,7.162184268E-2,1.359135192E-2
1.065624008E0,1.053711493E-2,7.406523079E-2,1.359135192E-2
1.068006300E0,1.175880991E-2,7.528692484E-2,1.236965694E-2
1.070388591E0,1.313321572E-2,7.895200700E-2,1.481304597E-2
1.072770883E0,1.557660475E-2,7.650861889E-2,1.359135192E-2
1.075153175E0,1.679829881E-2,8.017370105E-2,1.359135192E-2
1.077535518E0,1.801999472E-2,8.017370105E-2,1.481304597E-2
1.079917810E0,1.801999472E-2,8.139539510E-2,1.359135192E-2
1.082300102E0,1.924168877E-2,8.139539510E-2,1.481304597E-2
1.084682393E0,2.305948362E-2,7.895200700E-2,1.725643501E-2
1.087064685E0,2.428117767E-2,8.017370105E-2,1.481304597E-2
1.089446977E0,2.550287358E-2,7.650861889E-2,1.496575773E-2
1.091829268E0,2.794626169E-2,7.543963939E-2,1.374406368E-2
1.094211560E0,2.916795574E-2,7.177454978E-2,1.130067464E-2
1.096593852E0,3.038965166E-2,7.055285573E-2,1.130067464E-2
1.098976195E0,3.176405653E-2,6.566607952E-2,1.007897966E-2
1.101358487E0,3.665083647E-2,6.077930331E-2,7.635590620E-3
1.103740779E0,3.787253052E-2,5.848862603E-2,8.857285604E-3
1.106123070E0,3.909422457E-2,5.726693198E-2,7.635590620E-3
1.108505362E0,4.046862945E-2,5.482354015E-2,6.413896102E-3
1.110887654E0,4.291202128E-2,5.115845799E-2,1.007897966E-2
1.113269945E0,4.917320609E-2,4.993676394E-2,1.007897966E-2
1.115652237E0,5.161659420E-2,4.642439261E-2,7.635590620E-3
1.118034529E0,5.528167635E-2,4.642439261E-2,1.023169141E-2
1.120416820E0,5.665608495E-2,4.642439261E-2,1.267508045E-2
1.122799164E0,5.909947306E-2,4.642439261E-2,1.267508045E-2
1.125181456E0,6.276455522E-2,4.520269856E-2,1.389677543E-2
1.127563748E0,6.413896382E-2,4.520269856E-2,1.511846948E-2
1.129946039E0,6.413896382E-2,4.642439261E-2,1.756185852E-2
1.132328331E0,6.536065787E-2,4.642439261E-2,1.756185852E-2
1.134710623E0,6.780404598E-2,4.413371533E-2,1.756185852E-2
1.137092914E0,6.902574003E-2,4.535540938E-2,2.122694254E-2
1.139475206E0,7.024743408E-2,4.535540938E-2,2.244863659E-2
1.141857498E0,6.902574003E-2,4.779879749E-2,2.367033064E-2
1.144239841E0,7.146912813E-2,4.902049154E-2,2.367033064E-2
1.146622133E0,7.146912813E-2,4.902049154E-2,2.367033064E-2
1.149004425E0,7.269082218E-2,5.024218559E-2,2.122694254E-2
1.151386716E0,7.269082218E-2,5.146388337E-2,2.244863659E-2
1.153769008E0,7.895200700E-2,5.024218559E-2,2.367033064E-2
1.156151300E0,7.895200700E-2,5.146388337E-2,2.367033064E-2
1.158533591E0,8.261708915E-2,5.146388337E-2,2.244863659E-2
1.160915883E0,8.643488586E-2,5.146388337E-2,2.244863659E-2
1.163298175E0,8.887827396E-2,5.024218559E-2,2.367033064E-2
1.165680466E0,9.009996802E-2,5.146388337E-2,2.611372061E-2
1.168062810E0,9.254335612E-2,4.902049154E-2,2.367033064E-2
1.170445102E0,9.391776472E-2,5.024218559E-2,2.367033064E-2
1.172827393E0,9.758284688E-2,4.917320609E-2,2.626643144E-2
1.175209685E0,9.758284688E-2,5.039490014E-2,2.626643144E-2
1.177591977E0,1.000262350E-1,4.917320609E-2,2.748812735E-2
1.179974268E0,1.038440317E-1,4.917320609E-2,2.382304333E-2
1.182356560E0,1.050657257E-1,4.795150831E-2,2.626643144E-2
1.184738852E0,1.050657257E-1,4.795150831E-2,2.748812735E-2
1.187121143E0,1.062874198E-1,4.795150831E-2,2.748812735E-2
1.189503435E0,1.050657257E-1,4.795150831E-2,2.870982140E-2
1.191885779E0,1.050657257E-1,4.550812021E-2,2.993151546E-2
1.194268070E0,1.062874198E-1,4.550812021E-2,3.115320951E-2
1.196650362E0,1.087308154E-1,4.795150831E-2,3.481829539E-2
1.199032654E0,1.075091213E-1,5.039490014E-2,3.603998944E-2
1.201414945E0,1.075091213E-1,5.039490014E-2,3.603998944E-2
1.203797237E0,1.101052165E-1,5.405998230E-2,3.848337755E-2
1.206179529E0,1.113269106E-1,5.283828825E-2,3.848337755E-2
1.208561820E0,1.101052165E-1,5.283828825E-2,3.726168349E-2
1.210944112E0,1.099525094E-1,5.405998230E-2,3.726168349E-2
1.213326456E0,1.125486046E-1,5.405998230E-2,3.359659761E-2
1.215708748E0,1.111742035E-1,5.772506446E-2,3.481829539E-2
1.218091039E0,1.087308154E-1,5.772506446E-2,3.359659761E-2
1.220473331E0,1.087308154E-1,5.650337040E-2,3.726168349E-2
1.222855623E0,1.099525094E-1,5.650337040E-2,3.481829539E-2
1.225237914E0,1.099525094E-1,5.772506446E-2,3.359659761E-2
1.227620206E0,1.087308154E-1,5.283828825E-2,3.481829539E-2
1.230002498E0,1.075091213E-1,4.672981426E-2,3.603998944E-2
1.232384789E0,1.062874198E-1,4.199574888E-2,3.359659761E-2
1.234767081E0,1.076618284E-1,3.710897267E-2,3.237490356E-2
1.237149425E0,1.064401343E-1,2.855710872E-2,3.359659761E-2
1.239531716E0,1.076618284E-1,2.489202656E-2,3.237490356E-2
1.241914008E0,1.052184403E-1,2.122694254E-2,3.237490356E-2
1.244296300E0,1.052184403E-1,1.282779220E-2,2.993151546E-2
1.246678591E0,1.064401343E-1,7.941014133E-3,3.008422814E-2
1.249060883E0,1.052184403E-1,5.497625098E-3,2.886253223E-2
1.251443175E0,1.053711548E-1,-6.108472589E-4,3.008422814E-2
1.253825466E0,1.078145429E-1,6.108472589E-4,3.008422814E-2
1.256207758E0,1.065928489E-1,-2.901524538E-3,3.008422814E-2
1.258590102E0,1.065928489E-1,-5.344913341E-3,3.008422814E-2
1.260972393E0,1.090362370E-1,-7.788302377E-3,3.130592033E-2
1.263354685E0,1.128540337E-1,-1.145338640E-2,3.008422814E-2
1.265736977E0,1.152974218E-1,-1.145338640E-2,3.008422814E-2
1.268119268E0,1.165191159E-1,-1.267508045E-2,3.252761811E-2
1.270501560E0,1.189625040E-1,-1.252236869E-2,3.374931216E-2
1.272883852E0,1.215586066E-1,-1.374406368E-2,3.497100621E-2
1.275266143E0,1.240019947E-1,-1.374406368E-2,3.497100621E-2
1.277648435E0,1.264453828E-1,-1.374406368E-2,3.619270027E-2
1.280030779E0,1.302631795E-1,-1.252236869E-2,3.756710514E-2
1.282413070E0,1.339282542E-1,-1.130067464E-2,3.512371704E-2
1.284795362E0,1.351499557E-1,-1.130067464E-2,3.634541109E-2
1.287177654E0,1.363716573E-1,-8.857285604E-3,3.390202299E-2
1.289559945E0,1.400367320E-1,-5.192201585E-3,3.390202299E-2
1.291942237E0,1.388150454E-1,-2.748812549E-3,3.008422814E-2
1.294324529E0,1.375933439E-1,-2.748812549E-3,3.008422814E-2
1.296706820E0,1.363716573E-1,-1.527118147E-3,2.886253223E-2
1.299089112E0,1.362189353E-1,1.985253533E-3,2.764083818E-2
1.301471404E0,1.374406368E-1,3.206948051E-3,2.641914412E-2
1.303853748E0,1.386623234E-1,5.650337320E-3,2.641914412E-2
1.306236039E0,1.374406368E-1,6.872031838E-3,2.397575416E-2
1.308618331E0,1.386623234E-1,4.428642802E-3,2.275406010E-2
1.311000623E0,1.374406368E-1,6.872031838E-3,2.641914412E-2
1.313382914E0,1.362189353E-1,8.093725890E-3,2.641914412E-2
1.315765206E0,1.349972486E-1,5.650337320E-3,2.886253223E-2
1.318147498E0,1.349972486E-1,4.428642802E-3,2.641914412E-2
1.320529789E0,1.337755471E-1,1.985253533E-3,2.764083818E-2
1.322912081E0,1.313321590E-1,7.635590737E-4,2.764083818E-2
1.325294373E0,1.325538605E-1,7.635590737E-4,3.008422814E-2
1.327676716E0,1.313321590E-1,-1.679830020E-3,3.130592033E-2
1.330059008E0,1.288887709E-1,-4.123218823E-3,3.130592033E-2
1.332441300E0,1.276670843E-1,-6.566607859E-3,3.130592033E-2
1.334823591E0,1.276670843E-1,-7.635590620E-3,3.130592033E-2
1.337205883E0,1.276670843E-1,-7.635590620E-3,3.374931216E-2
1.339588175E0,1.264453828E-1,-8.857285604E-3,3.252761811E-2
1.341970466E0,1.264453828E-1,-1.007897966E-2,3.374931216E-2
1.344352758E0,1.276670843E-1,-1.252236869E-2,3.374931216E-2
1.346735050E0,1.264453828E-1,-1.740914769E-2,3.374931216E-2
1.349117393E0,1.252236813E-1,-1.863084175E-2,3.374931216E-2
1.351499685E0,1.264453828E-1,-1.985253580E-2,3.374931216E-2
1.353881977E0,1.264453828E-1,-1.985253580E-2,3.512371704E-2
1.356264268E0,1.290414780E-1,-1.863084175E-2,3.252761811E-2
1.358646560E0,1.290414780E-1,-1.740914769E-2,3.252761811E-2
1.361028852E0,1.290414780E-1,-2.229592577E-2,3.268032894E-2
1.363411143E0,1.290414780E-1,-2.351761982E-2,3.268032894E-2
1.365793435E0,1.265980899E-1,-2.718270384E-2,3.268032894E-2
1.368175727E0,1.278197914E-1,-2.947338112E-2,3.145863488E-2
1.370558070E0,1.290414780E-1,-3.191677108E-2,3.145863488E-2
1.372940362E0,1.265980899E-1,-3.313846514E-2,3.023693897E-2
1.375322654E0,1.253764033E-1,-3.313846514E-2,3.023693897E-2
1.377704945E0,1.240019947E-1,-3.436015919E-2,2.779355086E-2
1.380087237E0,1.240019947E-1,-3.436015919E-2,2.657185495E-2
1.382469529E0,1.215586066E-1,-3.573456407E-2,2.275406010E-2
1.384851820E0,1.203369126E-1,-3.695625812E-2,2.153236605E-2
1.387234112E0,1.191152185E-1,-3.817795217E-2,2.153236605E-2
1.389616456E0,1.166718230E-1,-3.939964995E-2,2.153236605E-2
1.391998695E0,1.128540337E-1,-3.939964995E-2,2.031067200E-2
1.394381039E0,1.116323397E-1,-4.062134400E-2,2.031067200E-2
1.396763331E0,1.104106456E-1,-4.062134400E-2,2.031067200E-2
1.399145623E0,1.091889441E-1,-4.062134400E-2,2.031067200E-2
1.401527914E0,1.067455560E-1,-4.062134400E-2,1.786728203E-2
1.403910206E0,1.067455560E-1,-4.306473210E-2,1.908897609E-2
1.406292498E0,1.067455560E-1,-4.184303805E-2,1.786728203E-2
1.408674789E0,1.067455560E-1,-4.184303805E-2,1.664558798E-2
1.411057081E0,1.053711548E-1,-4.062134400E-2,1.542389300E-2
1.413439373E0,1.041494608E-1,-3.939964995E-2,1.542389300E-2
1.415821664E0,1.029277667E-1,-3.710897267E-2,1.298050396E-2
1.418204008E0,1.004843712E-1,-3.710897267E-2,1.298050396E-2
1.420586300E0,1.029277667E-1,-3.710897267E-2,1.175880991E-2
1.422968591E0,1.017060652E-1,-3.710897267E-2,1.053711493E-2
1.425350883E0,9.910997003E-2,-3.588727489E-2,9.315420873E-3
1.427733175E0,9.666658193E-2,-3.955236077E-2,8.093725890E-3
1.430115466E0,9.422318637E-2,-3.833066672E-2,8.093725890E-3
1.432497758E0,9.300149232E-2,-3.710897267E-2,6.872031838E-3
1.434880050E0,9.177979827E-2,-3.710897267E-2,5.650337320E-3
1.437262341E0,8.918370306E-2,-3.710897267E-2,4.275931045E-3
1.439644685E0,8.796200156E-2,-3.710897267E-2,5.497625098E-3
1.442026977E0,8.796200156E-2,-3.955236077E-2,4.275931045E-3
1.444409268E0,8.674030751E-2,-3.710897267E-2,5.497625098E-3
1.446791560E0,8.674030751E-2,-3.833066672E-2,4.275931045E-3
1.449173852E0,8.551861346E-2,-3.710897267E-2,6.719320081E-3
1.451556143E0,8.551861346E-2,-3.710897267E-2,6.719320081E-3
1.453938435E0,8.429691941E-2,-3.710897267E-2,5.497625098E-3
1.456320727E0,8.063183725E-2,-3.955236077E-2,5.497625098E-3
1.458703070E0,7.941014320E-2,-4.077405483E-2,5.497625098E-3
1.461085362E0,7.818844914E-2,-4.199574888E-2,6.719320081E-3
1.463467654E0,7.818844914E-2,-4.199574888E-2,5.497625098E-3
1.465849945E0,7.559234649E-2,-4.337015375E-2,3.054236295E-3
1.468232237E0,7.314895838E-2,-4.443913698E-2,4.275931045E-3
1.470614529E0,7.314895838E-2,-4.688252881E-2,4.275931045E-3
1.472996820E0,7.192726433E-2,-4.932591692E-2,5.497625098E-3
1.475379112E0,6.826218218E-2,-5.176930502E-2,3.054236295E-3
1.477761404E0,6.826218218E-2,-5.543438718E-2,4.275931045E-3
1.480143695E0,6.581879407E-2,-5.787777901E-2,4.275931045E-3
1.482525987E0,6.459710002E-2,-6.032116711E-2,4.275931045E-3
1.484908331E0,6.215370819E-2,-6.276455522E-2,3.054236295E-3
1.487290623E0,6.215370819E-2,-6.520794332E-2,3.054236295E-3
1.489672914E0,6.077930331E-2,-6.398624927E-2,1.832541777E-3
1.492055206E0,5.955760926E-2,-6.276455522E-2,6.108472589E-4
1.494437498E0,5.955760926E-2,-6.154286116E-2,6.108472589E-4
1.496819789E0,5.711421743E-2,-5.787777901E-2,1.832541777E-3
1.499202081E0,5.589252338E-2,-5.558710173E-2,1.832541777E-3
1.501584373E0,5.329642445E-2,-5.192201585E-2,1.832541777E-3
1.503966716E0,5.207473040E-2,-4.947862774E-2,1.832541777E-3
1.506349008E0,5.085303262E-2,-4.703523964E-2,3.054236295E-3
1.508731300E0,4.840964451E-2,-4.581354558E-2,3.054236295E-3
1.511113591E0,4.581354558E-2,-4.337015375E-2,4.275931045E-3
1.513495883E0,4.459185153E-2,-4.352286831E-2,3.054236295E-3
1.515878175E0,4.459185153E-2,-4.352286831E-2,1.832541777E-3
1.518260466E0,4.459185153E-2,-4.107947648E-2,6.108472589E-4
1.520642758E0,4.214845970E-2,-4.230117425E-2,1.832541777E-3
1.523025050E0,3.970507160E-2,-4.230117425E-2,1.832541777E-3
1.525407341E0,3.970507160E-2,-4.352286831E-2,-6.108472589E-4
1.527789685E0,4.092676565E-2,-4.474456236E-2,-1.832541777E-3
1.530171977E0,3.970507160E-2,-4.718795046E-2,-1.832541777E-3
1.532554268E0,4.337015375E-2,-4.963133857E-2,-5.497625098E-3
1.534936560E0,4.214845970E-2,-5.207473040E-2,-4.275931045E-3
1.537318852E0,4.092676565E-2,-5.680879578E-2,-5.497625098E-3
1.539701143E0,4.214845970E-2,-6.169557199E-2,-5.497625098E-3
1.542083435E0,4.092676565E-2,-6.169557199E-2,-3.054236295E-3
1.544465727E0,4.352286831E-2,-6.658235192E-2,-5.497625098E-3
1.546848018E0,4.214845970E-2,-6.780404598E-2,-7.941014133E-3
1.549230362E0,4.352286831E-2,-7.146912813E-2,-6.719320081E-3
1.551612654E0,4.107947648E-2,-7.269082218E-2,-7.941014133E-3
1.553994945E0,4.107947648E-2,-7.513421029E-2,-7.941014133E-3
1.556377237E0,3.970507160E-2,-7.513421029E-2,-9.162709117E-3
1.558759529E0,3.481829539E-2,-7.879929990E-2,-7.941014133E-3
1.561141820E0,3.481829539E-2,-7.879929990E-2,-7.941014133E-3
1.563524112E0,3.359659761E-2,-8.002099395E-2,-9.162709117E-3
1.565906404E0,3.481829539E-2,-7.635590434E-2,-9.162709117E-3
1.568288695E0,3.359659761E-2,-7.269082218E-2,-1.038440317E-2
1.570671039E0,3.237490356E-2,-6.780404598E-2,-7.941014133E-3
1.573053331E0,2.855710872E-2,-6.306997687E-2,-1.175880991E-2
1.575435623E0,2.855710872E-2,-5.573981255E-2,-1.053711493E-2
1.577817914E0,2.473931387E-2,-4.963133857E-2,-1.175880991E-2
1.580200206E0,2.596100792E-2,-4.245388508E-2,-1.298050396E-2
1.582582498E0,2.580829710E-2,-3.512371704E-2,-1.542389300E-2
1.584964789E0,2.458660305E-2,-2.916795574E-2,-1.542389300E-2
1.587347081E0,2.092151903E-2,-2.550287358E-2,-1.542389300E-2
1.589729373E0,1.710372418E-2,-2.183778957E-2,-1.435491070E-2
1.592111716E0,1.466033421E-2,-1.588202827E-2,-1.801999472E-2
1.594494008E0,1.084253844E-2,-1.832541823E-2,-1.801999472E-2
1.596876300E0,8.399149403E-3,-1.832541823E-2,-1.801999472E-2
1.599258591E0,4.734066315E-3,-1.221694518E-2,-1.679829881E-2
1.601640883E0,3.512371797E-3,-1.588202827E-2,-1.557660475E-2
1.604023175E0,2.290677279E-3,-1.466033421E-2,-1.557660475E-2
1.606405466E0,-3.054236295E-4,-1.466033421E-2,-1.801999472E-2
1.608787758E0,-3.970507067E-3,-1.221694518E-2,-1.801999472E-2
1.611170050E0,-3.970507067E-3,-1.221694518E-2,-1.801999472E-2
1.613552393E0,-3.970507067E-3,-1.099525020E-2,-1.679829881E-2
1.615934685E0,-6.566607859E-3,-1.114796288E-2,-1.801999472E-2
1.618316977E0,-6.566607859E-3,-8.704573847E-3,-2.046338283E-2
1.620699268E0,-7.788302377E-3,-6.261184346E-3,-1.924168877E-2
1.623081560E0,-7.788302377E-3,-6.261184346E-3,-1.924168877E-2
1.625463852E0,-9.009997360E-3,-2.596100792E-3,-1.939439960E-2
1.627846143E0,-9.009997360E-3,-2.596100792E-3,-2.061609551E-2
1.630228435E0,-9.009997360E-3,-5.039489828E-3,-2.183778957E-2
1.632610727E0,-9.009997360E-3,-2.596100792E-3,-2.061609551E-2
1.634993070E0,-9.009997360E-3,1.068982761E-3,-2.061609551E-2
1.637375362E0,-6.566607859E-3,-1.527118147E-4,-2.305948362E-2
1.639757654E0,-4.123218823E-3,-2.596100792E-3,-2.046338283E-2
1.642139945E0,-4.123218823E-3,-3.817795310E-3,-2.168507688E-2
1.644522237E0,-1.679830020E-3,-2.596100792E-3,-2.290677279E-2
1.646904529E0,-3.054236295E-4,-1.527118147E-4,-2.168507688E-2
1.649286820E0,9.162708884E-4,-1.527118147E-4,-2.168507688E-2
1.651669112E0,3.359660041E-3,-1.527118147E-4,-2.168507688E-2
1.654051404E0,4.581354558E-3,-1.527118147E-4,-2.168507688E-2
1.656433695E0,8.246437646E-3,-1.374406274E-3,-2.046338283E-2
1.658816039E0,9.620844387E-3,-1.374406274E-3,-2.168507688E-2
1.661198331E0,9.620844387E-3,-2.596100792E-3,-2.046338283E-2
1.663580623E0,1.206423342E-2,-1.221694518E-3,-1.801999472E-2
1.665962914E0,1.450762246E-2,-1.221694518E-3,-1.924168877E-2
1.668345206E0,1.572931744E-2,1.221694518E-3,-1.801999472E-2
1.670727498E0,1.954711229E-2,1.221694518E-3,-1.679829881E-2
1.673109789E0,2.076880634E-2,1.221694518E-3,-1.313321572E-2
1.675492081E0,2.199050039E-2,1.221694518E-3,-1.191152167E-2
1.677874425E0,2.076880634E-2,1.221694518E-3,-1.068982668E-2
1.680256716E0,2.321219631E-2,4.886778072E-3,-1.191152167E-2
1.682639008E0,2.321219631E-2,7.330167107E-3,-9.468132630E-3
1.685021300E0,2.321219631E-2,7.330167107E-3,-8.246437646E-3
1.687403591E0,2.199050039E-2,8.551862091E-3,-8.246437646E-3
1.689785883E0,2.321219631E-2,9.773556143E-3,-7.024743594E-3
1.692168175E0,2.076880634E-2,1.099525020E-2,-5.803049076E-3
1.694550466E0,2.076880634E-2,1.099525020E-2,-7.024743594E-3
1.696932758E0,2.076880634E-2,1.099525020E-2,-5.803049076E-3
1.699315102E0,2.076880634E-2,1.099525020E-2,-4.581354558E-3
1.701697393E0,1.832541823E-2,1.099525020E-2,-2.137965523E-3
1.704079685E0,1.832541823E-2,9.773556143E-3,-3.359660041E-3
1.706461977E0,1.954711229E-2,8.551862091E-3,-4.581354558E-3
1.708844268E0,1.710372418E-2,7.330167107E-3,-2.137965523E-3
1.711226560E0,1.588202827E-2,7.330167107E-3,-2.137965523E-3
1.713608852E0,1.710372418E-2,7.330167107E-3,-4.581354558E-3
1.715991143E0,1.588202827E-2,6.108472589E-3,-3.359660041E-3
1.718373435E0,1.832541823E-2,6.108472589E-3,-2.137965523E-3
1.720755779E0,1.710372418E-2,6.108472589E-3,-3.359660041E-3
1.723138070E0,1.572931744E-2,8.551862091E-3,-4.581354558E-3
1.725520362E0,1.572931744E-2,9.773556143E-3,-8.246437646E-3
1.727902654E0,1.695101149E-2,1.099525020E-2,-8.246437646E-3
1.730284945E0,1.954711229E-2,9.773556143E-3,-8.246437646E-3
1.732667237E0,2.076880634E-2,9.773556143E-3,-9.468132630E-3
1.735049529E0,1.954711229E-2,9.773556143E-3,-1.068982668E-2
1.737431820E0,2.199050039E-2,7.330167107E-3,-1.191152167E-2
1.739814112E0,2.321219631E-2,9.773556143E-3,-1.313321572E-2
1.742196456E0,2.443389036E-2,9.773556143E-3,-1.191152167E-2
1.744578748E0,2.443389036E-2,4.886778072E-3,-1.191152167E-2
1.746961039E0,2.687728032E-2,2.443389036E-3,-1.191152167E-2
1.749343331E0,2.825168520E-2,-2.443389036E-3,-1.068982668E-2
1.751725623E0,2.947338112E-2,-5.955760833E-3,-1.191152167E-2
1.754107914E0,3.069507517E-2,-9.620844387E-3,-9.315420873E-3
1.756490206E0,3.191677108E-2,-1.206423342E-2,-1.053711493E-2
1.758872498E0,3.069507517E-2,-1.328592747E-2,-9.315420873E-3
1.761254789E0,3.084778599E-2,-1.450762246E-2,-5.650337320E-3
1.763637133E0,3.084778599E-2,-1.695101149E-2,-4.428642802E-3
1.766019425E0,2.962609194E-2,-1.924168877E-2,-3.206948051E-3
1.768401716E0,2.718270384E-2,-2.046338283E-2,-3.206948051E-3
1.770784008E0,2.840439789E-2,-2.046338283E-2,-3.206948051E-3
1.773166300E0,2.596100792E-2,-2.046338283E-2,4.581354442E-4
1.775548591E0,2.718270384E-2,-2.168507688E-2,-7.635590737E-4
1.777930883E0,2.336490713E-2,-2.290677279E-2,1.679830020E-3
1.780313175E0,2.092151903E-2,-2.535016090E-2,4.123218823E-3
1.782695466E0,1.969982497E-2,-2.779355086E-2,2.901524538E-3
1.785077810E0,1.725643501E-2,-2.779355086E-2,4.123218823E-3
1.787460102E0,1.847812906E-2,-3.145863488E-2,6.566607859E-3
1.789842393E0,1.863084175E-2,-3.634541109E-2,5.344913341E-3
1.792224685E0,1.985253580E-2,-3.985778242E-2,7.788302377E-3
1.794606977E0,2.107422985E-2,-4.230117425E-2,6.566607859E-3
1.796989268E0,1.985253580E-2,-4.718795046E-2,7.788302377E-3
1.799371560E0,1.985253580E-2,-4.840964451E-2,9.009997360E-3
1.801753852E0,2.244863659E-2,-5.207473040E-2,7.941014133E-3
1.804136143E0,2.244863659E-2,-5.451811850E-2,6.719320081E-3
1.806518487E0,2.367033064E-2,-5.680879578E-2,9.162709117E-3
1.808900779E0,2.367033064E-2,-5.803048983E-2,6.719320081E-3
1.811283070E0,2.367033064E-2,-5.803048983E-2,5.497625098E-3
1.813665362E0,2.489202656E-2,-5.925218388E-2,6.719320081E-3
1.816047654E0,2.611372061E-2,-5.803048983E-2,6.719320081E-3
1.818429945E0,2.733541466E-2,-5.925218388E-2,5.497625098E-3
1.820812237E0,2.855710872E-2,-5.558710173E-2,5.497625098E-3
1.823194529E0,2.855710872E-2,-5.436540768E-2,5.497625098E-3
1.825576873E0,2.977880463E-2,-5.085303262E-2,1.679830020E-3
1.827959164E0,2.733541466E-2,-5.207473040E-2,1.679830020E-3
1.830341456E0,2.977880463E-2,-5.085303262E-2,1.679830020E-3
1.832723748E0,2.977880463E-2,-4.963133857E-2,1.679830020E-3
1.835106039E0,2.733541466E-2,-4.963133857E-2,4.581354442E-4
1.837488331E0,2.611372061E-2,-5.207473040E-2,-7.635590737E-4
1.839870623E0,2.489202656E-2,-5.329642445E-2,-1.985253533E-3
1.842252914E0,2.473931387E-2,-5.329642445E-2,-3.206948051E-3
1.844635206E0,2.229592577E-2,-5.329642445E-2,-3.206948051E-3
1.847017498E0,2.351761982E-2,-5.451811850E-2,-1.985253533E-3
1.849399841E0,2.229592577E-2,-5.696150661E-2,-1.985253533E-3
1.851782133E0,2.244863659E-2,-6.062658876E-2,-7.635590737E-4
1.854164425E0,2.367033064E-2,-5.940489471E-2,-7.635590737E-4
1.856546716E0,2.367033064E-2,-6.413896382E-2,6.108472589E-4
1.858929008E0,2.489202656E-2,-6.413896382E-2,3.054236295E-3
1.861311300E0,2.611372061E-2,-6.658235192E-2,3.054236295E-3
1.863693591E0,2.611372061E-2,-7.024743408E-2,4.275931045E-3
1.866075883E0,2.626643144E-2,-7.146912813E-2,5.497625098E-3
1.868458227E0,2.626643144E-2,-7.269082218E-2,6.719320081E-3
1.870840518E0,2.748812735E-2,-7.498150319E-2,9.162709117E-3
1.873222810E0,2.993151546E-2,-7.498150319E-2,1.038440317E-2
1.875605102E0,2.748812735E-2,-7.375980914E-2,1.160609815E-2
1.877987393E0,2.626643144E-2,-7.620319724E-2,1.404948719E-2
1.880369685E0,2.626643144E-2,-7.742489129E-2,1.404948719E-2
1.882751977E0,2.626643144E-2,-7.620319724E-2,1.527118124E-2
1.885134268E0,2.382304333E-2,-7.375980914E-2,1.771457121E-2
1.887516560E0,2.137965336E-2,-7.375980914E-2,1.893626526E-2
1.889898852E0,2.015795931E-2,-7.253811508E-2,2.137965336E-2
1.892281195E0,1.878355257E-2,-7.253811508E-2,2.137965336E-2
1.894663487E0,1.634016447E-2,-6.902574003E-2,2.260134928E-2
1.897045779E0,1.389677543E-2,-6.780404598E-2,2.260134928E-2
1.899428070E0,1.145338640E-2,-6.658235192E-2,2.260134928E-2
1.901810362E0,1.145338640E-2,-6.658235192E-2,2.015795931E-2
1.904192654E0,1.130067464E-2,-6.413896382E-2,2.137965336E-2
1.906574945E0,1.007897966E-2,-5.925218388E-2,2.015795931E-2
1.908957237E0,1.007897966E-2,-6.047387794E-2,2.137965336E-2
1.911339581E0,1.007897966E-2,-5.925218388E-2,2.137965336E-2
1.913721873E0,1.130067464E-2,-5.925218388E-2,1.893626526E-2
1.916104164E0,1.130067464E-2,-5.558710173E-2,2.137965336E-2
1.918486456E0,1.252236869E-2,-5.925218388E-2,2.137965336E-2
1.920868748E0,1.389677543E-2,-6.047387794E-2,2.137965336E-2
1.923251039E0,1.511846948E-2,-6.169557199E-2,2.137965336E-2
1.925633331E0,1.756185852E-2,-6.291726977E-2,2.137965336E-2
1.928015623E0,1.878355257E-2,-6.658235192E-2,2.260134928E-2
1.930397914E0,2.137965336E-2,-6.780404598E-2,2.260134928E-2
1.932780258E0,2.260134928E-2,-7.009471953E-2,2.260134928E-2
1.935162550E0,2.382304333E-2,-7.253811508E-2,2.260134928E-2
1.937544841E0,2.382304333E-2,-7.498150319E-2,2.015795931E-2
1.939927133E0,2.382304333E-2,-8.108997345E-2,2.260134928E-2
1.942309425E0,2.764083818E-2,-8.231166750E-2,2.260134928E-2
1.944691716E0,2.641914412E-2,-8.475505561E-2,2.015795931E-2
1.947074008E0,2.641914412E-2,-8.719844371E-2,1.771457121E-2
1.949456300E0,2.519745007E-2,-8.964183182E-2,1.771457121E-2
1.951838591E0,2.382304333E-2,-8.964183182E-2,1.771457121E-2
1.954220935E0,2.519745007E-2,-9.315420687E-2,1.893626526E-2
1.956603227E0,2.519745007E-2,-9.437590092E-2,1.893626526E-2
1.958985518E0,2.260134928E-2,-9.559759498E-2,1.771457121E-2
1.961367810E0,2.260134928E-2,-9.437590092E-2,1.771457121E-2
1.963750102E0,2.015795931E-2,-9.437590092E-2,1.893626526E-2
1.966132393E0,1.893626526E-2,-9.559759498E-2,1.893626526E-2
1.968514685E0,1.893626526E-2,-9.330692142E-2,1.893626526E-2
1.970896977E0,1.771457121E-2,-9.208522737E-2,2.015795931E-2
1.973279268E0,1.649287529E-2,-8.964183182E-2,2.015795931E-2
1.975661612E0,1.649287529E-2,-8.964183182E-2,2.015795931E-2
1.978043904E0,1.771457121E-2,-8.475505561E-2,2.137965336E-2
1.980426195E0,1.511846948E-2,-8.108997345E-2,2.260134928E-2
1.982808487E0,1.511846948E-2,-8.108997345E-2,2.260134928E-2
1.985190779E0,1.389677543E-2,-8.108997345E-2,2.137965336E-2
1.987573070E0,1.389677543E-2,-7.742489129E-2,2.260134928E-2
1.989955362E0,1.389677543E-2,-7.498150319E-2,2.382304333E-2
1.992337654E0,1.389677543E-2,-7.391251624E-2,2.260134928E-2
1.994719998E0,1.511846948E-2,-7.253811508E-2,2.382304333E-2
1.997102289E0,1.267508045E-2,-7.146912813E-2,2.260134928E-2
1.999484581E0,1.267508045E-2,-7.269082218E-2,2.260134928E-2
2.001866873E0,1.389677543E-2,-7.269082218E-2,2.137965336E-2
2.004249164E0,1.389677543E-2,-7.146912813E-2,2.137965336E-2
2.006631456E0,1.511846948E-2,-7.146912813E-2,2.260134928E-2
2.009013748E0,1.756185852E-2,-7.269082218E-2,2.015795931E-2
2.011396039E0,1.634016447E-2,-7.391251624E-2,1.893626526E-2
2.013778331E0,1.634016447E-2,-7.498150319E-2,1.893626526E-2
2.016160675E0,1.756185852E-2,-7.498150319E-2,1.771457121E-2
2.018542966E0,1.756185852E-2,-7.620319724E-2,1.771457121E-2
2.020925258E0,1.756185852E-2,-7.742489129E-2,1.649287529E-2
2.023307550E0,1.878355257E-2,-7.986827940E-2,1.527118124E-2
2.025689841E0,2.015795931E-2,-8.353336155E-2,1.649287529E-2
2.028072133E0,2.015795931E-2,-8.353336155E-2,1.404948719E-2
2.030454425E0,2.015795931E-2,-8.719844371E-2,1.282779220E-2
2.032836716E0,2.015795931E-2,-8.964183182E-2,1.160609815E-2
2.035219060E0,2.015795931E-2,-9.208522737E-2,1.282779220E-2
2.037601352E0,2.015795931E-2,-9.330692142E-2,1.282779220E-2
2.039983643E0,2.137965336E-2,-9.575030953E-2,1.160609815E-2
2.042365935E0,2.137965336E-2,-9.926267713E-2,1.038440317E-2
2.044748227E0,2.260134928E-2,-1.029277667E-1,1.038440317E-2
2.047130518E0,2.397575416E-2,-1.029277667E-1,1.160609815E-2
2.049512810E0,2.519745007E-2,-1.053711548E-1,1.175880991E-2
2.051895102E0,2.641914412E-2,-1.078145429E-1,1.175880991E-2
2.054277393E0,2.764083818E-2,-1.090362370E-1,1.175880991E-2
2.056659737E0,3.145863488E-2,-1.090362370E-1,1.175880991E-2
2.059042029E0,3.268032894E-2,-1.125486046E-1,1.298050396E-2
2.061424320E0,3.512371704E-2,-1.137702987E-1,1.298050396E-2
2.063806612E0,3.756710514E-2,-1.137702987E-1,1.420219894E-2
2.066188904E0,4.016320780E-2,-1.162136942E-1,1.542389300E-2
2.068571195E0,4.504998401E-2,-1.186570823E-1,1.664558798E-2
2.070953487E0,4.627167806E-2,-1.174353883E-1,1.542389300E-2
2.073335779E0,4.886778072E-2,-1.172826737E-1,1.786728203E-2
2.075718070E0,5.253286287E-2,-1.185043678E-1,1.786728203E-2
2.078100362E0,5.619794875E-2,-1.172826737E-1,1.664558798E-2
2.080482706E0,5.879404768E-2,-1.197260618E-1,1.679829881E-2
2.082864998E0,6.245913357E-2,-1.209477559E-1,1.679829881E-2
2.085247289E0,6.749862432E-2,-1.197260618E-1,1.924168877E-2
2.087629581E0,7.116370648E-2,-1.220167428E-1,1.924168877E-2
2.090011873E0,7.360709459E-2,-1.232384369E-1,1.924168877E-2
2.092394164E0,7.482878864E-2,-1.244601309E-1,1.801999472E-2
2.094776456E0,7.864658535E-2,-1.220167428E-1,1.801999472E-2
2.097158748E0,7.864658535E-2,-1.207950488E-1,2.046338283E-2
2.099541091E0,7.864658535E-2,-1.220167428E-1,1.679829881E-2
2.101923383E0,7.864658535E-2,-1.207950488E-1,1.557660475E-2
2.104305675E0,7.986827940E-2,-1.183516532E-1,1.557660475E-2
2.106687966E0,7.986827940E-2,-1.159082651E-1,1.679829881E-2
2.109070258E0,7.727217674E-2,-1.159082651E-1,1.801999472E-2
2.111452550E0,7.605048269E-2,-1.136175916E-1,1.801999472E-2
2.113834841E0,7.360709459E-2,-1.111742035E-1,1.801999472E-2
2.116217133E0,7.238540053E-2,-1.087308154E-1,1.679829881E-2
2.118599425E0,6.978929788E-2,-1.062874198E-1,1.679829881E-2
2.120981768E0,6.734590977E-2,-1.038440317E-1,1.786728203E-2
2.123364060E0,6.368082762E-2,-1.015533581E-1,1.664558798E-2
2.125746352E0,5.864133686E-2,-1.027750522E-1,1.664558798E-2
2.128128643E0,5.619794875E-2,-1.003316641E-1,1.664558798E-2
2.130510935E0,5.741964281E-2,-9.910997003E-2,1.542389300E-2
2.132893227E0,5.360184610E-2,-9.788827598E-2,1.664558798E-2
2.135275518E0,5.360184610E-2,-9.666658193E-2,1.420219894E-2
2.137657810E0,5.360184610E-2,-9.300149232E-2,1.542389300E-2
2.140040154E0,5.238015205E-2,-9.193251282E-2,1.664558798E-2
2.142422445E0,5.360184610E-2,-9.422318637E-2,1.420219894E-2
2.144804737E0,5.482354015E-2,-9.300149232E-2,1.542389300E-2
2.147187029E0,5.482354015E-2,-9.193251282E-2,1.298050396E-2
2.149569320E0,5.604523420E-2,-9.071081877E-2,1.420219894E-2
2.151951612E0,5.482354015E-2,-9.193251282E-2,1.175880991E-2
2.154333904E0,5.604523420E-2,-9.300149232E-2,1.420219894E-2
2.156716195E0,5.741964281E-2,-9.422318637E-2,1.542389300E-2
2.159098487E0,5.482354015E-2,-9.544488788E-2,1.542389300E-2
2.161480831E0,5.619794875E-2,-9.788827598E-2,1.420219894E-2
2.163863123E0,5.497625470E-2,-9.910997003E-2,1.542389300E-2
2.166245414E0,5.238015205E-2,-1.003316641E-1,1.420219894E-2
2.168627706E0,5.238015205E-2,-1.027750522E-1,1.298050396E-2
2.171009998E0,5.115845799E-2,-1.052184403E-1,1.175880991E-2
2.173392289E0,5.375456065E-2,-1.052184403E-1,1.298050396E-2
2.175774581E0,5.238015205E-2,-1.076618284E-1,1.053711493E-2
2.178156873E0,5.253286287E-2,-1.113269106E-1,1.053711493E-2
2.180539216E0,5.253286287E-2,-1.125486046E-1,8.093725890E-3
2.182921508E0,5.497625470E-2,-1.149920002E-1,8.093725890E-3
2.185303800E0,5.497625470E-2,-1.186570823E-1,6.872031838E-3
2.187686091E0,5.619794875E-2,-1.209477559E-1,4.428642802E-3
2.190068383E0,5.619794875E-2,-1.221694499E-1,3.206948051E-3
2.192450675E0,5.864133686E-2,-1.246128380E-1,7.635590737E-4
2.194832966E0,6.123743951E-2,-1.282779276E-1,-1.679830020E-3
2.197215258E0,6.245913357E-2,-1.294996142E-1,-2.901524538E-3
2.199597550E0,6.490252167E-2,-1.307213157E-1,-4.123218823E-3
2.201979893E0,6.734590977E-2,-1.307213157E-1,-2.901524538E-3
2.204362185E0,6.856760383E-2,-1.343863904E-1,-5.192201585E-3
2.206744477E0,7.116370648E-2,-1.380514801E-1,-6.413896102E-3
2.209126768E0,7.360709459E-2,-1.378987730E-1,-5.192201585E-3
2.211509060E0,7.482878864E-2,-1.403421611E-1,-3.970507067E-3
2.213891352E0,7.605048269E-2,-1.403421611E-1,-5.192201585E-3
2.216273643E0,7.849387079E-2,-1.378987730E-1,-3.970507067E-3
2.218655935E0,7.849387079E-2,-1.378987730E-1,-3.970507067E-3
2.221038279E0,7.986827940E-2,-1.378987730E-1,-3.970507067E-3
2.223420570E0,8.093725890E-2,-1.342336833E-1,-6.413896102E-3
2.225802862E0,7.849387079E-2,-1.317902952E-1,-5.192201585E-3
2.228185154E0,7.605048269E-2,-1.307213157E-1,-6.413896102E-3
2.230567445E0,7.482878864E-2,-1.282779276E-1,-9.009997360E-3
2.232949737E0,7.223268598E-2,-1.233911440E-1,-1.023169141E-2
2.235332029E0,6.978929788E-2,-1.221694499E-1,-1.145338640E-2
2.237714320E0,6.719319522E-2,-1.174353883E-1,-1.145338640E-2
2.240096612E0,6.352811307E-2,-1.162136942E-1,-1.145338640E-2
2.242478956E0,6.108472496E-2,-1.174353883E-1,-1.267508045E-2
2.244861248E0,5.482354015E-2,-1.139230132E-1,-1.511846948E-2
2.247243539E0,5.115845799E-2,-1.127013192E-1,-1.634016447E-2
2.249625831E0,4.611896724E-2,-1.139230132E-1,-1.649287529E-2
2.252008123E0,4.245388508E-2,-1.102579311E-1,-1.527118124E-2
2.254390414E0,3.863608837E-2,-1.102579311E-1,-1.893626526E-2
2.256772706E0,3.374931216E-2,-1.091889441E-1,-1.771457121E-2
2.259154998E0,3.115320951E-2,-1.067455560E-1,-1.893626526E-2
2.261537289E0,2.870982140E-2,-1.043021679E-1,-1.893626526E-2
2.263919633E0,2.748812735E-2,-1.030804738E-1,-1.893626526E-2
2.266301925E0,2.489202656E-2,-9.941539168E-2,-2.137965336E-2
2.268684216E0,2.367033064E-2,-9.819369763E-2,-2.015795931E-2
2.271066508E0,2.244863659E-2,-9.712471068E-2,-2.260134928E-2
2.273448800E0,2.489202656E-2,-9.468132257E-2,-2.137965336E-2
2.275831091E0,2.611372061E-2,-9.468132257E-2,-2.137965336E-2
2.278213383E0,2.870982140E-2,-9.345962852E-2,-2.015795931E-2
2.280595675E0,2.870982140E-2,-9.223793447E-2,-2.015795931E-2
2.282978018E0,2.993151546E-2,-8.857285231E-2,-1.893626526E-2
2.285360310E0,3.359659761E-2,-8.735115826E-2,-1.893626526E-2
2.287742602E0,3.603998944E-2,-8.490777016E-2,-1.771457121E-2
2.290124893E0,3.970507160E-2,-8.124268800E-2,-1.771457121E-2
2.292507185E0,4.337015375E-2,-7.635590434E-2,-1.771457121E-2
2.294889477E0,4.718795046E-2,-7.269082218E-2,-1.893626526E-2
2.297271768E0,5.207473040E-2,-6.780404598E-2,-2.137965336E-2
2.299654060E0,5.818320066E-2,-6.658235192E-2,-2.137965336E-2
2.302036352E0,6.566607952E-2,-6.047387794E-2,-2.504473738E-2
2.304418695E0,6.933116168E-2,-5.680879578E-2,-2.626643144E-2
2.306800987E0,7.299624383E-2,-5.680879578E-2,-2.626643144E-2
2.309183279E0,7.925742865E-2,-5.558710173E-2,-2.870982140E-2
2.311565570E0,8.414421231E-2,-5.070032179E-2,-2.870982140E-2
2.313947862E0,9.040539712E-2,-4.825693369E-2,-3.115320951E-2
2.316330154E0,9.284878522E-2,-5.070032179E-2,-3.359659761E-2
2.318712445E0,9.651386738E-2,-4.825693369E-2,-3.237490356E-2
2.321094737E0,9.773556143E-2,-4.703523964E-2,-3.237490356E-2
2.323477081E0,1.015533581E-1,-4.581354558E-2,-3.115320951E-2
2.325859373E0,1.039967462E-1,-4.459185153E-2,-3.237490356E-2
2.328241664E0,1.038440317E-1,-4.092676565E-2,-3.481829539E-2
2.330623956E0,1.038440317E-1,-3.848337755E-2,-3.115320951E-2
2.333006248E0,1.038440317E-1,-3.726168349E-2,-3.359659761E-2
2.335388539E0,1.026223376E-1,-3.359659761E-2,-3.237490356E-2
2.337770831E0,1.001789495E-1,-2.764083818E-2,-3.115320951E-2
2.340153123E0,9.758284688E-2,-2.397575416E-2,-3.115320951E-2
2.342535414E0,9.513945878E-2,-1.664558798E-2,-3.130592033E-2
2.344917758E0,9.132166207E-2,-1.191152167E-2,-3.252761811E-2
2.347300050E0,9.009996802E-2,-9.468132630E-3,-3.130592033E-2
2.349682341E0,8.765657991E-2,-3.359660041E-3,-3.374931216E-2
2.352064633E0,8.383878320E-2,-2.137965523E-3,-3.374931216E-2
2.354446925E0,8.139539510E-2,1.374406274E-3,-3.497100621E-2
2.356829216E0,7.635590434E-2,1.374406274E-3,-3.741439432E-2
2.359211508E0,7.513421029E-2,3.817795310E-3,-3.985778242E-2
2.361593800E0,7.391251624E-2,6.261184346E-3,-4.123219103E-2
2.363976091E0,7.009471953E-2,4.886778072E-3,-4.367557913E-2
2.366358435E0,6.765133142E-2,2.443389036E-3,-4.367557913E-2
2.368740727E0,6.261184067E-2,3.665083554E-3,-4.856235534E-2
2.371123018E0,6.139015034E-2,1.221694518E-3,-4.978405312E-2
2.373505310E0,5.772506446E-2,-2.443389036E-3,-5.222744122E-2
2.375887602E0,5.528167635E-2,-6.108472589E-3,-5.711421743E-2
2.378269893E0,4.902049154E-2,-7.330167107E-3,-5.833591148E-2
2.380652185E0,4.779879749E-2,-1.099525020E-2,-5.955760926E-2
2.383034529E0,4.291202128E-2,-1.221694518E-2,-6.200099736E-2
2.385416820E0,3.909422457E-2,-1.588202827E-2,-6.322269142E-2
2.387799112E0,3.542914242E-2,-2.076880634E-2,-6.566607952E-2
2.390181404E0,3.176405653E-2,-2.199050039E-2,-6.688777357E-2
2.392563695E0,2.932066843E-2,-2.565558441E-2,-6.810946763E-2
2.394945987E0,2.794626169E-2,-2.809897438E-2,-6.810946763E-2
2.397328279E0,2.305948362E-2,-3.420744836E-2,-6.810946763E-2
2.399710570E0,1.695101149E-2,-3.787253052E-2,-6.933116168E-2
2.402092862E0,1.450762246E-2,-4.153761268E-2,-6.933116168E-2
2.404475206E0,1.084253844E-2,-4.886778072E-2,-6.933116168E-2
2.406857498E0,5.803049076E-3,-5.497625470E-2,-6.810946763E-2
2.409239789E0,9.162708884E-4,-6.826218218E-2,-6.688777357E-2
2.411622081E0,-1.527118147E-3,-7.925742865E-2,-6.810946763E-2
2.414004373E0,-7.635590620E-3,-8.903098851E-2,-6.688777357E-2
2.416386664E0,-1.007897966E-2,-9.743013978E-2,-6.688777357E-2
2.418768956E0,-1.496575773E-2,-1.108687744E-1,-6.566607952E-2
2.421151248E0,-2.107422985E-2,-1.204896197E-1,-6.444438547E-2
2.423533539E0,-2.596100792E-2,-1.327065676E-1,-6.200099736E-2
2.425915883E0,-3.084778599E-2,-1.424801201E-1,-6.062658876E-2
2.428298175E0,-3.939964995E-2,-1.510319859E-1,-5.940489471E-2
2.430680466E0,-4.566083103E-2,-1.618745178E-1,-5.573981255E-2
2.433062758E0,-5.176930502E-2,-1.704263836E-1,-5.329642445E-2
2.435445050E0,-6.032116711E-2,-1.777565479E-1,-5.329642445E-2
2.437827341E0,-6.642963737E-2,-1.861557066E-1,-4.963133857E-2
2.440209633E0,-7.391251624E-2,-1.934858710E-1,-4.596625641E-2
2.442591925E0,-8.002099395E-2,-1.983726472E-1,-4.230117425E-2
2.444974268E0,-8.994726092E-2,-2.020377368E-1,-3.741439432E-2
2.447356560E0,-9.849911928E-2,-2.093679011E-1,-3.374931216E-2
2.449738852E0,-1.047603041E-1,-2.118112892E-1,-3.252761811E-2
2.452121143E0,-1.108687744E-1,-2.093679011E-1,-3.008422814E-2
2.454503435E0,-1.146865711E-1,-2.057028115E-1,-2.641914412E-2
2.456885727E0,-1.133121699E-1,-2.020377368E-1,-2.397575416E-2
2.459268018E0,-1.159082651E-1,-1.985253543E-1,-2.031067200E-2
2.461650310E0,-1.171299592E-1,-1.948602796E-1,-1.908897609E-2
2.464032654E0,-1.171299592E-1,-1.875301152E-1,-2.168507688E-2
2.466414945E0,-1.122431830E-1,-1.789782494E-1,-1.924168877E-2
2.468797237E0,-1.134648770E-1,-1.789782494E-1,-2.046338283E-2
2.471179529E0,-1.122431830E-1,-1.705790907E-1,-2.168507688E-2
2.473561820E0,-1.110214889E-1,-1.644706279E-1,-2.168507688E-2
2.475944112E0,-1.073564067E-1,-1.559187621E-1,-2.290677279E-2
2.478326404E0,-1.049130186E-1,-1.475196183E-1,-2.290677279E-2
2.480708695E0,-1.026223376E-1,-1.401894391E-1,-2.535016090E-2
2.483091039E0,-1.001789495E-1,-1.293469071E-1,-2.657185495E-2
2.485473331E0,-9.651386738E-2,-1.207950488E-1,-2.657185495E-2
2.487855623E0,-9.284878522E-2,-1.134648770E-1,-3.023693897E-2
2.490237914E0,-9.162709117E-2,-1.014006436E-1,-3.527642787E-2
2.492620206E0,-9.300149232E-2,-9.529217333E-2,-3.649812192E-2
2.495002498E0,-9.177979827E-2,-8.933641016E-2,-3.894151375E-2
2.497384789E0,-9.177979827E-2,-8.078455180E-2,-4.382828996E-2
2.499767081E0,-9.055810422E-2,-7.360709459E-2,-4.627167806E-2
2.502149425E0,-8.948912472E-2,-6.872031838E-2,-5.131116882E-2
2.504531716E0,-9.193251282E-2,-6.139015034E-2,-5.497625470E-2
2.506914008E0,-9.575030953E-2,-5.421269313E-2,-5.619794875E-2
2.509296300E0,-9.834641218E-2,-4.932591692E-2,-5.864133686E-2
2.511678591E0,-1.020114943E-1,-4.703523964E-2,-6.352811307E-2
2.514060883E0,-1.058292910E-1,-4.214845970E-2,-6.734590977E-2
2.516443175E0,-1.107160673E-1,-3.863608837E-2,-6.856760383E-2
2.518825466E0,-1.145338640E-1,-3.741439432E-2,-7.223268598E-2
2.521207758E0,-1.183516532E-1,-3.741439432E-2,-7.711946964E-2
2.523590102E0,-1.207950488E-1,-3.741439432E-2,-8.078455180E-2
2.525972393E0,-1.256818175E-1,-4.001049697E-2,-8.322793990E-2
2.528354685E0,-1.294996142E-1,-3.878879920E-2,-8.582404256E-2
2.530736977E0,-1.343863904E-1,-4.123219103E-2,-8.948912472E-2
2.533119268E0,-1.369825006E-1,-4.367557913E-2,-9.071081877E-2
2.535501560E0,-1.406475753E-1,-4.734066129E-2,-9.193251282E-2
2.537883852E0,-1.481304616E-1,-5.222744122E-2,-9.437590092E-2
2.540266143E0,-1.566823274E-1,-5.467082933E-2,-9.681928903E-2
2.542648435E0,-1.666085869E-1,-5.971032009E-2,-9.804098308E-2
2.545030779E0,-1.765348613E-1,-6.459710002E-2,-9.804098308E-2
2.547413070E0,-1.876828223E-1,-6.948387623E-2,-9.804098308E-2
2.549795362E0,-2.000524700E-1,-7.559234649E-2,-9.941539168E-2
2.552177654E0,-2.099787444E-1,-7.925742865E-2,-1.018587798E-1
2.554559945E0,-2.235700935E-1,-8.307522535E-2,-1.018587798E-1
2.556942237E0,-2.359397560E-1,-9.040539712E-2,-1.030804738E-1
2.559324529E0,-2.507528067E-1,-9.529217333E-2,-1.043021679E-1
2.561706820E0,-2.619007528E-1,-1.014006436E-1,-1.081199646E-1
2.564089164E0,-2.768665254E-1,-1.062874198E-1,-1.093416587E-1
2.566471456E0,-2.866400778E-1,-1.088835225E-1,-1.105633527E-1
2.568853748E0,-2.991624475E-1,-1.149920002E-1,-1.142284349E-1
2.571236039E0,-3.127537966E-1,-1.198787764E-1,-1.130067408E-1
2.573618331E0,-3.213056624E-1,-1.235438585E-1,-1.154501289E-1
2.576000623E0,-3.350497186E-1,-1.236965731E-1,-1.156028435E-1
2.578382914E0,-3.474193811E-1,-1.273616552E-1,-1.168245375E-1
2.580765206E0,-3.573456407E-1,-1.287360638E-1,-1.192679256E-1
2.583147550E0,-3.697153032E-1,-1.324011385E-1,-1.180462316E-1
2.585529841E0,-3.771981895E-1,-1.348445266E-1,-1.192679256E-1
2.587912133E0,-3.883461356E-1,-1.372879148E-1,-1.194206402E-1
2.590294425E0,-3.944546282E-1,-1.360662282E-1,-1.181989461E-1
2.592676716E0,-4.019374847E-1,-1.385096163E-1,-1.157555580E-1
2.595059008E0,-4.080459774E-1,-1.433963925E-1,-1.133121699E-1
2.597441300E0,-4.129327536E-1,-1.433963925E-1,-1.108687744E-1
2.599823591E0,-4.153761268E-1,-1.433963925E-1,-1.072036922E-1
2.602205935E0,-4.153761268E-1,-1.446180940E-1,-1.047603041E-1
2.604588227E0,-4.165978432E-1,-1.433963925E-1,-1.023169160E-1
2.606970518E0,-4.153761268E-1,-1.409530044E-1,-9.743013978E-2
2.609352810E0,-4.141544402E-1,-1.385096163E-1,-9.376505762E-2
2.611735102E0,-4.117110670E-1,-1.360662282E-1,-8.994726092E-2
2.614117393E0,-4.066715539E-1,-1.348445266E-1,-8.506047726E-2
2.616499685E0,-4.017847776E-1,-1.311794519E-1,-8.139539510E-2
2.618881977E0,-3.943018913E-1,-1.275143623E-1,-7.895200700E-2
2.621264320E0,-3.880407214E-1,-1.249182671E-1,-7.528692484E-2
2.623646612E0,-3.794888556E-1,-1.188097894E-1,-7.162184268E-2
2.626028904E0,-3.720059693E-1,-1.151447073E-1,-6.551336497E-2
2.628411195E0,-3.633013964E-1,-1.127013192E-1,-6.291726977E-2
2.630793487E0,-3.533751369E-1,-1.076618284E-1,-5.803048983E-2
2.633175779E0,-3.422271907E-1,-1.039967462E-1,-5.314370990E-2
2.635558070E0,-3.347443044E-1,-9.910997003E-2,-4.703523964E-2
2.637940362E0,-3.223746419E-1,-9.529217333E-2,-4.337015375E-2
2.640322706E0,-3.100049794E-1,-9.040539712E-2,-3.833066672E-2
2.642704998E0,-2.987042964E-1,-8.918370306E-2,-3.588727489E-2
2.645087289E0,-2.863346636E-1,-8.658760041E-2,-2.977880463E-2
2.647469581E0,-2.739650011E-1,-8.414421231E-2,-2.718270384E-2
2.649851873E0,-2.603736520E-1,-8.276980370E-2,-2.229592577E-2
2.652234164E0,-2.466295809E-1,-7.910472155E-2,-1.863084175E-2
2.654616456E0,-2.305948436E-1,-7.528692484E-2,-1.359135192E-2
2.656998748E0,-2.131856978E-1,-7.391251624E-2,-1.114796288E-2
2.659381091E0,-1.969982386E-1,-7.146912813E-2,-5.039489828E-3
2.661763383E0,-1.795890927E-1,-7.009471953E-2,-1.221694518E-3
2.664145675E0,-1.635543555E-1,-6.398624927E-2,3.665083554E-3
2.666527966E0,-1.487413049E-1,-5.894676223E-2,7.330167107E-3
2.668910258E0,-1.325538605E-1,-5.039490014E-2,9.773556143E-3
2.671292550E0,-1.177408099E-1,-4.428642616E-2,1.114796288E-2
2.673674841E0,-1.041494608E-1,-3.573456407E-2,1.603474095E-2
2.676057133E0,-9.300149232E-2,-2.473931387E-2,1.603474095E-2
2.678439425E0,-8.307522535E-2,-1.252236869E-2,1.847812906E-2
2.680821768E0,-7.574506104E-2,9.162708884E-4,1.969982497E-2
2.683204060E0,-6.841489673E-2,1.298050396E-2,1.847812906E-2
2.685586352E0,-5.986303091E-2,2.641914412E-2,1.603474095E-2
2.687968643E0,-5.253286287E-2,4.337015375E-2,1.359135192E-2
2.690350935E0,-4.764608666E-2,5.925218388E-2,1.343864016E-2
2.692733227E0,-4.275930673E-2,7.620319724E-2,1.099525020E-2
2.695115518E0,-3.909422457E-2,9.193251282E-2,6.108472589E-3
2.697497810E0,-3.436015919E-2,1.101052165E-1,-1.527118147E-4
2.699880154E0,-3.069507517E-2,1.270562261E-1,-3.817795310E-3
2.702262445E0,-2.825168520E-2,1.429382563E-1,-5.039489828E-3
2.704644737E0,-2.351761982E-2,1.562241912E-1,-8.704573847E-3
2.707027029E0,-1.985253580E-2,1.708845198E-1,-1.130067464E-2
2.709409320E0,-1.618745178E-2,1.792836636E-1,-1.374406368E-2
2.711791612E0,-1.130067464E-2,1.866138428E-1,-1.374406368E-2
2.714173904E0,-7.482878864E-3,1.915006191E-1,-1.374406368E-2
2.716556195E0,-1.374406274E-3,1.976090819E-1,-1.374406368E-2
2.718938539E0,6.108472589E-3,2.024958730E-1,-1.374406368E-2
2.721320831E0,1.588202827E-2,2.073826492E-1,-1.236965694E-2
2.723703123E0,2.580829710E-2,2.086043358E-1,-1.359135192E-2
2.726085414E0,3.329117596E-2,2.087570578E-1,-1.236965694E-2
2.728467706E0,4.321744293E-2,2.050919682E-1,-1.481304597E-2
2.730849998E0,5.436540768E-2,2.038702667E-1,-1.359135192E-2
2.733232289E0,6.306997687E-2,2.003578991E-1,-1.343864016E-2
2.735614581E0,7.177454978E-2,1.966928244E-1,-1.588202827E-2
2.737996925E0,8.047912270E-2,1.882936656E-1,-1.954711229E-2
2.740379216E0,8.674030751E-2,1.834068894E-1,-2.199050039E-2
2.742761508E0,9.284878522E-2,1.762294322E-1,-2.809897438E-2
2.745143800E0,9.910997003E-2,1.688992679E-1,-3.054236248E-2
2.747526091E0,1.039967462E-1,1.615691036E-1,-3.787253052E-2
2.749908383E0,1.078145429E-1,1.531699449E-1,-4.260659590E-2
2.752290675E0,1.127013192E-1,1.446180940E-1,-4.749337584E-2
2.754672966E0,1.165191159E-1,1.349972486E-1,-5.238015205E-2
2.757055310E0,1.227803007E-1,1.252236813E-1,-5.848862603E-2
2.759437602E0,1.264453828E-1,1.154501289E-1,-6.459710002E-2
2.761819893E0,1.302631795E-1,1.094943732E-1,-6.948387623E-2
2.764202185E0,1.339282542E-1,1.021642014E-1,-7.559234649E-2
2.766584477E0,1.375933439E-1,9.483403713E-2,-7.925742865E-2
2.768966768E0,1.426328421E-1,8.765657991E-2,-8.399149776E-2
2.771349060E0,1.438545287E-1,8.276980370E-2,-8.643488586E-2
2.773731352E0,1.462979168E-1,8.032641560E-2,-9.009996802E-2
2.776113695E0,1.450762302E-1,7.421794534E-2,-9.376505762E-2
2.778495987E0,1.462979168E-1,6.933116168E-2,-9.743013978E-2
2.780878279E0,1.450762302E-1,6.322269142E-2,-1.010952219E-1
2.783260570E0,1.426328421E-1,5.833591148E-2,-1.035386100E-1
2.785642862E0,1.377460510E-1,5.344913527E-2,-1.059819981E-1
2.788025154E0,1.365243644E-1,5.100574717E-2,-1.072036922E-1
2.790407445E0,1.265980899E-1,5.222744122E-2,-1.073564067E-1
2.792789737E0,1.191152185E-1,4.856235534E-2,-1.085781008E-1
2.795172081E0,1.142284349E-1,4.489727318E-2,-1.097997949E-1
2.797554373E0,1.030804738E-1,4.001049697E-2,-1.097997949E-1
2.799936664E0,9.315420687E-2,3.741439432E-2,-1.097997949E-1
2.802318956E0,8.322793990E-2,3.497100621E-2,-1.097997949E-1
2.804701248E0,7.574506104E-2,3.497100621E-2,-1.085781008E-1
2.807083539E0,6.841489673E-2,3.497100621E-2,-1.061347127E-1
2.809465831E0,6.215370819E-2,3.130592033E-2,-1.049130186E-1
2.811848123E0,5.482354015E-2,3.130592033E-2,-1.050657257E-1
2.814230414E0,5.100574717E-2,3.008422814E-2,-1.026223376E-1
2.816612758E0,4.978405312E-2,3.008422814E-2,-1.026223376E-1
2.818995050E0,4.856235534E-2,3.237490356E-2,-1.001789495E-1
2.821377341E0,5.100574717E-2,3.603998944E-2,-1.014006436E-1
2.823759633E0,5.100574717E-2,3.726168349E-2,-1.001789495E-1
2.826141925E0,5.726693198E-2,3.970507160E-2,-9.773556143E-2
2.828524216E0,6.215370819E-2,4.214845970E-2,-9.895725548E-2
2.830906508E0,6.841489673E-2,4.107947648E-2,-9.758284688E-2
2.833288852E0,7.711946964E-2,4.230117425E-2,-9.269607067E-2
2.835671143E0,8.460234851E-2,4.245388508E-2,-9.147437662E-2
2.838053435E0,9.208522737E-2,3.878879920E-2,-8.903098851E-2
2.840435727E0,9.941539168E-2,3.527642787E-2,-8.643488586E-2
2.842818018E0,1.082726792E-1,3.038965166E-2,-8.399149776E-2
2.845200310E0,1.131594554E-1,3.161134571E-2,-7.788302749E-2
2.847582602E0,1.181989461E-1,2.809897438E-2,-7.666133344E-2
2.849964893E0,1.218640283E-1,2.443389036E-2,-7.421794534E-2
2.852347237E0,1.256818175E-1,2.321219631E-2,-7.284353673E-2
2.854729529E0,1.256818175E-1,2.336490713E-2,-6.917845458E-2
2.857111820E0,1.281252056E-1,2.092151903E-2,-6.795676053E-2
2.859494112E0,1.307213157E-1,2.214321308E-2,-6.551336497E-2
2.861876404E0,1.319430023E-1,2.336490713E-2,-6.429167092E-2
2.864258695E0,1.307213157E-1,2.092151903E-2,-6.306997687E-2
2.866640987E0,1.307213157E-1,1.969982497E-2,-6.306997687E-2
2.869023279E0,1.294996142E-1,1.603474095E-2,-6.062658876E-2
2.871405570E0,1.294996142E-1,1.130067464E-2,-6.184828654E-2
2.873787914E0,1.294996142E-1,6.413896102E-3,-5.940489471E-2
2.876170206E0,1.282779276E-1,1.527118147E-3,-5.818320066E-2
2.878552498E0,1.296523362E-1,-3.359660041E-3,-6.062658876E-2
2.880934789E0,1.284306347E-1,-9.315420873E-3,-5.940489471E-2
2.883317081E0,1.284306347E-1,-1.664558798E-2,-5.925218388E-2
2.885699373E0,1.296523362E-1,-2.153236605E-2,-6.047387794E-2
2.888081664E0,1.272089481E-1,-2.764083818E-2,-6.413896382E-2
2.890464008E0,1.296523362E-1,-3.359659761E-2,-6.658235192E-2
2.892846300E0,1.310267299E-1,-3.603998944E-2,-6.902574003E-2
2.895228591E0,1.308740228E-1,-3.603998944E-2,-7.146912813E-2
2.897610883E0,1.310267299E-1,-3.848337755E-2,-7.269082218E-2
2.899993175E0,1.296523362E-1,-3.970507160E-2,-7.513421029E-2
2.902375466E0,1.308740228E-1,-3.985778242E-2,-7.757759839E-2
2.904757758E0,1.308740228E-1,-4.107947648E-2,-8.124268800E-2
2.907140050E0,1.296523362E-1,-3.741439432E-2,-8.261708915E-2
2.909522393E0,1.296523362E-1,-3.741439432E-2,-8.506047726E-2
2.911904685E0,1.296523362E-1,-3.619270027E-2,-8.628217876E-2
2.914286977E0,1.308740228E-1,-3.252761811E-2,-8.261708915E-2
2.916669268E0,1.308740228E-1,-3.008422814E-2,-8.261708915E-2
2.919051560E0,1.296523362E-1,-2.886253223E-2,-8.017370105E-2
2.921433852E0,1.296523362E-1,-2.641914412E-2,-7.773031294E-2
2.923816143E0,1.296523362E-1,-2.397575416E-2,-7.528692484E-2
2.926198435E0,1.296523362E-1,-2.275406010E-2,-7.162184268E-2
2.928580779E0,1.320957243E-1,-2.031067200E-2,-6.902574003E-2
2.930963070E0,1.296523362E-1,-1.786728203E-2,-6.551336497E-2
2.933345362E0,1.308740228E-1,-1.664558798E-2,-6.291726977E-2
2.935727654E0,1.320957243E-1,-1.420219894E-2,-6.169557199E-2
2.938109945E0,1.346918195E-1,-1.664558798E-2,-5.925218388E-2
2.940492237E0,1.359135211E-1,-1.542389300E-2,-5.680879578E-2
2.942874529E0,1.383569092E-1,-1.542389300E-2,-5.558710173E-2
2.945256820E0,1.408002973E-1,-1.298050396E-2,-5.436540768E-2
2.947639164E0,1.433963925E-1,-1.527118124E-2,-5.192201585E-2
2.950021456E0,1.507265568E-1,-1.282779220E-2,-5.070032179E-2
2.952403748E0,1.545443535E-1,-1.527118124E-2,-4.947862774E-2
2.954786039E0,1.594311297E-1,-1.527118124E-2,-4.703523964E-2
2.957168331E0,1.669140160E-1,-1.634016447E-2,-4.810422286E-2
2.959550623E0,1.731752008E-1,-2.122694254E-2,-4.566083103E-2
2.961932914E0,1.768402755E-1,-2.596100792E-2,-4.566083103E-2
2.964315258E0,1.818797737E-1,-2.962609194E-2,-4.443913698E-2
2.966697550E0,1.881409585E-1,-3.329117596E-2,-4.321744293E-2
2.969079841E0,1.956238300E-1,-4.169032723E-2,-4.062134400E-2
2.971462133E0,1.994416267E-1,-4.779879749E-2,-4.184303805E-2
2.973844425E0,2.043284029E-1,-5.253286287E-2,-3.939964995E-2
2.976226716E0,2.105895877E-1,-5.848862603E-2,-3.695625812E-2
2.978609008E0,2.168507725E-1,-6.581879407E-2,-3.436015919E-2
2.980991300E0,2.231119573E-1,-7.299624383E-2,-3.069507517E-2
2.983373643E0,2.281514555E-1,-7.666133344E-2,-2.947338112E-2
2.985755935E0,2.330382317E-1,-8.139539510E-2,-2.825168520E-2
2.988138227E0,2.380777150E-1,-8.628217876E-2,-2.565558441E-2
2.990520518E0,2.431172132E-1,-8.750387281E-2,-2.443389036E-2
2.992902810E0,2.480039895E-1,-9.101624042E-2,-2.199050039E-2
2.995285102E0,2.518217862E-1,-9.223793447E-2,-2.076880634E-2
2.997667393E0,2.567085624E-1,-9.468132257E-2,-1.832541823E-2
3.000049685E0,2.605263591E-1,-9.575030953E-2,-1.832541823E-2
3.002431977E0,2.666348219E-1,-9.452861547E-2,-1.954711229E-2
3.004814320E0,2.704526186E-1,-9.208522737E-2,-1.710372418E-2
3.007196612E0,2.728960216E-1,-9.086353332E-2,-1.572931744E-2
3.009578904E0,2.777827978E-1,-8.964183182E-2,-1.450762246E-2
3.011961195E0,2.790044844E-1,-8.597674966E-2,-1.450762246E-2
3.014343487E0,2.803788781E-1,-8.475505561E-2,-1.328592747E-2
3.016725779E0,2.840439677E-1,-7.986827940E-2,-1.328592747E-2
3.019108070E0,2.864873707E-1,-7.864658535E-2,-1.695101149E-2
3.021490414E0,2.877090573E-1,-7.620319724E-2,-1.450762246E-2
3.023872706E0,2.889307439E-1,-7.498150319E-2,-1.450762246E-2
3.026254998E0,2.889307439E-1,-7.375980914E-2,-1.206423342E-2
3.028637289E0,2.913741469E-1,-7.498150319E-2,-1.328592747E-2
3.031019581E0,2.939702570E-1,-7.375980914E-2,-9.620844387E-3
3.033401873E0,2.964136302E-1,-7.498150319E-2,-9.620844387E-3
3.035784164E0,2.988570333E-1,-7.375980914E-2,-9.620844387E-3
3.038166456E0,3.013004065E-1,-7.498150319E-2,-8.399149403E-3
3.040548800E0,3.051182032E-1,-7.482878864E-2,-4.734066315E-3
3.042931091E0,3.087832928E-1,-7.482878864E-2,-3.512371797E-3
3.045313383E0,3.138227761E-1,-7.605048269E-2,-1.068982761E-3
3.047695675E0,3.213056624E-1,-7.727217674E-2,3.054236295E-4
3.050077966E0,3.274141252E-1,-8.078455180E-2,3.054236295E-4
3.052460258E0,3.362714052E-1,-8.322793990E-2,3.970507067E-3
3.054842550E0,3.461976945E-1,-8.307522535E-2,6.413896102E-3
3.057224841E0,3.535278440E-1,-8.429691941E-2,6.413896102E-3
3.059607185E0,3.634541333E-1,-8.658760041E-2,1.023169141E-2
3.061989477E0,3.709369898E-1,-8.414421231E-2,1.267508045E-2
3.064371768E0,3.771981895E-1,-8.414421231E-2,1.511846948E-2
3.066754060E0,3.834593594E-1,-8.047912270E-2,1.878355257E-2
3.069136352E0,3.907895386E-1,-7.559234649E-2,2.000524849E-2
3.071518643E0,3.956763148E-1,-6.826218218E-2,2.122694254E-2
3.073900935E0,3.982724249E-1,-6.459710002E-2,2.367033064E-2
3.076283227E0,4.031592011E-1,-5.971032009E-2,2.855710872E-2
3.078665570E0,4.068242610E-1,-5.238015205E-2,2.855710872E-2
3.081047862E0,4.092676640E-1,-4.627167806E-2,2.977880463E-2
3.083430154E0,4.117110670E-1,-4.138490185E-2,3.344388679E-2
3.085812445E0,4.104893506E-1,-3.771981969E-2,3.588727489E-2
3.088194737E0,4.080459774E-1,-3.405473381E-2,3.588727489E-2
3.090577029E0,4.092676640E-1,-3.283303976E-2,3.833066672E-2
3.092959320E0,4.080459774E-1,-3.038965166E-2,4.199574888E-2
3.095341612E0,4.043808877E-1,-3.038965166E-2,4.199574888E-2
3.097723956E0,4.005630910E-1,-3.527642787E-2,4.199574888E-2
3.100106248E0,3.956763148E-1,-4.016320780E-2,4.077405483E-2
3.102488539E0,3.907895386E-1,-4.504998401E-2,4.077405483E-2
3.104870831E0,3.845283389E-1,-4.749337584E-2,4.321744293E-2
3.107253123E0,3.784198761E-1,-5.238015205E-2,4.199574888E-2
3.109635414E0,3.723114133E-1,-5.726693198E-2,4.199574888E-2
3.112017706E0,3.672719002E-1,-5.848862603E-2,3.955236077E-2
3.114400050E0,3.636068404E-1,-5.971032009E-2,4.199574888E-2
3.116782341E0,3.536805511E-1,-6.352811307E-2,3.833066672E-2
3.119164633E0,3.498627543E-1,-6.352811307E-2,3.833066672E-2
3.121546925E0,3.474193811E-1,-6.597150117E-2,3.588727489E-2
3.123929216E0,3.437542915E-1,-6.474980712E-2,3.451287001E-2
3.126311508E0,3.411581814E-1,-6.230641901E-2,3.329117596E-2
3.128693800E0,3.399364948E-1,-5.879404768E-2,3.206948191E-2
3.131076143E0,3.362714052E-1,-5.757235363E-2,3.206948191E-2
3.133458435E0,3.361186981E-1,-5.635065958E-2,2.718270384E-2
3.135840727E0,3.387148082E-1,-5.146388337E-2,2.596100792E-2
3.138223018E0,3.373403847E-1,-4.795150831E-2,2.473931387E-2
3.140605310E0,3.397837877E-1,-4.184303805E-2,2.473931387E-2
3.142987602E0,3.410054743E-1,-3.329117596E-2,2.596100792E-2
3.145369893E0,3.472666740E-1,-2.718270384E-2,2.596100792E-2
3.147752185E0,3.495573401E-1,-1.985253580E-2,2.473931387E-2
3.150134529E0,3.545968235E-1,-1.145338640E-2,2.596100792E-2
3.152516820E0,3.594835997E-1,-2.901524538E-3,2.840439789E-2
3.154899112E0,3.655920923E-1,6.872031838E-3,3.084778599E-2
3.157281404E0,3.694098890E-1,1.298050396E-2,3.451287001E-2
3.159663695E0,3.755183518E-1,2.397575416E-2,3.695625812E-2
3.162045987E0,3.791834414E-1,3.497100621E-2,4.062134400E-2
3.164428279E0,3.816268146E-1,4.214845970E-2,4.428642616E-2
3.166810570E0,3.852919042E-1,5.436540768E-2,4.795150831E-2
3.169192914E0,3.901786804E-1,6.780404598E-2,5.268557742E-2
3.171575206E0,3.952181637E-1,7.986827940E-2,5.757235363E-2
3.173957498E0,4.013266563E-1,9.208522737E-2,6.245913357E-2
3.176339789E0,4.088095427E-1,1.018587798E-1,6.749862432E-2
3.178722081E0,4.161396921E-1,1.116323397E-1,7.116370648E-2
3.181104373E0,4.236225784E-1,1.214058921E-1,7.727217674E-2
3.183486664E0,4.359922409E-1,1.336228400E-1,8.215895295E-2
3.185868956E0,4.471401870E-1,1.397313178E-1,8.826743066E-2
3.188251300E0,4.569137394E-1,1.508792788E-1,9.437590092E-2
3.190633591E0,4.694361091E-1,1.594311297E-1,9.926267713E-2
3.193015883E0,4.818057716E-1,1.704263836E-1,1.067455560E-1
3.195398175E0,4.966188073E-1,1.789782494E-1,1.116323397E-1
3.197780466E0,5.102101564E-1,1.875301152E-1,1.177408099E-1
3.200162758E0,5.263976455E-1,1.950129867E-1,1.250709742E-1
3.202545050E0,5.412106514E-1,1.998997629E-1,1.288887709E-1
3.204927341E0,5.561764240E-1,2.037175596E-1,1.325538605E-1
3.207309685E0,5.709894896E-1,2.037175596E-1,1.374406368E-1
3.209691977E0,5.859552622E-1,2.050919682E-1,1.388150454E-1
3.212074268E0,6.007682681E-1,2.015796006E-1,1.388150454E-1
3.214456560E0,6.145123243E-1,1.991362125E-1,1.388150454E-1
3.216838852E0,6.293253899E-1,1.919587553E-1,1.365243644E-1
3.219221143E0,6.404733658E-1,1.811162084E-1,1.328592747E-1
3.221603487E0,6.542174220E-1,1.666085869E-1,1.267508119E-1
3.223985779E0,6.679614782E-1,1.484358907E-1,1.195733473E-1
3.226368070E0,6.778877378E-1,1.265980899E-1,1.085781008E-1
3.228750362E0,6.865923405E-1,1.047603041E-1,1.001789495E-1
3.231132654E0,6.952968836E-1,8.414421231E-2,9.162709117E-2
3.233514945E0,7.015580535E-1,6.230641901E-2,8.307522535E-2
3.235897237E0,7.104153633E-1,4.535540938E-2,7.589777559E-2
3.238279529E0,7.140804529E-1,3.313846514E-2,6.856760383E-2
3.240661820E0,7.177455425E-1,2.580829710E-2,6.123743951E-2
3.243044164E0,7.240067124E-1,1.618745178E-2,5.757235363E-2
3.245426456E0,7.252284288E-1,8.857285604E-3,5.146388337E-2
3.247808748E0,7.240067124E-1,3.970507067E-3,4.291202128E-2
3.250191039E0,7.227849960E-1,3.970507067E-3,3.558185324E-2
3.252573331E0,7.177455425E-1,1.374406274E-3,2.932066843E-2
3.254955623E0,7.127060294E-1,5.039489828E-3,2.076880634E-2
3.257337914E0,7.040014863E-1,8.551862091E-3,1.221694518E-2
3.259720258E0,6.927008033E-1,1.939439960E-2,5.955760833E-3
3.262102550E0,6.814001203E-1,3.268032894E-2,-2.596100792E-3
3.264484841E0,6.688777208E-1,5.070032179E-2,-8.857285604E-3
3.266867133E0,6.539120078E-1,7.116370648E-2,-1.511846948E-2
3.269249425E0,6.401679516E-1,9.773556143E-2,-1.893626526E-2
3.271631716E0,6.238277555E-1,1.244601309E-1,-2.015795931E-2
3.274014008E0,6.100836992E-1,1.534753740E-1,-1.664558798E-2
3.276396300E0,5.961869359E-1,1.885990947E-1,-1.435491070E-2
3.278778643E0,5.824428797E-1,2.212794125E-1,-9.620844387E-3
3.281160935E0,5.735855699E-1,2.564031482E-1,-2.290677279E-3
3.283543227E0,5.636593103E-1,2.867927849E-1,8.551862091E-3
3.285925518E0,5.573981404E-1,3.182514310E-1,1.832541823E-2
3.288307810E0,5.522059202E-1,3.449759781E-1,2.794626169E-2
3.290690102E0,5.497625470E-1,3.669664860E-1,3.771981969E-2
3.293072393E0,5.485408306E-1,3.839175105E-1,4.749337584E-2
3.295454737E0,5.522059202E-1,3.997995257E-1,5.848862603E-2
3.297837029E0,5.583143830E-1,4.120164812E-1,6.581879407E-2
3.300219320E0,5.645755529E-1,4.230117202E-1,7.559234649E-2
3.302601612E0,5.732801557E-1,4.266768098E-1,8.185353130E-2
3.304970623E0,5.819846988E-1,4.303418994E-1,9.040539712E-2
3.307366195E0,5.919110179E-1,4.304946065E-1,9.529217333E-2
3.309795779E0,6.044333577E-1,4.245388508E-1,1.015533581E-1
3.312225362E0,6.180247068E-1,4.136963189E-1,1.052184403E-1
3.314654945E0,6.305471063E-1,4.016320705E-1,1.078145429E-1
3.317071404E0,6.592568755E-1,3.691044450E-1,1.152974218E-1
3.319514841E0,6.768187881E-1,3.484883606E-1,1.178935245E-1
3.321944737E0,6.954495907E-1,3.292466700E-1,1.166718230E-1
3.324374633E0,7.166765332E-1,3.112266660E-1,1.192679256E-1
3.326804529E0,7.391251922E-1,2.942756712E-1,1.243074164E-1
3.329234477E0,7.627955079E-1,2.762556672E-1,1.244601309E-1
3.331664373E0,7.850914598E-1,2.582356930E-1,1.232384369E-1
3.334094268E0,8.075400591E-1,2.353289127E-1,1.221694499E-1
3.336524164E0,8.312104344E-1,2.098260373E-1,1.198787764E-1
3.338954060E0,8.524373770E-1,1.869192570E-1,1.175880954E-1
3.341383956E0,8.712208867E-1,1.554606259E-1,1.104106456E-1
3.343813852E0,8.849649429E-1,1.276670843E-1,1.055238619E-1
3.346243800E0,8.974873424E-1,9.605573118E-2,9.590301663E-2
3.348673695E0,9.098569751E-1,6.337540597E-2,8.612946421E-2
3.351103591E0,9.174925685E-1,3.069507517E-2,7.650861889E-2
3.353533487E0,9.213103652E-1,-2.137965523E-3,6.917845458E-2
3.355963383E0,9.239065051E-1,-3.008422814E-2,6.200099736E-2
3.358393279E0,9.252808690E-1,-5.803048983E-2,4.978405312E-2
3.360823175E0,9.216157794E-1,-8.231166750E-2,4.123219103E-2
3.363253070E0,9.179506898E-1,-1.018587798E-1,3.145863488E-2
3.365683018E0,9.142856598E-1,-1.175880954E-1,2.290677279E-2
3.368112914E0,9.080244303E-1,-1.285833418E-1,1.435491070E-2
3.370542810E0,9.019159675E-1,-1.371352077E-1,8.246437646E-3
3.372972706E0,8.980981708E-1,-1.420219839E-1,2.137965523E-3
3.375402602E0,8.906152844E-1,-1.433963925E-1,-1.527118147E-3
3.377832498E0,8.806890249E-1,-1.349972486E-1,-4.123218823E-3
3.380262393E0,8.707627654E-1,-1.301104724E-1,-6.566607859E-3
3.382692289E0,8.582404256E-1,-1.229330078E-1,-1.023169141E-2
3.385122237E0,8.420529366E-1,-1.133121699E-1,-1.404948719E-2
3.387552133E0,8.258655071E-1,-1.024696305E-1,-1.664558798E-2
3.389982029E0,8.108997345E-1,-9.300149232E-2,-1.786728203E-2
3.392411925E0,7.960866690E-1,-7.849387079E-2,-1.435491070E-2
3.394841820E0,7.774558663E-1,-6.765133142E-2,-1.435491070E-2
3.397271716E0,7.586722970E-1,-5.680879578E-2,-1.206423342E-2
3.399701612E0,7.450809479E-1,-4.718795046E-2,-8.399149403E-3
3.402131560E0,7.301151752E-1,-3.878879920E-2,-7.177455351E-3
3.404561456E0,7.189671993E-1,-3.023693897E-2,-1.221694518E-3
3.406991352E0,7.090409398E-1,-2.535016090E-2,4.886778072E-3
3.409421248E0,7.004891038E-1,-1.939439960E-2,1.343864016E-2
3.411851143E0,6.942279339E-1,-1.328592747E-2,2.199050039E-2
3.414281039E0,6.868977547E-1,-9.620844387E-3,3.298575059E-2
3.416710935E0,6.806365848E-1,1.527118147E-4,4.520269856E-2
3.419140831E0,6.769714952E-1,8.704573847E-3,5.986303091E-2
3.421570779E0,6.720846891E-1,1.603474095E-2,7.574506104E-2
3.424000675E0,6.696413159E-1,2.702999115E-2,8.918370306E-2
3.426430570E0,6.684195995E-1,3.787253052E-2,1.026223376E-1
3.428860466E0,6.684195995E-1,4.764608666E-2,1.174353883E-1
3.431245727E0,6.671979427E-1,5.512896553E-2,1.308740228E-1
3.433628018E0,6.647545099E-1,6.474980712E-2,1.430909634E-1
3.436010310E0,6.647545099E-1,7.330167294E-2,1.540862173E-1
3.438392654E0,6.623111367E-1,8.063183725E-2,1.650814712E-1
3.440774945E0,6.635328531E-1,8.918370306E-2,1.772984117E-1
3.443157237E0,6.610894203E-1,9.529217333E-2,1.834068894E-1
3.445539529E0,6.598677635E-1,9.651386738E-2,1.907370538E-1
3.447921820E0,6.574243903E-1,1.001789495E-1,1.968455315E-1
3.450304112E0,6.549809575E-1,1.038440317E-1,2.017323077E-1
3.452686404E0,6.525375843E-1,1.038440317E-1,2.078407854E-1
3.455068748E0,6.525375843E-1,1.039967462E-1,2.127275616E-1
3.457451039E0,6.525375843E-1,1.027750522E-1,2.163926363E-1
3.459833331E0,6.551336646E-1,1.039967462E-1,2.176143378E-1
3.462215623E0,6.551336646E-1,1.003316641E-1,2.202104330E-1
3.464597914E0,6.587987542E-1,9.788827598E-2,2.202104330E-1
3.466980206E0,6.638382673E-1,9.193251282E-2,2.202104330E-1
3.469362498E0,6.688777208E-1,8.704573661E-2,2.226538211E-1
3.471744789E0,6.788040400E-1,7.864658535E-2,2.214321345E-1
3.474127133E0,6.850652099E-1,7.253811508E-2,2.191414535E-1
3.476509425E0,6.949914694E-1,6.780404598E-2,2.179197669E-1
3.478891716E0,7.024743557E-1,5.818320066E-2,2.154763639E-1
3.481274008E0,7.111788988E-1,4.963133857E-2,2.154763639E-1
3.483656300E0,7.160657048E-1,4.245388508E-2,2.156290859E-1
3.486038591E0,7.235485911E-1,3.390202299E-2,2.131856978E-1
3.488420883E0,7.310314775E-1,2.794626169E-2,2.144073844E-1
3.490803227E0,7.311841846E-1,2.305948362E-2,2.156290859E-1
3.493185518E0,7.348492742E-1,1.343864016E-2,2.168507725E-1
3.495567810E0,7.350019813E-1,2.443389036E-3,2.182251811E-1
3.497950102E0,7.337802649E-1,-5.955760833E-3,2.182251811E-1
3.500332393E0,7.313368917E-1,-1.450762246E-2,2.170034945E-1
3.502714685E0,7.252284288E-1,-2.305948362E-2,2.218902707E-1
3.505096977E0,7.203416228E-1,-3.145863488E-2,2.243336588E-1
3.507479320E0,7.166765332E-1,-4.245388508E-2,2.292204350E-1
3.509861612E0,7.093463540E-1,-4.978405312E-2,2.328855246E-1
3.512243904E0,7.069029808E-1,-5.696150661E-2,2.354816198E-1
3.514626195E0,7.044596076E-1,-6.551336497E-2,2.379250079E-1
3.517008487E0,7.020162344E-1,-7.391251624E-2,2.391466945E-1
3.519390779E0,7.020162344E-1,-8.124268800E-2,2.415900975E-1
3.521773070E0,7.033905983E-1,-8.857285231E-2,2.415900975E-1
3.524155414E0,7.021689415E-1,-9.697200358E-2,2.428117841E-1
3.526537706E0,7.072083950E-1,-1.043021679E-1,2.415900975E-1
3.528919998E0,7.108734846E-1,-1.102579311E-1,2.405211031E-1
3.531302289E0,7.159129977E-1,-1.175880954E-1,2.405211031E-1
3.533684581E0,7.207997441E-1,-1.223221645E-1,2.392994165E-1
3.536066873E0,7.270609736E-1,-1.235438585E-1,2.392994165E-1
3.538449164E0,7.282826304E-1,-1.247655526E-1,2.356343269E-1
3.540831456E0,7.345438004E-1,-1.247655526E-1,2.344126403E-1
3.543213800E0,7.382088900E-1,-1.247655526E-1,2.319692522E-1
3.545596091E0,7.406523228E-1,-1.211004704E-1,2.307475507E-1
3.547978383E0,7.406523228E-1,-1.186570823E-1,2.295258641E-1
3.550360675E0,7.406523228E-1,-1.162136942E-1,2.319692522E-1
3.552742966E0,7.406523228E-1,-1.127013192E-1,2.307475507E-1
3.555125258E0,7.380561829E-1,-1.078145429E-1,2.307475507E-1
3.557507550E0,7.343910933E-1,-1.053711548E-1,2.331909388E-1
3.559889893E0,7.307260633E-1,-1.004843712E-1,2.368560284E-1
3.562272185E0,7.281299233E-1,-9.681928903E-2,2.380777150E-1
3.564654477E0,7.232431769E-1,-9.208522737E-2,2.405211031E-1
3.567036768E0,7.194253802E-1,-8.842013776E-2,2.428117841E-1
3.569419060E0,7.169819474E-1,-8.597674966E-2,2.452551723E-1
3.571801352E0,7.133168578E-1,-8.597674966E-2,2.476985604E-1
3.574183643E0,7.096518278E-1,-8.719844371E-2,2.489202619E-1
3.576565987E0,7.082774043E-1,-8.597674966E-2,2.501419485E-1
3.578948279E0,7.108734846E-1,-8.964183182E-2,2.525853515E-1
3.581330570E0,7.120952010E-1,-9.208522737E-2,2.515163720E-1
3.583712862E0,7.120952010E-1,-9.819369763E-2,2.502946556E-1
3.586095154E0,7.146912813E-1,-1.065928489E-1,2.478512824E-1
3.588477445E0,7.183563709E-1,-1.127013192E-1,2.478512824E-1
3.590859737E0,7.233958840E-1,-1.223221645E-1,2.466295809E-1
3.593242029E0,7.284353375E-1,-1.320957243E-1,2.429644912E-1
3.595624373E0,7.359182239E-1,-1.429382563E-1,2.382304370E-1
3.598006664E0,7.432484031E-1,-1.478250325E-1,2.357870489E-1
3.600388956E0,7.470661998E-1,-1.550024897E-1,2.321219593E-1
3.602771248E0,7.507312894E-1,-1.635543555E-1,2.284568697E-1
3.605153539E0,7.533273697E-1,-1.672194302E-1,2.260134816E-1
3.607535831E0,7.569924593E-1,-1.731752008E-1,2.235700935E-1
3.609918175E0,7.594358325E-1,-1.768402755E-1,2.186833173E-1
3.612300466E0,7.582141757E-1,-1.743968874E-1,2.174616307E-1
3.614682758E0,7.569924593E-1,-1.756185889E-1,2.162399292E-1
3.617065050E0,7.557707429E-1,-1.708845198E-1,2.162399292E-1
3.619447341E0,7.507312894E-1,-1.696628332E-1,2.186833173E-1
3.621829633E0,7.456917763E-1,-1.672194302E-1,2.162399292E-1
3.624211925E0,7.383615971E-1,-1.637070626E-1,2.199050188E-1
3.626594216E0,7.321004272E-1,-1.600419879E-1,2.197522968E-1
3.628976560E0,7.233958840E-1,-1.553079188E-1,2.185306102E-1
3.631358852E0,7.146912813E-1,-1.553079188E-1,2.173089087E-1
3.633741143E0,7.047650218E-1,-1.540862173E-1,2.197522968E-1
3.636123435E0,6.998782754E-1,-1.528645307E-1,2.185306102E-1
3.638505727E0,6.887302995E-1,-1.517955512E-1,2.171562016E-1
3.640888018E0,6.812474132E-1,-1.530172378E-1,2.147128135E-1
3.643270310E0,6.725428104E-1,-1.554606259E-1,2.122694254E-1
3.645652654E0,6.638382673E-1,-1.568350345E-1,2.086043358E-1
3.648034945E0,6.563553810E-1,-1.605001241E-1,2.049392611E-1
3.650417237E0,6.514685750E-1,-1.641651988E-1,2.012741715E-1
3.652799529E0,6.488724947E-1,-1.678302884E-1,1.950129867E-1
3.655181820E0,6.476507783E-1,-1.727170646E-1,1.889045089E-1
3.657564112E0,6.464291215E-1,-1.763821393E-1,1.840177327E-1
3.659946404E0,6.452074051E-1,-1.812689304E-1,1.779092699E-1
3.662328695E0,6.452074051E-1,-1.861557066E-1,1.705790907E-1
3.664711039E0,6.488724947E-1,-1.922641695E-1,1.632489264E-1
3.667093331E0,6.488724947E-1,-2.008160353E-1,1.571404636E-1
3.669475623E0,6.488724947E-1,-2.057028115E-1,1.534753740E-1
3.671857914E0,6.488724947E-1,-2.130329758E-1,1.473668963E-1
3.674240206E0,6.476507783E-1,-2.191414535E-1,1.424801201E-1
3.676622498E0,6.464291215E-1,-2.228065431E-1,1.400367320E-1
3.679004789E0,6.439857483E-1,-2.240282297E-1,1.339282542E-1
3.681387133E0,6.389462352E-1,-2.252499312E-1,1.302631795E-1
3.683769425E0,6.352811456E-1,-2.240282297E-1,1.278197914E-1
3.686151716E0,6.290199757E-1,-2.217375487E-1,1.227803007E-1
3.688534008E0,6.190937161E-1,-2.192941606E-1,1.191152185E-1
3.690916300E0,6.114581227E-1,-2.133384049E-1,1.142284349E-1
3.693298591E0,6.015318632E-1,-2.098260373E-1,1.105633527E-1
3.695680935E0,5.940489769E-1,-2.049392611E-1,1.055238619E-1
3.698063227E0,5.841227174E-1,-1.977618039E-1,1.018587798E-1
3.700445518E0,5.766398311E-1,-1.930277348E-1,9.681928903E-2
3.702827810E0,5.653391480E-1,-1.882936656E-1,9.315420687E-2
3.705210102E0,5.541911721E-1,-1.835595965E-1,8.582404256E-2
3.707592393E0,5.428904891E-1,-1.786728203E-1,7.956285775E-2
3.709974685E0,5.305208564E-1,-1.739387512E-1,7.345438004E-2
3.712356977E0,5.179984570E-1,-1.679829955E-1,6.841489673E-2
3.714739320E0,5.056288242E-1,-1.620272398E-1,6.474980712E-2
3.717121612E0,4.931064546E-1,-1.560714692E-1,5.848862603E-2
3.719503904E0,4.819584787E-1,-1.501157135E-1,5.360184610E-2
3.721886195E0,4.694361091E-1,-1.417165697E-1,4.734066129E-2
3.724268487E0,4.569137394E-1,-1.357607991E-1,4.245388508E-2
3.726650779E0,4.482091665E-1,-1.236965731E-1,3.756710514E-2
3.729033123E0,4.395045936E-1,-1.140757278E-1,3.374931216E-2
3.731415414E0,4.306473136E-1,-1.030804738E-1,3.374931216E-2
3.733797706E0,4.231644273E-1,-9.223793447E-2,2.870982140E-2
3.736179998E0,4.181249440E-1,-8.261708915E-2,2.382304333E-2
3.738562289E0,4.155288339E-1,-7.055285573E-2,2.015795931E-2
3.740944581E0,4.104893506E-1,-5.971032009E-2,1.511846948E-2
3.743326873E0,4.104893506E-1,-4.993676394E-2,1.145338640E-2
3.745709164E0,4.103366435E-1,-3.909422457E-2,1.023169141E-2
3.748091508E0,4.103366435E-1,-2.702999115E-2,5.344913341E-3
3.750473800E0,4.089622498E-1,-1.603474095E-2,3.054236295E-4
3.752856091E0,4.114056230E-1,-7.635590620E-3,-3.359660041E-3
3.755238383E0,4.126273096E-1,2.137965523E-3,-5.803049076E-3
3.757620675E0,4.124746025E-1,9.315420873E-3,-8.246437646E-3
3.760002966E0,4.112529159E-1,1.664558798E-2,-1.328592747E-2
3.762385258E0,4.098785222E-1,2.137965336E-2,-1.572931744E-2
3.764767602E0,4.074351192E-1,2.260134928E-2,-2.305948362E-2
3.767149893E0,4.036173224E-1,2.382304333E-2,-2.916795574E-2
3.769532185E0,3.997995257E-1,2.489202656E-2,-3.649812192E-2
3.771914477E0,3.949127495E-1,2.611372061E-2,-4.031591862E-2
3.774296768E0,3.923166394E-1,2.596100792E-2,-5.008947477E-2
3.776679060E0,3.872771561E-1,2.596100792E-2,-5.741964281E-2
3.779061352E0,3.848337829E-1,2.947338112E-2,-6.474980712E-2
3.781443695E0,3.822376728E-1,3.313846514E-2,-7.467607409E-2
3.783825987E0,3.834593594E-1,4.153761268E-2,-8.322793990E-2
3.786208279E0,3.808632791E-1,4.993676394E-2,-9.177979827E-2
3.788590570E0,3.819322586E-1,6.093201414E-2,-1.004843712E-1
3.790972862E0,3.805578351E-1,7.299624383E-2,-1.102579311E-1
3.793355154E0,3.779617548E-1,8.506047726E-2,-1.201841980E-1
3.795737445E0,3.765873313E-1,1.007898003E-1,-1.299577504E-1
3.798119737E0,3.788780272E-1,1.152974218E-1,-1.397313178E-1
3.800502081E0,3.813214004E-1,1.298050433E-1,-1.472141892E-1
3.802884373E0,3.823903799E-1,1.443126649E-1,-1.582094431E-1
3.805266664E0,3.872771561E-1,1.600419879E-1,-1.644706279E-1
3.807648956E0,3.933856487E-1,1.733279079E-1,-1.705790907E-1
3.810031248E0,3.994941115E-1,1.879882365E-1,-1.754658818E-1
3.812413539E0,4.042281806E-1,2.061609477E-1,-1.815743446E-1
3.814795883E0,4.127800465E-1,2.206685692E-1,-1.866138428E-1
3.817178175E0,4.214846194E-1,2.365505993E-1,-1.890572309E-1
3.819560466E0,4.288147688E-1,2.535016239E-1,-1.927223057E-1
3.821942758E0,4.373666346E-1,2.704526186E-1,-1.927223057E-1
3.824325050E0,4.459185004E-1,2.899997234E-1,-1.951656938E-1
3.826707341E0,4.544703662E-1,3.081724346E-1,-1.963873953E-1
3.829089633E0,4.618005157E-1,3.228327632E-1,-1.989834905E-1
3.831471977E0,4.703523815E-1,3.410054743E-1,-2.002051920E-1
3.833854268E0,4.802786708E-1,3.556658030E-1,-2.002051920E-1
3.836236560E0,4.888305068E-1,3.701734245E-1,-2.002051920E-1
3.838618852E0,4.986040890E-1,3.823903799E-1,-2.026485801E-1
3.841001143E0,5.073086619E-1,3.933856487E-1,-1.989834905E-1
3.843383435E0,5.184566379E-1,4.019374847E-1,-1.989834905E-1
3.845765727E0,5.308262706E-1,4.104893506E-1,-1.928750277E-1
3.848148070E0,5.444176197E-1,4.178195298E-1,-1.890572309E-1
3.850530362E0,5.580089688E-1,4.240806997E-1,-1.829487532E-1
3.852912654E0,5.741963983E-1,4.265241027E-1,-1.780619770E-1
3.855294945E0,5.903838873E-1,4.291202128E-1,-1.705790907E-1
3.857677237E0,6.090146899E-1,4.353813827E-1,-1.620272398E-1
3.860059529E0,6.250494719E-1,4.390464723E-1,-1.533226669E-1
3.862441820E0,6.438329816E-1,4.391991794E-1,-1.447708011E-1
3.864824112E0,6.636855602E-1,4.442386627E-1,-1.336228400E-1
3.867206404E0,6.847597957E-1,4.468347728E-1,-1.214058921E-1
3.869588748E0,7.033905983E-1,4.530959427E-1,-1.127013192E-1
3.871971039E0,7.232431769E-1,4.592044353E-1,-9.926267713E-2
3.874353331E0,7.430956960E-1,4.666872919E-1,-8.811471611E-2
3.876735623E0,7.580614686E-1,4.753918648E-1,-7.956285775E-2
3.879117914E0,7.766922712E-1,4.827220440E-1,-6.734590977E-2
3.881500206E0,7.878402472E-1,4.889832437E-1,-5.864133686E-2
3.883882550E0,7.965448499E-1,4.975350797E-1,-5.253286287E-2
3.886264841E0,8.038749695E-1,5.060869455E-1,-4.520269856E-2
3.888647133E0,8.064711094E-1,5.085303187E-1,-3.909422457E-2
3.891029425E0,8.076927662E-1,5.146388412E-1,-3.665083647E-2
3.893411716E0,8.026533127E-1,5.195255876E-1,-3.298575059E-2
3.895794008E0,7.939487100E-1,5.291464329E-1,-3.176405653E-2
3.898176352E0,7.828007340E-1,5.314370990E-1,-3.436015919E-2
3.900558643E0,7.690566778E-1,5.386145711E-1,-3.558185324E-2
3.902940935E0,7.516475320E-1,5.447230339E-1,-3.680354729E-2
3.905323227E0,7.330167294E-1,5.517477989E-1,-3.939964995E-2
3.907705518E0,7.081246972E-1,5.589252710E-1,-4.199574888E-2
3.910087810E0,6.846070886E-1,5.697677732E-1,-4.443913698E-2
3.912470102E0,6.584933400E-1,5.792359114E-1,-4.947862774E-2
3.914852393E0,6.285618544E-1,5.888567567E-1,-5.451811850E-2
3.917234737E0,6.012263894E-1,5.958815217E-1,-5.955760926E-2
3.919617029E0,5.777087808E-1,6.030589342E-1,-6.444438547E-2
3.921999320E0,5.515950918E-1,6.077930331E-1,-6.704048812E-2
3.924381612E0,5.267030597E-1,6.123743653E-1,-6.963659078E-2
3.926763904E0,5.031854510E-1,6.123743653E-1,-7.207997888E-2
3.929146195E0,4.796678126E-1,6.134433746E-1,-7.345438004E-2
3.931528487E0,4.547757804E-1,6.120689511E-1,-7.345438004E-2
3.933910831E0,4.312581718E-1,6.106945276E-1,-7.360709459E-2
3.936293123E0,4.077405334E-1,6.080984473E-1,-7.360709459E-2
3.938675414E0,3.804051280E-1,6.055023670E-1,-7.605048269E-2
3.941057706E0,3.556658030E-1,5.993938446E-1,-7.864658535E-2
3.943439998E0,3.272614181E-1,5.882459283E-1,-8.108997345E-2
3.945822289E0,3.025220931E-1,5.735855699E-1,-8.368607610E-2
3.948204581E0,2.777827978E-1,5.564818382E-1,-8.612946421E-2
3.950586925E0,2.579302490E-1,5.357130170E-1,-8.857285231E-2
3.952969216E0,2.408265322E-1,5.089884996E-1,-8.979454637E-2
3.955338227E0,2.235700935E-1,4.798205197E-1,-8.735115826E-2
3.957733800E0,2.113531530E-1,4.482091665E-1,-8.475505561E-2
3.960116091E0,1.991362125E-1,4.129327536E-1,-7.864658535E-2
3.962485102E0,1.895153672E-1,3.729222417E-1,-7.238540053E-2
3.964880675E0,1.811162084E-1,3.341334462E-1,-6.123743951E-2
3.967263018E0,1.702736765E-1,2.929012477E-1,-4.902049154E-2
3.969632029E0,1.630962193E-1,2.516690791E-1,-3.665083647E-2
3.972027602E0,1.522536725E-1,2.079934925E-1,-2.183778957E-2
3.974409893E0,1.389677525E-1,1.644706279E-1,-4.581354558E-3
3.976778904E0,1.230857223E-1,1.220167428E-1,1.267508045E-2
3.979174477E0,1.110214889E-1,8.322793990E-2,3.344388679E-2
3.981556768E0,9.773556143E-2,4.321744293E-2,5.558710173E-2
3.983925831E0,8.322793990E-2,8.093725890E-3,7.528692484E-2
3.986321404E0,6.978929788E-2,-1.618745178E-2,9.987352788E-2
3.988703695E0,5.512896553E-2,-3.069507517E-2,1.255291104E-1
3.991072706E0,4.550812021E-2,-4.031591862E-2,1.501157135E-1
3.993468279E0,3.695625812E-2,-3.527642787E-2,1.745496094E-1
3.995850570E0,3.069507517E-2,-2.076880634E-2,1.977618039E-1
3.998232862E0,2.580829710E-2,4.886778072E-3,2.160872221E-1
4.000615206E0,2.076880634E-2,3.405473381E-2,2.368560284E-1
4.002997498E0,1.450762246E-2,7.284353673E-2,2.574721277E-1
4.005379789E0,1.435491070E-2,1.093416587E-1,2.733541429E-1
4.007762081E0,9.468132630E-3,1.264453828E-1,2.867927849E-1
4.010144373E0,-4.581354442E-4,1.446180940E-1,3.026748300E-1
4.012526664E0,1.832541777E-3,1.798945218E-1,3.159607351E-1
4.014908956E0,1.832541777E-3,2.151709497E-1,3.293993771E-1
4.017291300E0,4.581354442E-4,2.370087355E-1,3.403946459E-1
4.019660310E0,-3.206948051E-3,2.504473627E-1,3.513898849E-1
4.022055883E0,-7.024743594E-3,2.565558553E-1,3.599417508E-1
4.024438175E0,-1.191152167E-2,2.625116110E-1,3.672719002E-1
4.026807185E0,-1.679829881E-2,2.649549842E-1,3.746020794E-1
4.029202758E0,-2.428117767E-2,2.698417902E-1,3.794888556E-1
4.031585050E0,-3.161134571E-2,2.698417902E-1,3.843756318E-1
4.033967393E0,-3.909422457E-2,2.673983872E-1,3.868190348E-1
4.036349685E0,-4.520269856E-2,2.649549842E-1,3.880407214E-1
4.038731977E0,-4.642439261E-2,2.564031482E-1,3.917058110E-1
4.041114268E0,-4.398100078E-2,2.431172132E-1,3.904841244E-1
4.043496560E0,-4.138490185E-2,2.225011140E-1,3.880407214E-1
4.045878852E0,-3.512371704E-2,1.994416267E-1,3.808632791E-1
4.048261143E0,-2.382304333E-2,1.727170646E-1,3.759764731E-1
4.050643487E0,-1.252236869E-2,1.461452097E-1,3.675773442E-1
4.053025779E0,3.665083554E-3,1.110214889E-1,3.567348123E-1
4.055408070E0,2.367033064E-2,7.467607409E-2,3.445178568E-1
4.057790362E0,4.001049697E-2,3.588727489E-2,3.348970115E-1
4.060172654E0,6.108472496E-2,-4.123218823E-3,3.228327632E-1
4.062554945E0,8.231166750E-2,-4.169032723E-2,3.132119179E-1
4.064937237E0,1.023169160E-1,-8.170082420E-2,3.023693860E-1
4.067319581E0,1.235438585E-1,-1.168245375E-1,2.901524603E-1
4.069701873E0,1.421747059E-1,-1.458397806E-1,2.768665254E-1
4.072084164E0,1.609582454E-1,-1.713426560E-1,2.672456801E-1
4.074466456E0,1.820324808E-1,-1.905843467E-1,2.538070381E-1
4.076848748E0,2.031067163E-1,-2.028012872E-1,2.391466945E-1
4.079231039E0,2.215848416E-1,-2.136438340E-1,2.234173864E-1
4.081613331E0,2.388412803E-1,-2.148655206E-1,2.063136548E-1
4.083995675E0,2.560977042E-1,-2.099787444E-1,1.866138428E-1
4.086377966E0,2.721324563E-1,-2.087570578E-1,1.646233350E-1
4.088760258E0,2.867927849E-1,-1.966928244E-1,1.438545287E-1
4.091142550E0,3.002314270E-1,-1.834068894E-1,1.192679256E-1
4.093524841E0,3.110739589E-1,-1.629435122E-1,9.605573118E-2
4.095907133E0,3.232909143E-1,-1.411057115E-1,7.269082218E-2
4.098289425E0,3.329117596E-1,-1.157555580E-1,4.932591692E-2
4.100671768E0,3.449759781E-1,-8.429691941E-2,2.611372061E-2
4.103054060E0,3.545968235E-1,-5.161659420E-2,2.748812549E-3
4.105436352E0,3.654393852E-1,-1.756185852E-2,-1.695101149E-2
4.107818643E0,3.750602305E-1,1.618745178E-2,-4.031591862E-2
4.110200935E0,3.884988427E-1,5.146388337E-2,-6.123743951E-2
4.112583227E0,3.967452943E-1,8.780929446E-2,-7.834116369E-2
4.114965518E0,4.089622498E-1,1.229330078E-1,-9.315420687E-2
4.117347862E0,4.198047817E-1,1.568350345E-1,-1.055238619E-1
4.119730154E0,4.332434237E-1,1.895153672E-1,-1.226275861E-1
4.122112445E0,4.453076422E-1,2.186833173E-1,-1.349972486E-1
4.124494737E0,4.587462842E-1,2.417428046E-1,-1.484358907E-1
4.126877029E0,4.721849263E-1,2.648022771E-1,-1.620272398E-1
4.129259320E0,4.882196784E-1,2.817533016E-1,-1.718007922E-1
4.131641612E0,5.016583204E-1,2.988570333E-1,-1.827960461E-1
4.134023956E0,5.164713860E-1,3.133646548E-1,-1.925695986E-1
4.136406248E0,5.286883116E-1,3.255815804E-1,-1.998997629E-1
4.138788539E0,5.435013771E-1,3.353551328E-1,-2.060082406E-1
4.141170831E0,5.583143830E-1,3.437542915E-1,-2.145601064E-1
4.143553123E0,5.731274486E-1,3.486410677E-1,-2.194468826E-1
4.145935414E0,5.879405141E-1,3.524588645E-1,-2.218902707E-1
4.148317706E0,6.041279435E-1,3.536805511E-1,-2.243336588E-1
4.150700050E0,6.213843822E-1,3.501681983E-1,-2.255553454E-1
4.153082341E0,6.363501549E-1,3.417690396E-1,-2.254026383E-1
4.155451352E0,6.537593007E-1,3.333698809E-1,-2.254026383E-1
4.157846925E0,6.737645268E-1,3.200839758E-1,-2.203631550E-1
4.160229216E0,6.899519563E-1,2.996205688E-1,-2.141019702E-1
4.162598227E0,7.075138092E-1,2.803788781E-1,-2.078407854E-1
4.164993800E0,7.275190949E-1,2.586938143E-1,-1.991362125E-1
4.167376143E0,7.438592315E-1,2.321219593E-1,-1.855448484E-1
4.169745154E0,7.638645172E-1,2.032594234E-1,-1.719534993E-1
4.172140727E0,7.814263701E-1,1.730224788E-1,-1.608055383E-1
4.174523018E0,7.965448499E-1,1.392731816E-1,-1.496575773E-1
4.176905310E0,8.092198968E-1,1.029277667E-1,-1.385096163E-1
4.179287602E0,8.218950033E-1,6.429167092E-2,-1.285833418E-1
4.181669945E0,8.357917666E-1,2.672456764E-2,-1.198787764E-1
4.184052237E0,8.484668136E-1,-1.557660475E-2,-1.087308154E-1
4.186434529E0,8.562551737E-1,-5.665608495E-2,-9.865183383E-2
4.188816820E0,8.638907075E-1,-9.544488788E-2,-9.254335612E-2
4.191199112E0,8.703046441E-1,-1.378987730E-1,-8.383878320E-2
4.193581404E0,8.754968047E-1,-1.753131598E-1,-7.757759839E-2
4.195963695E0,8.806890249E-1,-2.079934925E-1,-7.009471953E-2
4.198345987E0,8.834378719E-1,-2.418955117E-1,-6.383354217E-2
4.200728331E0,8.872556686E-1,-2.698417902E-1,-5.757235363E-2
4.203110623E0,8.912261724E-1,-2.939702570E-1,-5.268557742E-2
4.205492914E0,8.938222528E-1,-3.145863414E-1,-4.398100078E-2
4.207875206E0,8.964183331E-1,-3.339807391E-1,-3.909422457E-2
4.210257498E0,9.039012194E-1,-3.436015844E-1,-3.038965166E-2
4.212639789E0,9.077190161E-1,-3.532224298E-1,-2.428117767E-2
4.215022081E0,9.139801860E-1,-3.628432751E-1,-1.939439960E-2
4.217404425E0,9.228374958E-1,-3.677300513E-1,-1.557660475E-2
4.219786716E0,9.315420985E-1,-3.712424338E-1,-9.468132630E-3
4.222169008E0,9.402466416E-1,-3.723114133E-1,-4.581354558E-3
4.224551300E0,9.513946176E-1,-3.686463237E-1,-4.428642802E-3
4.226933591E0,9.600991607E-1,-3.674246371E-1,-3.206948051E-3
4.229315883E0,9.724688530E-1,-3.625378609E-1,-1.985253533E-3
4.231698175E0,9.834640622E-1,-3.552076817E-1,-4.428642802E-3
4.234080518E0,9.921686649E-1,-3.466558158E-1,-8.093725890E-3
4.236462810E0,1.004538298E0,-3.381039500E-1,-1.298050396E-2
4.238845102E0,1.014311910E0,-3.283303976E-1,-1.542389300E-2
4.241227393E0,1.022863746E0,-3.174878657E-1,-2.275406010E-2
4.243609685E0,1.032637239E0,-3.052709103E-1,-3.008422814E-2
4.245991977E0,1.038745761E0,-2.932066917E-1,-3.756710514E-2
4.248374268E0,1.042410851E0,-2.799207568E-1,-4.611896724E-2
4.250756612E0,1.044701576E0,-2.652604282E-1,-5.222744122E-2
4.253138904E0,1.048366666E0,-2.495311052E-1,-6.093201414E-2
4.255521195E0,1.048213840E0,-2.362451702E-1,-6.704048812E-2
4.257903487E0,1.046839476E0,-2.217375487E-1,-7.696675509E-2
4.260285779E0,1.046686769E0,-2.047865391E-1,-8.551861346E-2
4.262668070E0,1.044090629E0,-1.878355294E-1,-9.284878522E-2
4.265050414E0,1.037829518E0,-1.685938388E-1,-1.015533581E-1
4.267432706E0,1.033859015E0,-1.467560530E-1,-1.078145429E-1
4.269814998E0,1.028819442E0,-1.238492802E-1,-1.127013192E-1
4.272197289E0,1.019962192E0,-1.007898003E-1,-1.177408099E-1
4.274579581E0,1.011104941E0,-7.910472155E-2,-1.227803007E-1
4.276961873E0,1.002400398E0,-5.971032009E-2,-1.252236813E-1
4.279344164E0,9.947647452E-1,-4.275930673E-2,-1.265980899E-1
4.281726456E0,9.822424054E-1,-2.351761982E-2,-1.265980899E-1
4.284108800E0,9.735378027E-1,-7.788302377E-3,-1.279724985E-1
4.286491091E0,9.597937465E-1,4.275931045E-3,-1.291942000E-1
4.288873383E0,9.462023973E-1,1.511846948E-2,-1.293469071E-1
4.291255675E0,9.349017143E-1,2.596100792E-2,-1.305686086E-1
4.293637966E0,9.225320816E-1,3.329117596E-2,-1.281252056E-1
4.296020258E0,9.112313986E-1,4.169032723E-2,-1.282779276E-1
4.298402602E0,9.000834227E-1,4.886778072E-2,-1.282779276E-1
4.300784893E0,8.852704167E-1,5.238015205E-2,-1.258345395E-1
4.303167185E0,8.690829277E-1,5.604523420E-2,-1.223221645E-1
4.305549477E0,8.567132950E-1,6.077930331E-2,-1.186570823E-1
4.307931768E0,8.431219459E-1,5.711421743E-2,-1.162136942E-1
4.310314060E0,8.283088803E-1,5.589252338E-2,-1.101052165E-1
4.312696352E0,8.133431077E-1,5.344913527E-2,-1.052184403E-1
4.315078695E0,7.973083854E-1,4.734066129E-2,-1.015533581E-1
4.317460987E0,7.824953198E-1,4.001049697E-2,-9.666658193E-2
4.319843279E0,7.715001106E-1,3.023693897E-2,-9.177979827E-2
4.322225570E0,7.566870451E-1,2.290677279E-2,-9.071081877E-2
4.324607862E0,7.467607856E-1,1.191152167E-2,-8.704573661E-2
4.326990154E0,7.369872332E-1,9.162708884E-4,-8.704573661E-2
4.329372445E0,7.258392572E-1,-1.007897966E-2,-8.582404256E-2
4.331754737E0,7.146912813E-1,-2.458660305E-2,-8.567132801E-2
4.334137081E0,7.024743557E-1,-3.924693540E-2,-8.704573661E-2
4.336519373E0,6.925480962E-1,-5.757235363E-2,-8.811471611E-2
4.338901664E0,6.827745438E-1,-6.963659078E-2,-8.444963396E-2
4.341283956E0,6.740699410E-1,-7.941014320E-2,-8.444963396E-2
4.343666248E0,6.642963886E-1,-9.284878522E-2,-8.567132801E-2
4.346048539E0,6.545228362E-1,-1.061347127E-1,-8.200624585E-2
4.348430883E0,6.421532035E-1,-1.171299592E-1,-7.956285775E-2
4.350813175E0,6.336013079E-1,-1.293469071E-1,-7.711946964E-2
4.353195466E0,6.224533319E-1,-1.366770715E-1,-7.834116369E-2
4.355577758E0,6.125270724E-1,-1.427855492E-1,-7.467607409E-2
4.357960050E0,6.026008129E-1,-1.464506239E-1,-7.345438004E-2
4.360342341E0,5.938962698E-1,-1.464506239E-1,-7.360709459E-2
4.362724633E0,5.853443742E-1,-1.441599578E-1,-7.238540053E-2
4.365106925E0,5.752654076E-1,-1.380514801E-1,-7.238540053E-2
4.367489268E0,5.653391480E-1,-1.345391124E-1,-7.238540053E-2
4.369871560E0,5.554128885E-1,-1.261399537E-1,-7.131642103E-2
4.372253852E0,5.442649126E-1,-1.116323397E-1,-7.131642103E-2
4.374636143E0,5.305208564E-1,-9.468132257E-2,-6.902574003E-2
4.377018435E0,5.179984570E-1,-8.017370105E-2,-7.024743408E-2
4.379400727E0,5.068505406E-1,-6.688777357E-2,-7.024743408E-2
4.381783018E0,4.943281412E-1,-5.115845799E-2,-6.917845458E-2
4.384165362E0,4.818057716E-1,-3.420744836E-2,-6.673506647E-2
4.386547654E0,4.706578255E-1,-2.092151903E-2,-6.566607952E-2
4.388929945E0,4.593571424E-1,-1.130067464E-2,-6.444438547E-2
4.391312237E0,4.482091665E-1,-1.679830020E-3,-6.093201414E-2
4.393694529E0,4.407263100E-1,3.206948051E-3,-5.604523420E-2
4.396076820E0,4.333961308E-1,5.650337320E-3,-5.482354015E-2
4.398459164E0,4.283566475E-1,3.206948051E-3,-5.238015205E-2
4.400841456E0,4.198047817E-1,-6.108472589E-4,-5.238015205E-2
4.403223748E0,4.147652984E-1,-7.788302377E-3,-5.115845799E-2
4.405606039E0,4.098785222E-1,-1.634016447E-2,-5.115845799E-2
4.407988331E0,4.049917459E-1,-2.855710872E-2,-5.115845799E-2
4.410370623E0,4.039227366E-1,-4.672981426E-2,-5.222744122E-2
4.412752914E0,4.002576768E-1,-6.490252167E-2,-5.100574717E-2
4.415135258E0,3.990359604E-1,-8.551861346E-2,-5.467082933E-2
4.417517550E0,3.979669809E-1,-1.085781008E-1,-5.833591148E-2
4.419899841E0,3.956763148E-1,-1.401894391E-1,-6.184828654E-2
4.422282133E0,3.946073353E-1,-1.681357026E-1,-6.184828654E-2
4.424664425E0,3.970507085E-1,-1.924168915E-1,-6.780404598E-2
4.427046716E0,4.010212123E-1,-2.191414535E-1,-7.269082218E-2
4.429429008E0,4.034646153E-1,-2.420482337E-1,-7.513421029E-2
4.431811352E0,4.086568058E-1,-2.651077211E-1,-7.864658535E-2
4.434193643E0,4.136963189E-1,-2.832804024E-1,-8.231166750E-2
4.436575935E0,4.199574888E-1,-3.002314270E-1,-8.338065445E-2
4.438958227E0,4.236225784E-1,-3.087832928E-1,-8.460234851E-2
4.441340518E0,4.298837483E-1,-3.171824515E-1,-8.582404256E-2
4.443722810E0,4.373666346E-1,-3.184041381E-1,-8.704573661E-2
4.446105102E0,4.373666346E-1,-3.135173619E-1,-8.826743066E-2
4.448487445E0,4.347705245E-1,-3.075616062E-1,-9.193251282E-2
4.450869737E0,4.297310412E-1,-2.942756712E-1,-9.575030953E-2
4.453252029E0,4.246915579E-1,-2.834331393E-1,-1.006370857E-1
4.455634320E0,4.184303582E-1,-2.677038014E-1,-1.030804738E-1
4.458016612E0,4.083513916E-1,-2.483094037E-1,-1.068982705E-1
4.460398904E0,3.994941115E-1,-2.289150059E-1,-1.107160673E-1
4.462781248E0,3.907895386E-1,-2.096733153E-1,-1.119377613E-1
4.465163539E0,3.819322586E-1,-1.902789176E-1,-1.157555580E-1
4.467545831E0,3.744493723E-1,-1.721062213E-1,-1.145338640E-1
4.469928123E0,3.694098890E-1,-1.539335102E-1,-1.122431830E-1
4.472310414E0,3.643703759E-1,-1.406475753E-1,-1.110214889E-1
4.474692706E0,3.568875194E-1,-1.236965731E-1,-1.049130186E-1
4.477074998E0,3.506263196E-1,-1.102579311E-1,-9.758284688E-2
4.479457341E0,3.469612300E-1,-9.697200358E-2,-9.025268257E-2
4.481839633E0,3.468085229E-1,-8.842013776E-2,-8.292251825E-2
4.484221925E0,3.494046330E-1,-7.742489129E-2,-7.192726433E-2
4.486604216E0,3.530697227E-1,-7.620319724E-2,-6.337540597E-2
4.488986508E0,3.568875194E-1,-6.887302548E-2,-5.482354015E-2
4.491368800E0,3.631486893E-1,-6.383354217E-2,-4.627167806E-2
4.493751091E0,3.680354655E-1,-5.772506446E-2,-3.649812192E-2
4.496133383E0,3.742966652E-1,-5.161659420E-2,-3.283303976E-2
4.498515727E0,3.791834414E-1,-5.039490014E-2,-2.657185495E-2
4.500898018E0,3.842229247E-1,-5.024218559E-2,-2.412846684E-2
4.503280310E0,3.878880143E-1,-5.146388337E-2,-2.046338283E-2
4.505662602E0,3.917058110E-1,-5.635065958E-2,-1.679829881E-2
4.508044893E0,3.967452943E-1,-5.986303091E-2,-1.801999472E-2
4.510427185E0,3.979669809E-1,-6.230641901E-2,-1.679829881E-2
4.512809477E0,3.979669809E-1,-6.474980712E-2,-1.557660475E-2
4.515191820E0,4.004103839E-1,-6.230641901E-2,-1.679829881E-2
4.517574112E0,4.016320705E-1,-6.108472496E-2,-1.924168877E-2
4.519956404E0,4.091149569E-1,-5.253286287E-2,-2.046338283E-2
4.522338695E0,4.101839364E-1,-4.169032723E-2,-2.412846684E-2
4.524720987E0,4.150707126E-1,-2.473931387E-2,-2.779355086E-2
4.527103279E0,4.187358022E-1,-6.566607859E-3,-3.023693897E-2
4.529485570E0,4.234698713E-1,1.175880991E-2,-3.161134571E-2
4.531867914E0,4.271349311E-1,3.237490356E-2,-3.283303976E-2
4.534250206E0,4.332434237E-1,5.299099907E-2,-3.161134571E-2
4.536632498E0,4.393518865E-1,7.727217674E-2,-2.916795574E-2
4.539014789E0,4.466820657E-1,9.559759498E-2,-2.550287358E-2
4.541397081E0,4.515688419E-1,1.137702987E-1,-1.832541823E-2
4.543779373E0,4.588989913E-1,1.296523362E-1,-1.221694518E-2
4.546161716E0,4.676035643E-1,1.443126649E-1,-3.512371797E-3
4.548544008E0,4.775298536E-1,1.614163816E-1,7.482878864E-3
4.550926300E0,4.886777997E-1,1.711899489E-1,2.214321308E-2
4.553308591E0,5.036435723E-1,1.835595965E-1,3.680354729E-2
4.555690883E0,5.184566379E-1,1.933331639E-1,5.528167635E-2
4.558073175E0,5.372401476E-1,2.020377368E-1,7.498150319E-2
4.560455466E0,5.558710098E-1,2.107423097E-1,9.697200358E-2
4.562837810E0,5.807630420E-1,2.159345001E-1,1.203369126E-1
4.565220102E0,6.056550741E-1,2.185306102E-1,1.461452097E-1
4.567602393E0,6.293253899E-1,2.212794125E-1,1.707318127E-1
4.569984685E0,6.568135023E-1,2.203631550E-1,1.989834905E-1
4.572366977E0,6.867450476E-1,2.157817930E-1,2.260134816E-1
4.574749268E0,7.142331600E-1,2.075353563E-1,2.506000996E-1
4.577131560E0,7.404996157E-1,1.944021434E-1,2.753393948E-1
4.579513904E0,7.643226385E-1,1.765348613E-1,2.987042964E-1
4.581896195E0,7.867712975E-1,1.560714692E-1,3.208475113E-1
4.584278487E0,8.055548072E-1,1.357607991E-1,3.381039500E-1
4.586660779E0,8.232693672E-1,1.067455560E-1,3.516952991E-1
4.589043070E0,8.370134830E-1,7.284353673E-2,3.603998721E-1
4.591412081E0,8.521319032E-1,3.542914242E-2,3.605526090E-1
4.593807654E0,8.684720993E-1,-5.803049076E-3,3.570402265E-1
4.596189998E0,8.809944391E-1,-5.070032179E-2,3.486410677E-1
4.598559008E0,9.022213817E-1,-8.338065445E-2,3.329117596E-1
4.600954581E0,9.257390499E-1,-1.136175916E-1,3.121429384E-1
4.603336873E0,9.494093657E-1,-1.464506239E-1,2.915268540E-1
4.605705883E0,9.779664874E-1,-1.791309565E-1,2.658712566E-1
4.608101456E0,1.004080176E0,-2.118112892E-1,2.391466945E-1
4.610483748E0,1.032484531E0,-2.434226274E-1,2.148655206E-1
4.612852810E0,1.057376623E0,-2.713688910E-1,1.855448484E-1
4.615248383E0,1.078450799E0,-3.016058207E-1,1.586675793E-1
4.617630675E0,1.095707297E0,-3.271087110E-1,1.331647038E-1
4.619999685E0,1.109298587E0,-3.466558158E-1,1.050657257E-1
4.622395258E0,1.116628766E0,-3.576510847E-1,7.681404054E-2
4.624777550E0,1.117697716E0,-3.614688516E-1,4.993676394E-2
4.627146612E0,1.118766785E0,-3.494046330E-1,2.168507688E-2
4.629542185E0,1.112200141E0,-3.217637837E-1,-6.566607859E-3
4.631924477E0,1.105633497E0,-2.770192325E-1,-3.741439432E-2
4.634306768E0,1.097692490E0,-2.202104330E-1,-6.444438547E-2
4.636689060E0,1.092347622E0,-1.476723254E-1,-8.918370306E-2
4.639071352E0,1.091736794E0,-7.131642103E-2,-1.139230132E-1
4.641453643E0,1.093569279E0,1.588202827E-2,-1.337755471E-1
4.643835987E0,1.103037477E0,1.056765765E-1,-1.511846930E-1
4.646218279E0,1.114796281E0,1.940967143E-1,-1.684411317E-1
4.648600570E0,1.130372882E0,2.730487287E-1,-1.808107942E-1
4.650982862E0,1.146102190E0,3.445178568E-1,-1.908897758E-1
4.653365154E0,1.156944752E0,4.065188468E-1,-1.995943487E-1
4.655734164E0,1.172674060E0,4.585935771E-1,-2.057028115E-1
4.658129737E0,1.188556075E0,5.012001991E-1,-2.082989216E-1
4.660512081E0,1.203216434E0,5.375455618E-1,-2.131856978E-1
4.662881091E0,1.221694469E0,5.705313683E-1,-2.131856978E-1
4.665276664E0,1.237729311E0,5.972558856E-1,-2.095206082E-1
4.667658956E0,1.256207347E0,6.192464232E-1,-2.070772201E-1
4.670027966E0,1.283390045E0,6.387935281E-1,-1.997470558E-1
4.672423539E0,1.309351087E0,6.510104537E-1,-1.911951900E-1
4.674805831E0,1.341725945E0,6.537593007E-1,-1.812689304E-1
4.677174893E0,1.372726560E0,6.455128193E-1,-1.713426560E-1
4.679570466E0,1.405101418E0,6.287145615E-1,-1.601946950E-1
4.681952758E0,1.438850760E0,5.998520255E-1,-1.537808031E-1
4.684321768E0,1.467560530E0,5.696150661E-1,-1.499630064E-1
4.686717341E0,1.492452621E0,5.358657837E-1,-1.461452097E-1
4.689099633E0,1.513832211E0,5.007420182E-1,-1.398840249E-1
4.691468695E0,1.532615781E0,4.559974670E-1,-1.360662282E-1
4.693864268E0,1.549108624E0,4.100312293E-1,-1.298050433E-1
4.696246560E0,1.560562015E0,3.567348123E-1,-1.258345395E-1
4.698615570E0,1.570793748E0,3.022166789E-1,-1.220167428E-1
4.701011143E0,1.574764252E0,2.428117841E-1,-1.206423342E-1
4.703393435E0,1.578887463E0,1.858502775E-1,-1.180462316E-1
4.705775727E0,1.575375080E0,1.301104724E-1,-1.154501289E-1
4.708158070E0,1.568350315E0,7.314895838E-2,-1.116323397E-1
4.710540362E0,1.558729529E0,1.603474095E-2,-1.065928489E-1
4.712922654E0,1.544221878E0,-3.985778242E-2,-1.015533581E-1
4.715304945E0,1.524674773E0,-9.086353332E-2,-9.544488788E-2
4.717687237E0,1.503905892E0,-1.441599578E-1,-8.429691941E-2
4.720069529E0,1.481915474E0,-1.953184158E-1,-7.818844914E-2
4.722451820E0,1.458550572E0,-2.402156889E-1,-7.070557028E-2
4.724834164E0,1.431673288E0,-2.816005945E-1,-6.093201414E-2
4.727216456E0,1.400825500E0,-3.203893900E-1,-5.100574717E-2
4.729598748E0,1.375017166E0,-3.532224298E-1,-4.001049697E-2
4.731981039E0,1.347987175E0,-3.800997138E-1,-3.023693897E-2
4.734350050E0,1.319735527E0,-3.994941115E-1,-1.801999472E-2
4.736745623E0,1.293774486E0,-4.153761268E-1,-3.359660041E-3
4.739127966E0,1.269187927E0,-4.263713956E-1,1.130067464E-2
4.741496977E0,1.245670319E0,-4.337015450E-1,2.596100792E-2
4.743892550E0,1.224748731E0,-4.385883212E-1,4.306473210E-2
4.746274841E0,1.202605486E0,-4.398100376E-1,6.139015034E-2
4.748643852E0,1.183974743E0,-4.324798584E-1,7.727217674E-2
