"Time (s)","Acceleration x (m/s^2)","Acceleration y (m/s^2)","Acceleration z (m/s^2)"
1.450165900E-2,-1.083948612E0,3.852444589E-1,9.744770050E0
1.669288400E-2,-1.244267821E0,3.290131092E-1,9.939187050E0
1.889046800E-2,-1.317847013E0,2.721835673E-1,1.006241703E1
2.108610700E-2,-1.334596872E0,1.716850251E-1,1.017188931E1
2.331230300E-2,-1.384247899E0,9.092725813E-2,1.022453117E1
2.555278200E-2,-1.420140266E0,-2.392822690E-2,1.028136063E1
2.779985200E-2,-1.454237938E0,-7.597211748E-2,1.032383347E1
3.003685100E-2,-1.478764415E0,-1.136590764E-1,1.031904793E1
3.226341400E-2,-1.507478237E0,-1.226321608E-1,1.028554821E1
3.449699600E-2,-1.545165181E0,-1.076770201E-1,1.021376324E1
3.673497100E-2,-1.563111424E0,-9.750752151E-2,1.011805058E1
3.897184900E-2,-1.542174220E0,-2.512463741E-2,9.994221687E0
4.120866600E-2,-1.478166223E0,2.691925503E-2,9.870991707E0
4.344511600E-2,-1.356730461E0,8.315058798E-2,9.738189697E0
4.568156600E-2,-1.220937729E0,1.244267747E-1,9.667601585E0
4.793095600E-2,-1.077368379E0,1.226321608E-1,9.631111145E0
5.016710100E-2,-9.816554785E-1,1.112662554E-1,9.646066666E0
5.240477100E-2,-9.056833982E-1,9.092725813E-2,9.680164337E0
5.464238100E-2,-8.488538265E-1,7.058826834E-2,9.704689980E0
5.687852600E-2,-8.440681696E-1,8.015955985E-2,9.728618622E0
5.911528200E-2,-8.338986635E-1,8.494520187E-2,9.714262009E0
6.135161000E-2,-8.482556343E-1,9.032905847E-2,9.680762291E0
6.358867000E-2,-8.428717852E-1,9.032905847E-2,9.628718376E0
6.582597500E-2,-8.512466550E-1,1.244267747E-1,9.566504478E0
6.806352400E-2,-8.793623447E-1,1.345962733E-1,9.489934921E0
7.029649500E-2,-9.032905698E-1,1.208375469E-1,9.466006279E0
7.252537700E-2,-9.613165259E-1,1.022931710E-1,9.498908043E0
7.477244700E-2,-9.906286001E-1,1.028913707E-1,9.512666702E0
7.700651700E-2,-1.029511929E0,8.853443712E-2,9.626923561E0
7.923680200E-2,-1.054038405E0,9.332008660E-2,9.702896118E0
8.148326200E-2,-1.094118118E0,5.982056633E-2,9.812367439E0
8.372056700E-2,-1.142572761E0,6.460621208E-2,9.873384476E0
8.596116800E-2,-1.152742267E0,5.024927482E-2,9.930811882E0
8.819413900E-2,-1.176670551E0,3.649054468E-2,9.930811882E0
9.043138300E-2,-1.181456208E0,4.606183618E-2,9.935597420E0
9.266697900E-2,-1.181456208E0,5.084748194E-2,9.921240807E0
9.490410000E-2,-1.161715388E0,6.041877344E-2,9.873384476E0
9.713792500E-2,-1.098903775E0,6.939185411E-2,9.811769485E0
9.936577000E-2,-1.035493970E0,9.272187948E-2,9.726823807E0
1.016147930E-1,-9.870393276E-1,8.255238086E-2,9.674779892E0
1.038523420E-1,-9.535398483E-1,8.733802289E-2,9.641879082E0
1.060916610E-1,-9.242277741E-1,8.673982322E-2,9.603593826E0
1.083259750E-1,-9.337990284E-1,9.152546525E-2,9.594022751E0
1.105615710E-1,-9.427721500E-1,1.160518974E-1,9.594022751E0
1.127985700E-1,-9.625129104E-1,9.690931439E-2,9.627521515E0
1.150352040E-1,-9.870393276E-1,8.255238086E-2,9.646066666E0
1.172722640E-1,-1.010967612E0,7.836493850E-2,9.689137459E0
1.195093850E-1,-1.035493970E0,6.400800496E-2,9.717252731E0
1.217471180E-1,-1.031306505E0,7.357929647E-2,9.765109062E0
1.239829570E-1,-1.055832982E0,5.443671346E-2,9.793225288E0
1.262205060E-1,-1.074377418E0,7.836493850E-2,9.817152977E0
1.284560410E-1,-1.083948612E0,8.315058798E-2,9.826724052E0
1.306931620E-1,-1.083948612E0,7.896314561E-2,9.793225288E0
1.329296740E-1,-1.098305583E0,6.460621208E-2,9.769296646E0
1.351665510E-1,-1.083948612E0,6.939185411E-2,9.750154495E0
1.374038560E-1,-1.059422255E0,7.417750359E-2,9.731609344E0
1.396414050E-1,-1.064207911E0,7.896314561E-2,9.712467194E0
1.418775490E-1,-1.035493970E0,8.793623000E-2,9.726823807E0
1.441150370E-1,-1.001994491E0,6.819544733E-2,9.717850685E0
1.463506330E-1,-9.924231768E-1,6.819544733E-2,9.693922997E0
1.485886100E-1,-9.637092948E-1,6.759724021E-2,9.698708534E0
1.508278670E-1,-9.966106415E-1,9.212367237E-2,9.717850685E0
1.530610210E-1,-9.822536707E-1,9.212367237E-2,9.689137459E0
1.552981430E-1,-1.006181955E0,1.016949639E-1,9.703494072E0
1.575349600E-1,-1.030708313E0,7.357929647E-2,9.693324089E0
1.597718370E-1,-1.035493970E0,6.400800496E-2,9.722038269E0
1.620096300E-1,-1.045065284E0,6.879365444E-2,9.736394882E0
1.642451650E-1,-1.059422255E0,7.357929647E-2,9.741181374E0
1.664822860E-1,-1.059422255E0,7.836493850E-2,9.741181374E0
1.687187970E-1,-1.040877819E0,6.879365444E-2,9.750752449E0
1.709563460E-1,-1.049850941E0,7.836493850E-2,9.750752449E0
1.731948710E-1,-1.054636598E0,8.315058798E-2,9.765109062E0
1.754304060E-1,-1.045065284E0,7.836493850E-2,9.755537987E0
1.776663070E-1,-1.040877819E0,5.922235921E-2,9.745966911E0
1.799036120E-1,-1.035493970E0,6.879365444E-2,9.707681656E0
1.821396350E-1,-1.006780148E0,7.298108935E-2,9.717850685E0
1.843765730E-1,-1.006780148E0,7.776673883E-2,9.708279610E0
1.866132680E-1,-1.006780148E0,6.819544733E-2,9.722636223E0
1.888501450E-1,-1.006780148E0,7.836493850E-2,9.698708534E0
1.910875100E-1,-1.021137118E0,6.400800496E-2,9.698708534E0
1.933249980E-1,-1.021137118E0,6.400800496E-2,9.707681656E0
1.955611430E-1,-1.016351461E0,7.836493850E-2,9.693922997E0
1.977985700E-1,-1.021137118E0,7.836493850E-2,9.707681656E0
2.000339830E-1,-1.045065284E0,7.357929647E-2,9.717252731E0
2.022712870E-1,-1.054636598E0,6.879365444E-2,9.736394882E0
2.045078600E-1,-1.036092162E0,6.879365444E-2,9.760323524E0
2.067449810E-1,-1.049850941E0,8.315058798E-2,9.736394882E0
2.089819810E-1,-1.055234790E0,6.400800496E-2,9.745966911E0
2.112183700E-1,-1.030708313E0,7.836493850E-2,9.760323524E0
2.134509750E-1,-1.030708313E0,7.357929647E-2,9.726823807E0
2.156944440E-1,-1.025922656E0,8.315058798E-2,9.745966911E0
2.179338240E-1,-1.011565804E0,8.733802289E-2,9.726823807E0
2.201667350E-1,-1.021137118E0,6.879365444E-2,9.712467194E0
2.224023910E-1,-1.025922656E0,7.357929647E-2,9.717252731E0
2.246381690E-1,-1.021137118E0,8.315058798E-2,9.702896118E0
2.268765730E-1,-1.016351461E0,6.400800496E-2,9.707681656E0
2.291140610E-1,-1.035493970E0,7.357929647E-2,9.717252731E0
2.313501450E-1,-1.035493970E0,8.315058798E-2,9.731609344E0
2.335876330E-1,-1.049850941E0,8.793623000E-2,9.741181374E0
2.358230450E-1,-1.025922656E0,7.357929647E-2,9.736394882E0
2.380573590E-1,-1.021137118E0,7.357929647E-2,9.722038269E0
2.402819680E-1,-1.030708313E0,7.357929647E-2,9.736394882E0
2.425220810E-1,-1.035493970E0,7.836493850E-2,9.741181374E0
2.447710430E-1,-1.021137118E0,7.357929647E-2,9.726823807E0
2.470085310E-1,-1.035493970E0,7.357929647E-2,9.741181374E0
2.492353990E-1,-1.045065284E0,7.357929647E-2,9.726823807E0
2.514819200E-1,-1.040279627E0,7.357929647E-2,9.712467194E0
2.537175160E-1,-1.045065284E0,7.357929647E-2,9.731609344E0
2.559576280E-1,-1.021137118E0,8.315058798E-2,9.726823807E0
2.581882180E-1,-1.025922656E0,6.400800496E-2,9.717252731E0
2.604163680E-1,-1.015753269E0,9.750752151E-2,9.717252731E0
2.626655740E-1,-1.021137118E0,8.733802289E-2,9.745966911E0
2.649029400E-1,-1.030708313E0,6.879365444E-2,9.731609344E0
2.671393900E-1,-1.011565804E0,7.298108935E-2,9.736394882E0
2.693652820E-1,-1.025922656E0,7.836493850E-2,9.741181374E0
2.716123520E-1,-1.021137118E0,7.836493850E-2,9.712467194E0
2.738491680E-1,-1.030708313E0,7.836493850E-2,9.745966911E0
2.760887920E-1,-1.040279627E0,7.836493850E-2,9.755537987E0
2.783227400E-1,-1.016351461E0,8.315058798E-2,9.703494072E0
2.805599230E-1,-1.025922656E0,7.836493850E-2,9.731609344E0
2.827975940E-1,-1.025922656E0,7.357929647E-2,9.731609344E0
2.850334940E-1,-1.035493970E0,7.836493850E-2,9.712467194E0
2.872710430E-1,-1.049850941E0,8.793623000E-2,9.722038269E0
2.895065780E-1,-1.016351461E0,8.315058798E-2,9.712467194E0
2.917437000E-1,-1.025922656E0,7.357929647E-2,9.726823807E0
2.939802720E-1,-1.036092162E0,5.922235921E-2,9.731609344E0
2.962173930E-1,-1.035493970E0,7.357929647E-2,9.731609344E0
2.984546370E-1,-1.016351461E0,8.793623000E-2,9.717252731E0
3.006919420E-1,-1.006780148E0,5.383851007E-2,9.703494072E0
3.029281480E-1,-1.011565804E0,7.776673883E-2,9.736394882E0
3.051650860E-1,-1.021137118E0,8.315058798E-2,9.731609344E0
3.073967750E-1,-1.030708313E0,8.315058798E-2,9.731609344E0
3.096353010E-1,-1.016351461E0,9.212367237E-2,9.736394882E0
3.118746200E-1,-1.011565804E0,8.733802289E-2,9.731609344E0
3.141125350E-1,-1.035493970E0,8.315058798E-2,9.745966911E0
3.163496570E-1,-1.035493970E0,9.272187948E-2,9.755537987E0
3.185864730E-1,-1.016351461E0,6.340979785E-2,9.736394882E0
3.208226790E-1,-1.034895778E0,1.070788130E-1,9.736394882E0
3.230604110E-1,-1.025922656E0,7.357929647E-2,9.741181374E0
3.252959460E-1,-1.021137118E0,7.357929647E-2,9.731609344E0
3.275327620E-1,-1.035493970E0,8.315058798E-2,9.731609344E0
3.297692730E-1,-1.045065284E0,8.793623000E-2,9.722038269E0
3.320063340E-1,-1.021137118E0,8.733802289E-2,9.745966911E0
3.342434550E-1,-1.025922656E0,8.793623000E-2,9.722038269E0
3.364810650E-1,-1.035493970E0,7.357929647E-2,9.702896118E0
3.387173930E-1,-1.035493970E0,5.922235921E-2,9.717252731E0
3.409548810E-1,-1.035493970E0,8.315058798E-2,9.731609344E0
3.431902330E-1,-1.011565804E0,6.819544733E-2,9.717252731E0
3.454272320E-1,-1.040279627E0,7.357929647E-2,9.726823807E0
3.476638050E-1,-1.021137118E0,7.357929647E-2,9.726823807E0
3.499008650E-1,-1.025922656E0,8.793623000E-2,9.736394882E0
3.521377420E-1,-1.025922656E0,8.793623000E-2,9.741181374E0
3.543755350E-1,-1.025922656E0,8.315058798E-2,9.726823807E0
3.566116190E-1,-1.026520967E0,5.922235921E-2,9.736394882E0
3.588492290E-1,-1.025922656E0,7.357929647E-2,9.731609344E0
3.610847640E-1,-1.025922656E0,8.793623000E-2,9.736394882E0
3.633218250E-1,-1.021137118E0,7.357929647E-2,9.717252731E0
3.655583970E-1,-1.030708313E0,8.793623000E-2,9.722038269E0
3.677954570E-1,-1.030708313E0,7.836493850E-2,9.702896118E0
3.700325180E-1,-1.030708313E0,8.315058798E-2,9.731609344E0
3.722670760E-1,-1.035493970E0,8.315058798E-2,9.707681656E0
3.744941880E-1,-1.030708313E0,8.793623000E-2,9.717252731E0
3.767437610E-1,-1.025922656E0,9.272187948E-2,9.731609344E0
3.789795400E-1,-1.045065284E0,9.750752151E-2,9.726823807E0
3.812194080E-1,-1.025922656E0,8.315058798E-2,9.731609344E0
3.834531110E-1,-1.025922656E0,7.836493850E-2,9.726823807E0
3.856896830E-1,-1.045065284E0,7.836493850E-2,9.722038269E0
3.879270490E-1,-1.049850941E0,8.793623000E-2,9.722038269E0
3.901645370E-1,-1.016351461E0,7.836493850E-2,9.708279610E0
3.924007430E-1,-1.025922656E0,7.357929647E-2,9.722038269E0
3.946382310E-1,-1.030708313E0,8.315058798E-2,9.722038269E0
3.968737660E-1,-1.020538807E0,9.750752151E-2,9.702896118E0
3.991077130E-1,-1.030708313E0,8.793623000E-2,9.712467194E0
4.013357410E-1,-1.025922656E0,7.357929647E-2,9.726823807E0
4.035845810E-1,-1.006780148E0,7.776673883E-2,9.722636223E0
4.058218850E-1,-1.030708313E0,8.793623000E-2,9.717252731E0
4.080620590E-1,-1.025922656E0,7.836493850E-2,9.722038269E0
4.102952130E-1,-1.025922656E0,7.836493850E-2,9.722038269E0
4.125326400E-1,-1.035493970E0,8.315058798E-2,9.722038269E0
4.147682970E-1,-1.021137118E0,7.298108935E-2,9.745966911E0
4.170035270E-1,-1.030708313E0,8.315058798E-2,9.741181374E0
4.192314930E-1,-1.040279627E0,8.793623000E-2,9.736394882E0
4.214791120E-1,-1.025922656E0,7.836493850E-2,9.741181374E0
4.237159290E-1,-1.045065284E0,6.400800496E-2,9.726823807E0
4.259562840E-1,-1.025922656E0,7.357929647E-2,9.736394882E0
4.281897440E-1,-1.030708313E0,7.836493850E-2,9.741181374E0
4.304272930E-1,-1.025922656E0,7.836493850E-2,9.722038269E0
4.326628280E-1,-1.045065284E0,6.879365444E-2,9.731609344E0
4.348997050E-1,-1.030708313E0,7.836493850E-2,9.745966911E0
4.371335920E-1,-1.021137118E0,8.793623000E-2,9.736394882E0
4.393576530E-1,-1.035493970E0,8.793623000E-2,9.745966911E0
4.415939190E-1,-1.035493970E0,7.836493850E-2,9.741181374E0
4.438484360E-1,-1.030708313E0,8.793623000E-2,9.726823807E0
4.460872060E-1,-1.025922656E0,7.836493850E-2,9.736394882E0
4.483260360E-1,-1.030708313E0,7.836493850E-2,9.750752449E0
4.505572980E-1,-1.016351461E0,8.315058798E-2,9.722636223E0
4.527942370E-1,-1.035493970E0,7.836493850E-2,9.722038269E0
4.550309920E-1,-1.030110121E0,9.272187948E-2,9.717252731E0
4.572678080E-1,-1.035493970E0,8.793623000E-2,9.741181374E0
4.595049910E-1,-1.040279627E0,8.793623000E-2,9.741181374E0
4.617426620E-1,-1.030708313E0,6.879365444E-2,9.707681656E0
4.639785630E-1,-1.025922656E0,6.879365444E-2,9.722038269E0
4.662161730E-1,-1.016351461E0,7.776673883E-2,9.736394882E0
4.684518300E-1,-1.021137118E0,7.836493850E-2,9.741181374E0
4.706885850E-1,-1.016351461E0,6.879365444E-2,9.712467194E0
4.729255840E-1,-1.011565804E0,7.776673883E-2,9.731609344E0
4.751624010E-1,-1.030708313E0,9.272187948E-2,9.731609344E0
4.773998270E-1,-1.025922656E0,7.357929647E-2,9.726823807E0
4.796372540E-1,-1.025922656E0,6.879365444E-2,9.702896118E0
4.818733380E-1,-1.035493970E0,7.836493850E-2,9.726823807E0
4.841105820E-1,-1.045065284E0,7.357929647E-2,9.722038269E0
4.863462390E-1,-1.016351461E0,7.298108935E-2,9.741181374E0
4.885834820E-1,-1.025922656E0,6.400800496E-2,9.731609344E0
4.908198720E-1,-1.030708313E0,7.357929647E-2,9.726823807E0
4.930569320E-1,-1.025922656E0,6.400800496E-2,9.731609344E0
4.952940530E-1,-1.035493970E0,7.836493850E-2,9.702896118E0
4.975320300E-1,-1.035493970E0,6.879365444E-2,9.722038269E0
4.997676860E-1,-1.030708313E0,6.400800496E-2,9.722038269E0
5.020054790E-1,-1.030708313E0,7.836493850E-2,9.712467194E0
5.042384500E-1,-1.016351461E0,7.357929647E-2,9.726823807E0
5.064650740E-1,-1.030708313E0,7.357929647E-2,9.722038269E0
5.087023790E-1,-1.021137118E0,7.357929647E-2,9.722038269E0
5.109484720E-1,-1.030110121E0,9.750752151E-2,9.717252731E0
5.131793690E-1,-1.040279627E0,6.879365444E-2,9.731609344E0
5.154296130E-1,-1.045065284E0,8.793623000E-2,9.736394882E0
5.176624010E-1,-1.040279627E0,7.357929647E-2,9.736394882E0
5.199026960E-1,-1.030708313E0,8.315058798E-2,9.722038269E0
5.221354230E-1,-1.035493970E0,7.836493850E-2,9.736394882E0
5.243723010E-1,-1.049850941E0,8.793623000E-2,9.736394882E0
5.266089340E-1,-1.035493970E0,7.357929647E-2,9.707681656E0
5.288459330E-1,-1.011565804E0,6.340979785E-2,9.726823807E0
5.310830550E-1,-1.025922656E0,6.879365444E-2,9.712467194E0
5.333206040E-1,-1.021137118E0,7.836493850E-2,9.722038269E0
5.355566880E-1,-1.025922656E0,8.315058798E-2,9.726823807E0
5.377942370E-1,-1.030708313E0,7.357929647E-2,9.722038269E0
5.400298320E-1,-1.030708313E0,5.922235921E-2,9.717252731E0
5.422668930E-1,-1.016351461E0,6.340979785E-2,9.731609344E0
5.445034650E-1,-1.030708313E0,7.357929647E-2,9.745966911E0
5.467405260E-1,-1.030708313E0,6.400800496E-2,9.712467194E0
5.489775860E-1,-1.040279627E0,6.400800496E-2,9.717252731E0
5.512150740E-1,-1.025922656E0,7.357929647E-2,9.722038269E0
5.534509750E-1,-1.030708313E0,7.357929647E-2,9.726823807E0
5.556887680E-1,-1.025922656E0,7.357929647E-2,9.712467194E0
5.579243030E-1,-1.016351461E0,7.836493850E-2,9.731609344E0
5.601612410E-1,-1.021137118E0,8.793623000E-2,9.722038269E0
5.623979970E-1,-1.035493970E0,8.793623000E-2,9.712467194E0
5.646350570E-1,-1.035493970E0,7.357929647E-2,9.722038269E0
5.668721780E-1,-1.011565804E0,7.776673883E-2,9.726823807E0
5.691096660E-1,-1.025922656E0,7.357929647E-2,9.736394882E0
5.713427590E-1,-1.021137118E0,8.793623000E-2,9.722038269E0
5.735683450E-1,-1.021137118E0,9.272187948E-2,9.726823807E0
5.758069320E-1,-1.036092162E0,6.879365444E-2,9.745966911E0
5.780544290E-1,-1.030708313E0,8.315058798E-2,9.731609344E0
5.802894150E-1,-1.025922656E0,7.357929647E-2,9.722038269E0
5.825325790E-1,-1.030708313E0,7.357929647E-2,9.736394882E0
5.847666490E-1,-1.030708313E0,8.315058798E-2,9.717252731E0
5.870038930E-1,-1.006780148E0,7.298108935E-2,9.717850685E0
5.892329570E-1,-1.045065284E0,6.879365444E-2,9.722038269E0
5.914778300E-1,-1.011565804E0,7.776673883E-2,9.736394882E0
5.937104960E-1,-1.012163997E0,6.340979785E-2,9.750752449E0
5.959376690E-1,-1.016351461E0,7.776673883E-2,9.741181374E0
5.981723490E-1,-1.035493970E0,6.400800496E-2,9.731609344E0
6.004121570E-1,-1.025922656E0,8.315058798E-2,9.731609344E0
6.026641100E-1,-1.040279627E0,8.315058798E-2,9.731609344E0
6.049016590E-1,-1.050449133E0,6.879365444E-2,9.760323524E0
6.071351790E-1,-1.035493970E0,7.836493850E-2,9.736394882E0
6.093618640E-1,-1.030708313E0,6.879365444E-2,9.736394882E0
6.116078960E-1,-1.021137118E0,8.315058798E-2,9.736394882E0
6.138447740E-1,-1.035493970E0,7.357929647E-2,9.731609344E0
6.160841530E-1,-1.021137118E0,9.272187948E-2,9.726823807E0
6.183154160E-1,-1.030708313E0,7.836493850E-2,9.722038269E0
6.205438700E-1,-1.021137118E0,7.836493850E-2,9.707681656E0
6.227935040E-1,-1.016351461E0,8.315058798E-2,9.726823807E0
6.250294050E-1,-1.040279627E0,8.793623000E-2,9.712467194E0
6.272698230E-1,-1.025922656E0,7.357929647E-2,9.726823807E0
6.295021840E-1,-1.016351461E0,8.793623000E-2,9.722038269E0
6.317394880E-1,-1.016351461E0,8.315058798E-2,9.726823807E0
6.339758160E-1,-1.030708313E0,9.272187948E-2,9.736394882E0
6.362129990E-1,-1.025922656E0,8.315058798E-2,9.712467194E0
6.384470070E-1,-1.045065284E0,6.400800496E-2,9.731609344E0
6.406748520E-1,-1.025922656E0,8.793623000E-2,9.717252731E0
6.429236920E-1,-1.026520967E0,5.922235921E-2,9.741181374E0
6.451614240E-1,-1.030708313E0,8.793623000E-2,9.741181374E0
6.474001940E-1,-1.039681435E0,8.793623000E-2,9.702896118E0
6.496338360E-1,-1.025922656E0,7.836493850E-2,9.717252731E0
6.518703480E-1,-1.021137118E0,5.922235921E-2,9.722038269E0
6.541074080E-1,-1.040279627E0,7.357929647E-2,9.731609344E0
6.563445900E-1,-1.031306505E0,5.922235921E-2,9.731609344E0
6.585823230E-1,-1.016351461E0,8.255238086E-2,9.736394882E0
6.608182230E-1,-1.011565804E0,8.255238086E-2,9.741181374E0
6.630560160E-1,-1.011565804E0,8.733802289E-2,9.741181374E0
6.652915510E-1,-1.021137118E0,7.836493850E-2,9.717252731E0
6.675286120E-1,-1.030708313E0,6.879365444E-2,9.712467194E0
6.697648790E-1,-1.025922656E0,7.836493850E-2,9.712467194E0
6.720019390E-1,-1.040279627E0,6.400800496E-2,9.717252731E0
6.742390610E-1,-1.021137118E0,7.836493850E-2,9.736394882E0
6.764769150E-1,-1.035493970E0,8.793623000E-2,9.722038269E0
6.787129990E-1,-1.011565804E0,8.255238086E-2,9.736394882E0
6.809504870E-1,-1.025922656E0,1.070788130E-1,9.750752449E0
6.831857770E-1,-1.025922656E0,8.793623000E-2,9.745966911E0
6.854228990E-1,-1.021137118E0,7.357929647E-2,9.722038269E0
6.876596540E-1,-1.025922656E0,8.793623000E-2,9.722038269E0
6.898965930E-1,-1.016351461E0,9.212367237E-2,9.731609344E0
6.921338360E-1,-1.021137118E0,7.357929647E-2,9.731609344E0
6.943711410E-1,-1.030708313E0,8.793623000E-2,9.726823807E0
6.966074690E-1,-1.021137118E0,9.212367237E-2,9.755537987E0
6.988447130E-1,-1.006780148E0,9.212367237E-2,9.736394882E0
7.010803700E-1,-1.025922656E0,9.272187948E-2,9.736394882E0
7.033139510E-1,-1.025922656E0,9.272187948E-2,9.731609344E0
7.055374010E-1,-1.016351461E0,6.819544733E-2,9.731609344E0
7.077793440E-1,-1.030708313E0,6.879365444E-2,9.726823807E0
7.100281230E-1,-1.030708313E0,7.836493850E-2,9.726823807E0
7.122690900E-1,-1.021137118E0,9.750752151E-2,9.726823807E0
7.145046860E-1,-1.030708313E0,7.836493850E-2,9.717252731E0
7.167393050E-1,-1.021137118E0,7.357929647E-2,9.722038269E0
7.189749010E-1,-1.030708313E0,7.836493850E-2,9.731609344E0
7.212120220E-1,-1.035493970E0,8.315058798E-2,9.722038269E0
7.234487780E-1,-1.040877819E0,6.400800496E-2,9.745966911E0
7.256856550E-1,-1.025922656E0,8.315058798E-2,9.736394882E0
7.279228990E-1,-1.021137118E0,7.836493850E-2,9.731609344E0
7.301601420E-1,-1.025922656E0,7.836493850E-2,9.717252731E0
7.323962870E-1,-1.035493970E0,9.272187948E-2,9.717252731E0
7.346337750E-1,-1.035493970E0,6.879365444E-2,9.698110580E0
7.368694320E-1,-1.025922656E0,6.400800496E-2,9.731609344E0
7.391065540E-1,-1.025922656E0,7.836493850E-2,9.741181374E0
7.413433090E-1,-1.021137118E0,6.879365444E-2,9.712467194E0
7.435801250E-1,-1.021137118E0,9.272187948E-2,9.741181374E0
7.458171860E-1,-1.035493970E0,8.315058798E-2,9.722038269E0
7.480519880E-1,-1.040279627E0,7.836493850E-2,9.736394882E0
7.502800760E-1,-1.011565804E0,8.733802289E-2,9.717850685E0
7.525283680E-1,-1.030708313E0,7.836493850E-2,9.745966911E0
7.547639630E-1,-1.025922656E0,8.315058798E-2,9.755537987E0
7.570023060E-1,-1.025922656E0,7.836493850E-2,9.736394882E0
7.592319810E-1,-1.045065284E0,8.315058798E-2,9.717252731E0
7.614746570E-1,-1.030708313E0,7.357929647E-2,9.722038269E0
7.637116560E-1,-1.021137118E0,8.793623000E-2,9.736394882E0
7.659504260E-1,-1.021137118E0,9.272187948E-2,9.717252731E0
7.681853500E-1,-1.035493970E0,8.315058798E-2,9.741181374E0
7.704228380E-1,-1.021137118E0,7.776673883E-2,9.745966911E0
7.726569070E-1,-1.035493970E0,6.400800496E-2,9.736394882E0
7.748899400E-1,-1.040877819E0,6.879365444E-2,9.755537987E0
7.771332860E-1,-1.016351461E0,6.879365444E-2,9.717252731E0
7.793738870E-1,-1.016351461E0,7.776673883E-2,9.741181374E0
7.816076520E-1,-1.035493970E0,8.315058798E-2,9.726823807E0
7.838438580E-1,-1.021137118E0,9.272187948E-2,9.736394882E0
7.860789660E-1,-1.030708313E0,9.272187948E-2,9.726823807E0
7.883174300E-1,-1.025324464E0,1.022931710E-1,9.722038269E0
7.905529650E-1,-1.030708313E0,8.315058798E-2,9.717252731E0
7.927897810E-1,-1.016351461E0,7.836493850E-2,9.712467194E0
7.950266590E-1,-1.030708313E0,9.272187948E-2,9.722038269E0
7.972636580E-1,-1.021137118E0,7.836493850E-2,9.731609344E0
7.995005960E-1,-1.025922656E0,8.315058798E-2,9.722038269E0
8.017383280E-1,-1.030708313E0,9.750752151E-2,9.726823807E0
8.039744120E-1,-1.025922656E0,9.272187948E-2,9.741181374E0
8.062120220E-1,-1.021137118E0,9.212367237E-2,9.750752449E0
8.084475570E-1,-1.025922656E0,8.793623000E-2,9.755537987E0
8.106846180E-1,-1.030708313E0,7.357929647E-2,9.741181374E0
8.129211290E-1,-1.016351461E0,8.255238086E-2,9.755537987E0
8.151580060E-1,-1.011565804E0,8.733802289E-2,9.726823807E0
8.173952500E-1,-1.016351461E0,7.776673883E-2,9.741181374E0
8.196325550E-1,-1.030708313E0,8.315058798E-2,9.745966911E0
8.218687600E-1,-1.006780148E0,7.776673883E-2,9.736394882E0
8.241064930E-1,-1.021137118E0,8.315058798E-2,9.726823807E0
8.263420880E-1,-1.021137118E0,7.357929647E-2,9.722038269E0
8.285789660E-1,-1.011565804E0,9.690931439E-2,9.745966911E0
8.308156600E-1,-1.030708313E0,9.750752151E-2,9.731609344E0
8.330524760E-1,-1.006780148E0,7.776673883E-2,9.732208252E0
8.352896590E-1,-1.025922656E0,8.315058798E-2,9.741181374E0
8.375235460E-1,-1.021137118E0,7.357929647E-2,9.722038269E0
8.397480940E-1,-1.016351461E0,8.255238086E-2,9.736394882E0
8.420007800E-1,-1.030708313E0,8.315058798E-2,9.731609344E0
8.442363750E-1,-1.021137118E0,7.836493850E-2,9.745966911E0
8.464774640E-1,-1.021137118E0,8.793623000E-2,9.745966911E0
8.487100080E-1,-1.016351461E0,8.255238086E-2,9.736394882E0
8.509471300E-1,-1.016351461E0,8.315058798E-2,9.722636223E0
8.531843120E-1,-1.025922656E0,8.315058798E-2,9.741181374E0
8.554217390E-1,-1.016351461E0,8.793623000E-2,9.722038269E0
8.576580060E-1,-1.021137118E0,9.272187948E-2,9.726823807E0
8.598952500E-1,-1.006780148E0,6.340979785E-2,9.713065147E0
8.621309070E-1,-1.021137118E0,7.836493850E-2,9.717252731E0
8.643679060E-1,-1.025922656E0,6.879365444E-2,9.717252731E0
8.666045400E-1,-1.001994491E0,5.862415582E-2,9.713065147E0
8.688416610E-1,-1.025922656E0,7.836493850E-2,9.726823807E0
8.710789040E-1,-1.011565804E0,7.776673883E-2,9.741181374E0
8.733162700E-1,-1.025922656E0,8.315058798E-2,9.736394882E0
8.755525980E-1,-1.020538807E0,1.022931710E-1,9.731609344E0
8.777900250E-1,-1.016351461E0,8.733802289E-2,9.750752449E0
8.800254990E-1,-1.030708313E0,7.836493850E-2,9.717252731E0
8.822624380E-1,-1.030708313E0,7.836493850E-2,9.707681656E0
8.844980330E-1,-1.021137118E0,8.315058798E-2,9.712467194E0
8.867361920E-1,-1.030708313E0,8.793623000E-2,9.741181374E0
8.889733750E-1,-1.030708313E0,7.836493850E-2,9.731609344E0
8.912109850E-1,-1.030708313E0,6.879365444E-2,9.736394882E0
8.934468240E-1,-1.030708313E0,7.836493850E-2,9.736394882E0
8.956843730E-1,-1.021137118E0,7.357929647E-2,9.736394882E0
8.979201520E-1,-1.016351461E0,8.793623000E-2,9.726823807E0
9.001568460E-1,-1.021137118E0,7.836493850E-2,9.736394882E0
9.023938460E-1,-1.030708313E0,7.836493850E-2,9.722038269E0
9.046275490E-1,-1.025922656E0,8.793623000E-2,9.741181374E0
9.068555770E-1,-1.025922656E0,7.836493850E-2,9.741181374E0
9.091052110E-1,-1.035493970E0,9.272187948E-2,9.717252731E0
9.113414170E-1,-1.030708313E0,7.836493850E-2,9.722038269E0
9.135822620E-1,-1.021137118E0,7.836493850E-2,9.722038269E0
9.158147450E-1,-1.021137118E0,9.272187948E-2,9.722038269E0
9.180485700E-1,-1.025922656E0,7.357929647E-2,9.731609344E0
9.202761090E-1,-1.021137118E0,7.836493850E-2,9.731609344E0
9.225251330E-1,-1.030708313E0,7.836493850E-2,9.712467194E0
9.247622540E-1,-1.025324464E0,9.750752151E-2,9.722038269E0
9.270018780E-1,-1.025922656E0,7.357929647E-2,9.712467194E0
9.292322250E-1,-1.011565804E0,7.776673883E-2,9.717850685E0
9.314734360E-1,-1.040279627E0,7.357929647E-2,9.741181374E0
9.337090320E-1,-1.035493970E0,6.879365444E-2,9.736394882E0
9.359470080E-1,-1.016351461E0,7.836493850E-2,9.717252731E0
9.381797960E-1,-1.016351461E0,7.298108935E-2,9.755537987E0
9.404082500E-1,-1.035493970E0,9.750752151E-2,9.736394882E0
9.426567850E-1,-1.040279627E0,6.879365444E-2,9.736394882E0
9.448943950E-1,-1.016351461E0,9.272187948E-2,9.722038269E0
9.471305400E-1,-1.021137118E0,8.793623000E-2,9.712467194E0
9.493559430E-1,-1.016351461E0,6.400800496E-2,9.708279610E0
9.516033190E-1,-1.015753269E0,9.750752151E-2,9.707681656E0
9.538405620E-1,-1.020538807E0,9.272187948E-2,9.702896118E0
9.560801260E-1,-1.045065284E0,7.357929647E-2,9.707681656E0
9.583140730E-1,-1.025922656E0,8.793623000E-2,9.717252731E0
9.605513170E-1,-1.025922656E0,8.315058798E-2,9.731609344E0
9.627888660E-1,-1.025922656E0,7.357929647E-2,9.741181374E0
9.650250100E-1,-1.021137118E0,7.836493850E-2,9.736394882E0
9.672624370E-1,-1.045065284E0,7.836493850E-2,9.755537987E0
9.694977890E-1,-1.016351461E0,7.776673883E-2,9.741181374E0
9.717319190E-1,-1.035493970E0,6.400800496E-2,9.736394882E0
9.739597030E-1,-1.016351461E0,7.357929647E-2,9.722038269E0
9.762086650E-1,-1.035493970E0,8.315058798E-2,9.736394882E0
9.784461530E-1,-1.030708313E0,6.400800496E-2,9.722038269E0
9.806863880E-1,-1.025324464E0,9.750752151E-2,9.702896118E0
9.829194810E-1,-1.025324464E0,8.793623000E-2,9.707681656E0
9.851567240E-1,-1.040279627E0,7.357929647E-2,9.717252731E0
9.873926250E-1,-1.016351461E0,8.315058798E-2,9.731609344E0
9.896296860E-1,-1.025922656E0,7.836493850E-2,9.712467194E0
9.918662580E-1,-1.030708313E0,6.400800496E-2,9.712467194E0
9.941030750E-1,-1.021137118E0,7.357929647E-2,9.736394882E0
9.963403790E-1,-1.021735311E0,6.400800496E-2,9.741181374E0
9.985778670E-1,-1.021137118E0,8.793623000E-2,9.741181374E0
1.000813829E0,-1.021735311E0,5.922235921E-2,9.745966911E0
1.003051561E0,-1.030708313E0,8.315058798E-2,9.707681656E0
1.005287096E0,-1.021137118E0,8.793623000E-2,9.741181374E0
1.007523973E0,-1.021137118E0,8.315058798E-2,9.745966911E0
1.009757554E0,-1.030708313E0,7.357929647E-2,9.731609344E0
1.011985887E0,-1.021137118E0,7.836493850E-2,9.717252731E0
1.014230638E0,-1.025324464E0,1.022931710E-1,9.722038269E0
1.016455125E0,-1.020538807E0,9.750752151E-2,9.717252731E0
1.018711290E0,-1.021137118E0,8.793623000E-2,9.741181374E0
1.020946092E0,-1.021137118E0,8.315058798E-2,9.741181374E0
1.023185960E0,-1.011565804E0,8.255238086E-2,9.750752449E0
1.025418504E0,-1.016351461E0,8.255238086E-2,9.745966911E0
1.027655016E0,-1.025324464E0,1.022931710E-1,9.702896118E0
1.029892137E0,-1.025922656E0,7.836493850E-2,9.702896118E0
1.032129442E0,-1.030708313E0,8.315058798E-2,9.717252731E0
1.034366746E0,-1.025922656E0,9.750752151E-2,9.736394882E0
1.036599962E0,-1.025922656E0,7.357929647E-2,9.726823807E0
1.038826891E0,-1.030708313E0,9.272187948E-2,9.741181374E0
1.041068163E0,-1.001994491E0,8.255238086E-2,9.727422714E0
1.043313035E0,-1.025324464E0,1.022931710E-1,9.731609344E0
1.045552476E0,-1.016351461E0,9.272187948E-2,9.726823807E0
1.047788621E0,-1.021137118E0,8.793623000E-2,9.736394882E0
1.050023729E0,-1.011565804E0,9.690931439E-2,9.731609344E0
1.052261278E0,-1.011565804E0,8.733802289E-2,9.717850685E0
1.054497362E0,-1.016351461E0,8.315058798E-2,9.717252731E0
1.056734910E0,-1.016351461E0,8.315058798E-2,9.722038269E0
1.058970506E0,-1.044467092E0,9.272187948E-2,9.707681656E0
1.061207567E0,-1.016351461E0,8.315058798E-2,9.708279610E0
1.063444139E0,-1.006780148E0,8.733802289E-2,9.727422714E0
1.065681200E0,-1.025922656E0,7.836493850E-2,9.722038269E0
1.067918260E0,-1.025922656E0,9.750752151E-2,9.726823807E0
1.070155809E0,-1.021137118E0,7.357929647E-2,9.726823807E0
1.072391954E0,-1.011565804E0,6.819544733E-2,9.741181374E0
1.074629747E0,-1.016351461E0,7.836493850E-2,9.713065147E0
1.076865221E0,-1.035493970E0,7.357929647E-2,9.722038269E0
1.079101854E0,-1.045065284E0,8.793623000E-2,9.717252731E0
1.081338609E0,-1.016351461E0,9.212367237E-2,9.745966911E0
1.083575670E0,-1.016351461E0,7.776673883E-2,9.736394882E0
1.085812852E0,-1.040279627E0,8.793623000E-2,9.722038269E0
1.088050401E0,-1.025922656E0,7.836493850E-2,9.726823807E0
1.090286668E0,-1.011565804E0,7.836493850E-2,9.703494072E0
1.092521043E0,-1.011565804E0,9.212367237E-2,9.726823807E0
1.094744920E0,-1.025922656E0,7.836493850E-2,9.717252731E0
1.096984544E0,-1.025324464E0,9.750752151E-2,9.717252731E0
1.099231981E0,-1.030708313E0,8.793623000E-2,9.722038269E0
1.101473192E0,-1.001994491E0,5.862415582E-2,9.727422714E0
1.103707383E0,-1.035493970E0,7.836493850E-2,9.731609344E0
1.105933702E0,-1.030708313E0,9.272187948E-2,9.731609344E0
1.108180955E0,-1.016351461E0,7.357929647E-2,9.722038269E0
1.110418504E0,-1.030708313E0,8.315058798E-2,9.712467194E0
1.112656968E0,-1.030708313E0,7.357929647E-2,9.731609344E0
1.114891160E0,-1.021137118E0,8.315058798E-2,9.717252731E0
1.117124742E0,-1.025922656E0,6.879365444E-2,9.731609344E0
1.119352830E0,-1.016351461E0,6.819544733E-2,9.741181374E0
1.121601854E0,-1.016351461E0,7.357929647E-2,9.731609344E0
1.123839403E0,-1.021137118E0,6.879365444E-2,9.731609344E0
1.126078478E0,-9.972088337E-1,7.298108935E-2,9.732208252E0
1.128313035E0,-1.040279627E0,8.793623000E-2,9.726823807E0
1.130548631E0,-1.025922656E0,7.836493850E-2,9.741181374E0
1.132785692E0,-1.025922656E0,8.315058798E-2,9.717252731E0
1.135022203E0,-1.030708313E0,9.272187948E-2,9.722038269E0
1.137259019E0,-1.016351461E0,8.793623000E-2,9.722038269E0
1.139495836E0,-1.025922656E0,8.315058798E-2,9.731609344E0
1.141722643E0,-1.025922656E0,7.836493850E-2,9.731609344E0
1.143957750E0,-1.021137118E0,6.879365444E-2,9.726823807E0
1.146195421E0,-1.025922656E0,6.400800496E-2,9.717252731E0
1.148431627E0,-1.021137118E0,7.836493850E-2,9.741181374E0
1.150669298E0,-1.016351461E0,7.298108935E-2,9.741181374E0
1.152905321E0,-1.025922656E0,8.793623000E-2,9.722038269E0
1.155142015E0,-1.021137118E0,8.793623000E-2,9.722038269E0
1.157382859E0,-1.021137118E0,7.357929647E-2,9.736394882E0
1.159635973E0,-1.025922656E0,6.879365444E-2,9.736394882E0
1.161867418E0,-1.040279627E0,6.879365444E-2,9.722038269E0
1.164104845E0,-1.021137118E0,7.836493850E-2,9.726823807E0
1.166336473E0,-1.025922656E0,6.400800496E-2,9.731609344E0
1.168574449E0,-1.025922656E0,6.879365444E-2,9.717252731E0
1.170811082E0,-1.021137118E0,6.879365444E-2,9.731609344E0
1.173048082E0,-1.030708313E0,7.836493850E-2,9.755537987E0
1.175285264E0,-1.035493970E0,7.357929647E-2,9.731609344E0
1.177523057E0,-1.011565804E0,7.776673883E-2,9.750752449E0
1.179759141E0,-1.021137118E0,9.272187948E-2,9.745966911E0
1.181996629E0,-1.021137118E0,8.793623000E-2,9.736394882E0
1.184231920E0,-1.016351461E0,7.357929647E-2,9.713065147E0
1.186469041E0,-1.015753269E0,9.750752151E-2,9.726823807E0
1.188705797E0,-1.025922656E0,9.272187948E-2,9.731609344E0
1.190942674E0,-1.025922656E0,7.836493850E-2,9.712467194E0
1.193179735E0,-1.025922656E0,7.836493850E-2,9.736394882E0
1.195417284E0,-1.011565804E0,7.298108935E-2,9.717850685E0
1.197653673E0,-1.021137118E0,6.400800496E-2,9.726823807E0
1.199891160E0,-1.035493970E0,7.357929647E-2,9.722038269E0
1.202126512E0,-1.035493970E0,8.315058798E-2,9.736394882E0
1.204363512E0,-1.025922656E0,8.793623000E-2,9.726823807E0
1.206600084E0,-1.025922656E0,7.836493850E-2,9.712467194E0
1.208837205E0,-1.016351461E0,6.879365444E-2,9.731609344E0
1.211074327E0,-1.016351461E0,6.879365444E-2,9.717252731E0
1.213312059E0,-1.021137118E0,8.315058798E-2,9.707681656E0
1.215547899E0,-1.025922656E0,8.315058798E-2,9.717252731E0
1.217785448E0,-1.016351461E0,7.357929647E-2,9.702896118E0
1.220020982E0,-1.021137118E0,6.879365444E-2,9.707681656E0
1.222258104E0,-1.030708313E0,8.315058798E-2,9.717252731E0
1.224494615E0,-1.039681435E0,1.022931710E-1,9.722038269E0
1.226731493E0,-1.011565804E0,8.733802289E-2,9.726823807E0
1.228968797E0,-1.040279627E0,7.357929647E-2,9.741181374E0
1.231206346E0,-1.021137118E0,6.879365444E-2,9.717252731E0
1.233442491E0,-1.006780148E0,8.255238086E-2,9.722636223E0
1.235676927E0,-1.016351461E0,8.315058798E-2,9.722038269E0
1.237900499E0,-1.021137118E0,7.357929647E-2,9.712467194E0
1.240141099E0,-1.021137118E0,8.315058798E-2,9.717252731E0
1.242388902E0,-1.016351461E0,9.272187948E-2,9.722038269E0
1.244629076E0,-1.025922656E0,8.793623000E-2,9.726823807E0
1.246866258E0,-1.035493970E0,8.315058798E-2,9.726823807E0
1.249101243E0,-1.025922656E0,8.793623000E-2,9.731609344E0
1.251337266E0,-1.035493970E0,6.400800496E-2,9.722038269E0
1.253574571E0,-1.016351461E0,7.836493850E-2,9.712467194E0
1.255810289E0,-1.025922656E0,7.836493850E-2,9.717252731E0
1.258044053E0,-1.016351461E0,9.750752151E-2,9.726823807E0
1.260271471E0,-1.025922656E0,8.315058798E-2,9.707681656E0
1.262520494E0,-1.025922656E0,8.793623000E-2,9.726823807E0
1.264757860E0,-1.021137118E0,8.793623000E-2,9.731609344E0
1.266998644E0,-1.016351461E0,8.255238086E-2,9.741181374E0
1.269232225E0,-1.025922656E0,9.750752151E-2,9.741181374E0
1.271468736E0,-1.006780148E0,9.212367237E-2,9.727422714E0
1.273704393E0,-1.011565804E0,8.255238086E-2,9.727422714E0
1.275941515E0,-1.006780148E0,6.819544733E-2,9.732208252E0
1.278175462E0,-1.012163997E0,5.862415582E-2,9.741181374E0
1.280403856E0,-1.016351461E0,6.879365444E-2,9.731609344E0
1.282652147E0,-1.025922656E0,6.879365444E-2,9.741181374E0
1.284889940E0,-1.030708313E0,8.793623000E-2,9.741181374E0
1.287125902E0,-1.035493970E0,8.793623000E-2,9.722038269E0
1.289351671E0,-1.025922656E0,8.793623000E-2,9.722038269E0
1.291599107E0,-1.016351461E0,8.315058798E-2,9.722038269E0
1.293835924E0,-1.030708313E0,9.272187948E-2,9.755537987E0
1.296075487E0,-1.035493970E0,6.400800496E-2,9.726823807E0
1.298309557E0,-1.021137118E0,7.836493850E-2,9.736394882E0
1.300546739E0,-1.006780148E0,7.298108935E-2,9.736993790E0
1.302783311E0,-1.025922656E0,7.357929647E-2,9.731609344E0
1.305015733E0,-1.015753269E0,9.750752151E-2,9.726823807E0
1.307258104E0,-1.030708313E0,8.315058798E-2,9.722038269E0
1.309493395E0,-1.025324464E0,9.750752151E-2,9.722038269E0
1.311731676E0,-1.035493970E0,8.315058798E-2,9.712467194E0
1.313967027E0,-1.021137118E0,7.357929647E-2,9.722038269E0
1.316204210E0,-1.016351461E0,6.400800496E-2,9.708279610E0
1.318441514E0,-1.030708313E0,7.357929647E-2,9.741181374E0
1.320679063E0,-1.025922656E0,6.400800496E-2,9.736394882E0
1.322915147E0,-1.030708313E0,6.400800496E-2,9.717252731E0
1.325152635E0,-1.016351461E0,7.357929647E-2,9.708279610E0
1.327388109E0,-1.016351461E0,7.357929647E-2,9.713065147E0
1.329624742E0,-1.025922656E0,7.836493850E-2,9.731609344E0
1.331861559E0,-1.021137118E0,8.255238086E-2,9.755537987E0
1.334098680E0,-1.010967612E0,9.690931439E-2,9.722038269E0
1.336336046E0,-1.021137118E0,8.315058798E-2,9.736394882E0
1.338573289E0,-1.030708313E0,8.793623000E-2,9.722038269E0
1.340809434E0,-1.016351461E0,7.357929647E-2,9.703494072E0
1.343047105E0,-1.011565804E0,7.357929647E-2,9.713065147E0
1.345282518E0,-1.025922656E0,9.750752151E-2,9.731609344E0
1.347519578E0,-1.025922656E0,7.836493850E-2,9.717252731E0
1.349756029E0,-1.030708313E0,7.836493850E-2,9.731609344E0
1.351992906E0,-1.021137118E0,8.793623000E-2,9.736394882E0
1.354230028E0,-1.011565804E0,8.255238086E-2,9.736394882E0
1.356467821E0,-1.025922656E0,9.750752151E-2,9.731609344E0
1.358703965E0,-1.054636598E0,8.315058798E-2,9.741181374E0
1.360941514E0,-1.025922656E0,8.315058798E-2,9.717252731E0
1.363176988E0,-1.016351461E0,7.298108935E-2,9.731609344E0
1.365413866E0,-1.025922656E0,7.357929647E-2,9.736394882E0
1.367650682E0,-1.001994491E0,9.690931439E-2,9.741181374E0
1.369884752E0,-1.025922656E0,7.357929647E-2,9.722038269E0
1.372112901E0,-1.025922656E0,8.793623000E-2,9.736394882E0
1.374362352E0,-1.035493970E0,7.357929647E-2,9.726823807E0
1.376598436E0,-1.030708313E0,7.357929647E-2,9.702896118E0
1.378838915E0,-1.025922656E0,9.272187948E-2,9.722038269E0
1.381071336E0,-1.025922656E0,8.315058798E-2,9.717252731E0
1.383308641E0,-1.035493970E0,7.836493850E-2,9.736394882E0
1.385545152E0,-1.030708313E0,8.315058798E-2,9.717252731E0
1.387782030E0,-1.025922656E0,5.922235921E-2,9.731609344E0
1.390019090E0,-1.030708313E0,8.793623000E-2,9.741181374E0
1.392256883E0,-1.030708313E0,8.315058798E-2,9.750752449E0
1.394493028E0,-1.040279627E0,7.357929647E-2,9.731609344E0
1.396730577E0,-1.030708313E0,8.315058798E-2,9.745966911E0
1.398966112E0,-1.021137118E0,8.315058798E-2,9.722038269E0
1.401203172E0,-1.010967612E0,9.212367237E-2,9.717252731E0
1.403439684E0,-1.006780148E0,7.298108935E-2,9.727422714E0
1.405676561E0,-1.021137118E0,7.836493850E-2,9.722038269E0
1.407913865E0,-1.021137118E0,8.793623000E-2,9.717252731E0
1.410151414E0,-1.025922656E0,8.793623000E-2,9.736394882E0
1.412384629E0,-1.021137118E0,8.315058798E-2,9.731609344E0
1.414613267E0,-1.020538807E0,1.022931710E-1,9.731609344E0
1.416860399E0,-1.021137118E0,7.357929647E-2,9.731609344E0
1.419097703E0,-1.001994491E0,8.255238086E-2,9.736993790E0
1.421337145E0,-1.025922656E0,6.879365444E-2,9.736394882E0
1.423571153E0,-1.030110121E0,9.750752151E-2,9.707681656E0
1.425808458E0,-1.016351461E0,8.315058798E-2,9.717252731E0
1.428046190E0,-1.021137118E0,9.272187948E-2,9.722038269E0
1.430282029E0,-1.025324464E0,8.315058798E-2,9.698110580E0
1.432519273E0,-1.021137118E0,9.272187948E-2,9.722038269E0
1.434754808E0,-1.016351461E0,9.212367237E-2,9.731609344E0
1.436988939E0,-1.025922656E0,9.272187948E-2,9.741181374E0
1.439216600E0,-1.025922656E0,8.793623000E-2,9.736394882E0
1.441465623E0,-1.021137118E0,7.357929647E-2,9.722038269E0
1.443702684E0,-1.016351461E0,8.733802289E-2,9.731609344E0
1.445943285E0,-1.016351461E0,9.272187948E-2,9.726823807E0
1.448176561E0,-1.025922656E0,9.272187948E-2,9.726823807E0
1.450413927E0,-1.016351461E0,8.315058798E-2,9.712467194E0
1.452649706E0,-1.006780148E0,8.733802289E-2,9.722636223E0
1.454886461E0,-1.016351461E0,7.776673883E-2,9.741181374E0
1.457120103E0,-1.011565804E0,7.298108935E-2,9.726823807E0
1.459348192E0,-1.021137118E0,8.793623000E-2,9.722038269E0
1.461597520E0,-1.025922656E0,6.879365444E-2,9.722038269E0
1.463835008E0,-1.021137118E0,6.879365444E-2,9.722038269E0
1.466073839E0,-1.054636598E0,9.272187948E-2,9.741181374E0
1.468308336E0,-1.025922656E0,8.315058798E-2,9.726823807E0
1.470543932E0,-1.030708313E0,8.315058798E-2,9.726823807E0
1.472781114E0,-1.021137118E0,6.879365444E-2,9.736394882E0
1.475017870E0,-1.016351461E0,8.315058798E-2,9.717252731E0
1.477254686E0,-1.016351461E0,7.836493850E-2,9.712467194E0
1.479488755E0,-1.021137118E0,7.836493850E-2,9.722038269E0
1.481717271E0,-1.011565804E0,8.255238086E-2,9.727422714E0
1.483965379E0,-1.025922656E0,6.879365444E-2,9.722038269E0
1.486202928E0,-1.006780148E0,8.255238086E-2,9.727422714E0
1.488441515E0,-1.016351461E0,8.315058798E-2,9.722038269E0
1.490675584E0,-1.006780148E0,8.255238086E-2,9.732208252E0
1.492912096E0,-1.025922656E0,7.357929647E-2,9.712467194E0
1.495148973E0,-1.030708313E0,8.315058798E-2,9.707681656E0
1.497386339E0,-1.010967612E0,9.690931439E-2,9.717252731E0
1.499624071E0,-1.021137118E0,8.315058798E-2,9.741181374E0
1.501859971E0,-1.016351461E0,7.776673883E-2,9.745966911E0
1.504097398E0,-1.016351461E0,8.315058798E-2,9.726823807E0
1.506332750E0,-1.030708313E0,1.022931710E-1,9.736394882E0
1.508570116E0,-1.030708313E0,7.836493850E-2,9.726823807E0
1.510806688E0,-1.016351461E0,6.400800496E-2,9.722038269E0
1.513043748E0,-1.035493970E0,8.315058798E-2,9.722038269E0
1.515280565E0,-1.030708313E0,8.315058798E-2,9.736394882E0
1.517518358E0,-1.016351461E0,8.315058798E-2,9.731609344E0
1.519754442E0,-1.001994491E0,8.255238086E-2,9.736993790E0
1.521992113E0,-1.035493970E0,7.357929647E-2,9.741181374E0
1.524227892E0,-1.011565804E0,8.733802289E-2,9.731609344E0
1.526464891E0,-1.016351461E0,8.315058798E-2,9.717850685E0
1.528701158E0,-1.021137118E0,6.400800496E-2,9.731609344E0
1.530937974E0,-1.020538807E0,8.793623000E-2,9.707681656E0
1.533175279E0,-1.001994491E0,8.255238086E-2,9.736394882E0
1.535412889E0,-1.001994491E0,8.733802289E-2,9.732208252E0
1.537649095E0,-1.016351461E0,7.357929647E-2,9.717252731E0
1.539886705E0,-1.021137118E0,8.315058798E-2,9.726823807E0
1.542121813E0,-1.045065284E0,8.793623000E-2,9.731609344E0
1.544358934E0,-1.021137118E0,8.315058798E-2,9.722038269E0
1.546593858E0,-1.025922656E0,8.315058798E-2,9.745966911E0
1.548825548E0,-1.016351461E0,7.357929647E-2,9.726823807E0
1.551069932E0,-1.016351461E0,9.212367237E-2,9.731609344E0
1.553307359E0,-1.021137118E0,9.272187948E-2,9.731609344E0
1.555545091E0,-1.020538807E0,9.750752151E-2,9.712467194E0
1.557781053E0,-1.030708313E0,7.836493850E-2,9.726823807E0
1.560016649E0,-1.030110121E0,9.750752151E-2,9.712467194E0
1.562253770E0,-1.025922656E0,9.272187948E-2,9.741181374E0
1.564490221E0,-1.030708313E0,8.315058798E-2,9.731609344E0
1.566727098E0,-1.021137118E0,7.836493850E-2,9.698110580E0
1.568965014E0,-1.011565804E0,9.690931439E-2,9.726823807E0
1.571204271E0,-1.021137118E0,6.400800496E-2,9.722038269E0
1.573437608E0,-1.001994491E0,8.255238086E-2,9.736993790E0
1.575675584E0,-1.025922656E0,6.879365444E-2,9.717252731E0
1.577910570E0,-1.021137118E0,7.836493850E-2,9.726823807E0
1.580148363E0,-1.025922656E0,7.357929647E-2,9.741181374E0
1.582384752E0,-1.035493970E0,7.836493850E-2,9.736394882E0
1.584621568E0,-1.021137118E0,7.357929647E-2,9.707681656E0
1.586858629E0,-1.001994491E0,8.733802289E-2,9.736993790E0
1.589096239E0,-1.016351461E0,8.255238086E-2,9.736394882E0
1.591329699E0,-1.001994491E0,8.733802289E-2,9.717850685E0
1.593555467E0,-1.025922656E0,8.315058798E-2,9.731609344E0
1.595793810E0,-1.021137118E0,8.315058798E-2,9.722038269E0
1.598040697E0,-1.030708313E0,7.836493850E-2,9.722038269E0
1.600273911E0,-1.025922656E0,6.400800496E-2,9.712467194E0
1.602519090E0,-1.016351461E0,6.400800496E-2,9.726823807E0
1.604753221E0,-1.021137118E0,7.836493850E-2,9.741181374E0
1.606989122E0,-1.021137118E0,6.879365444E-2,9.736394882E0
1.609211229E0,-1.021137118E0,7.357929647E-2,9.726823807E0
1.611464403E0,-1.025922656E0,7.836493850E-2,9.726823807E0
1.613699938E0,-1.021137118E0,8.315058798E-2,9.726823807E0
1.615940965E0,-1.040279627E0,7.836493850E-2,9.736394882E0
1.618170762E0,-1.016351461E0,9.750752151E-2,9.726823807E0
1.620399217E0,-1.030708313E0,9.272187948E-2,9.722038269E0
1.622647752E0,-1.045065284E0,7.836493850E-2,9.741181374E0
1.624885301E0,-1.016351461E0,7.357929647E-2,9.713065147E0
1.627121324E0,-1.021137118E0,9.272187948E-2,9.722038269E0
1.629347215E0,-1.021137118E0,9.272187948E-2,9.745966911E0
1.631594469E0,-1.015753269E0,1.118644550E-1,9.707681656E0
1.633831346E0,-1.025922656E0,7.357929647E-2,9.745966911E0
1.636071093E0,-1.006780148E0,8.255238086E-2,9.727422714E0
1.638302293E0,-1.021137118E0,8.315058798E-2,9.731609344E0
1.640528307E0,-1.035493970E0,7.836493850E-2,9.722038269E0
1.642770616E0,-1.040279627E0,8.315058798E-2,9.726823807E0
1.645016160E0,-1.025922656E0,5.922235921E-2,9.707681656E0
1.647253465E0,-1.021137118E0,8.315058798E-2,9.741181374E0
1.649479722E0,-1.016351461E0,8.255238086E-2,9.741181374E0
1.651726244E0,-1.016351461E0,8.733802289E-2,9.745966911E0
1.653962389E0,-1.016351461E0,7.357929647E-2,9.731609344E0
1.656202440E0,-1.016351461E0,6.819544733E-2,9.750752449E0
1.658436754E0,-1.021137118E0,8.315058798E-2,9.731609344E0
1.660674425E0,-1.021137118E0,6.879365444E-2,9.736394882E0
1.662910447E0,-1.016351461E0,8.793623000E-2,9.726823807E0
1.665147752E0,-1.030708313E0,8.793623000E-2,9.731609344E0
1.667383531E0,-1.021137118E0,8.315058798E-2,9.726823807E0
1.669620409E0,-1.021137118E0,7.836493850E-2,9.702896118E0
1.671857225E0,-1.030708313E0,7.836493850E-2,9.736394882E0
1.674094041E0,-1.016351461E0,9.212367237E-2,9.726823807E0
1.676331407E0,-1.025922656E0,7.836493850E-2,9.736394882E0
1.678568895E0,-1.021137118E0,1.022931710E-1,9.736394882E0
1.680804979E0,-1.025922656E0,8.793623000E-2,9.731609344E0
1.683042284E0,-1.021137118E0,6.879365444E-2,9.736394882E0
1.685278063E0,-1.006181955E0,9.690931439E-2,9.722636223E0
1.687514818E0,-1.021137118E0,8.793623000E-2,9.712467194E0
1.689751268E0,-1.021137118E0,9.272187948E-2,9.726823807E0
1.691988512E0,-1.030708313E0,8.315058798E-2,9.726823807E0
1.694225694E0,-1.045065284E0,7.836493850E-2,9.722038269E0
1.696463548E0,-1.025324464E0,1.070788130E-1,9.717252731E0
1.698699510E0,-1.025922656E0,9.750752151E-2,9.731609344E0
1.700936876E0,-1.021137118E0,8.315058798E-2,9.722038269E0
1.703170091E0,-1.006780148E0,7.298108935E-2,9.727422714E0
1.705399400E0,-1.011565804E0,6.879365444E-2,9.717850685E0
1.707646043E0,-1.006780148E0,8.733802289E-2,9.722636223E0
1.709883043E0,-1.030708313E0,9.272187948E-2,9.736394882E0
1.712122728E0,-1.025922656E0,7.357929647E-2,9.726823807E0
1.714358018E0,-1.025922656E0,8.315058798E-2,9.741181374E0
1.716594163E0,-1.021137118E0,8.793623000E-2,9.736394882E0
1.718831834E0,-1.021137118E0,7.836493850E-2,9.722038269E0
1.721066820E0,-1.025922656E0,8.793623000E-2,9.726823807E0
1.723303697E0,-1.020538807E0,9.750752151E-2,9.717252731E0
1.725540392E0,-1.025922656E0,7.357929647E-2,9.741181374E0
1.727777330E0,-1.021137118E0,7.357929647E-2,9.731609344E0
1.730014512E0,-1.011565804E0,9.212367237E-2,9.741181374E0
1.732252244E0,-1.030708313E0,7.836493850E-2,9.750752449E0
1.734488389E0,-1.006780148E0,7.776673883E-2,9.717850685E0
1.736725938E0,-1.016351461E0,7.836493850E-2,9.731609344E0
1.738961473E0,-1.021137118E0,6.400800496E-2,9.722038269E0
1.741198534E0,-1.001994491E0,7.776673883E-2,9.732208252E0
1.743435045E0,-1.021137118E0,7.836493850E-2,9.731609344E0
1.745671861E0,-1.016351461E0,7.776673883E-2,9.755537987E0
1.747908983E0,-1.025922656E0,7.357929647E-2,9.736394882E0
1.750146776E0,-1.016351461E0,7.836493850E-2,9.717850685E0
1.752382921E0,-1.025922656E0,8.793623000E-2,9.726823807E0
1.754620470E0,-1.016351461E0,7.836493850E-2,9.731609344E0
1.756856004E0,-1.021137118E0,8.315058798E-2,9.722038269E0
1.759093065E0,-1.016351461E0,7.357929647E-2,9.731609344E0
1.761329637E0,-1.021137118E0,8.793623000E-2,9.745966911E0
1.763566698E0,-1.034895778E0,9.750752151E-2,9.707681656E0
1.765803758E0,-1.021137118E0,7.836493850E-2,9.722038269E0
1.768038255E0,-1.016351461E0,6.879365444E-2,9.731609344E0
1.770261949E0,-1.006780148E0,6.819544733E-2,9.736993790E0
1.772501939E0,-1.016351461E0,7.836493850E-2,9.731609344E0
1.774750291E0,-1.035493970E0,8.793623000E-2,9.726823807E0
1.776987352E0,-1.016351461E0,8.315058798E-2,9.731609344E0
1.779214220E0,-1.006780148E0,8.255238086E-2,9.727422714E0
1.781461290E0,-1.025922656E0,8.315058798E-2,9.736394882E0
1.783698289E0,-1.006780148E0,7.776673883E-2,9.731609344E0
1.785939134E0,-1.025922656E0,8.793623000E-2,9.741181374E0
1.788171922E0,-1.021137118E0,8.315058798E-2,9.722038269E0
1.790409471E0,-1.021137118E0,8.255238086E-2,9.745966911E0
1.792645067E0,-1.011565804E0,7.776673883E-2,9.731609344E0
1.794882127E0,-1.035493970E0,8.315058798E-2,9.736394882E0
1.797115648E0,-1.021137118E0,7.357929647E-2,9.712467194E0
1.799343553E0,-1.011565804E0,9.690931439E-2,9.726823807E0
1.801592759E0,-1.030110121E0,9.272187948E-2,9.717252731E0
1.803830125E0,-1.016351461E0,7.836493850E-2,9.717850685E0
1.806069444E0,-1.030708313E0,8.315058798E-2,9.731609344E0
1.808303819E0,-1.025922656E0,7.836493850E-2,9.731609344E0
1.810539842E0,-1.030708313E0,8.315058798E-2,9.726823807E0
1.812776353E0,-1.001994491E0,7.776673883E-2,9.727422714E0
1.815012987E0,-1.021137118E0,9.690931439E-2,9.745966911E0
1.817250169E0,-1.025324464E0,9.750752151E-2,9.722038269E0
1.819488145E0,-1.025922656E0,9.272187948E-2,9.722038269E0
1.821724962E0,-1.021137118E0,7.836493850E-2,9.731609344E0
1.823960985E0,-1.030708313E0,6.400800496E-2,9.731609344E0
1.826198106E0,-1.030708313E0,7.357929647E-2,9.736394882E0
1.828434007E0,-1.015753269E0,9.272187948E-2,9.712467194E0
1.830670640E0,-1.016351461E0,8.255238086E-2,9.736394882E0
1.832907518E0,-1.016351461E0,8.315058798E-2,9.722038269E0
1.835141221E0,-1.006780148E0,8.255238086E-2,9.731609344E0
1.837368577E0,-1.035493970E0,8.793623000E-2,9.731609344E0
1.839619493E0,-1.016351461E0,8.315058798E-2,9.726823807E0
1.841855516E0,-1.025922656E0,8.315058798E-2,9.726823807E0
1.844096117E0,-1.016351461E0,8.255238086E-2,9.736394882E0
1.846328355E0,-1.010967612E0,1.016949639E-1,9.722038269E0
1.848565416E0,-1.021137118E0,7.836493850E-2,9.726823807E0
1.850802049E0,-1.025922656E0,8.315058798E-2,9.741181374E0
1.853039110E0,-1.006780148E0,7.298108935E-2,9.722636223E0
1.855276231E0,-1.016351461E0,8.733802289E-2,9.731609344E0
1.857513963E0,-1.016351461E0,9.212367237E-2,9.745966911E0
1.859749803E0,-1.030708313E0,9.272187948E-2,9.741181374E0
1.861987413E0,-1.011565804E0,7.357929647E-2,9.713065147E0
1.864223131E0,-1.011565804E0,7.776673883E-2,9.741181374E0
1.866460008E0,-1.016949654E0,6.340979785E-2,9.741181374E0
1.868696520E0,-1.025922656E0,7.357929647E-2,9.731609344E0
1.870933336E0,-1.030708313E0,9.272187948E-2,9.731609344E0
1.873170701E0,-1.035493970E0,7.357929647E-2,9.731609344E0
1.875408311E0,-1.030708313E0,7.357929647E-2,9.736394882E0
1.877644639E0,-1.011565804E0,9.212367237E-2,9.741181374E0
1.879881822E0,-1.045065284E0,7.357929647E-2,9.702896118E0
1.882117235E0,-1.011565804E0,7.298108935E-2,9.726823807E0
1.884354478E0,-1.040279627E0,7.836493850E-2,9.712467194E0
1.886591051E0,-1.006780148E0,9.212367237E-2,9.736394882E0
1.888827989E0,-1.016351461E0,7.776673883E-2,9.741181374E0
1.891065294E0,-1.011565804E0,8.255238086E-2,9.736394882E0
1.893303026E0,-1.025922656E0,9.272187948E-2,9.741181374E0
1.895538865E0,-1.016351461E0,7.776673883E-2,9.745966911E0
1.897776170E0,-1.025324464E0,1.022931710E-1,9.731609344E0
1.900011949E0,-1.010967612E0,1.016949639E-1,9.717850685E0
1.902244738E0,-1.021137118E0,8.315058798E-2,9.707681656E0
1.904468248E0,-1.021137118E0,8.793623000E-2,9.731609344E0
1.906722215E0,-1.016351461E0,8.733802289E-2,9.741181374E0
1.908959764E0,-1.035493970E0,8.793623000E-2,9.722038269E0
1.911201647E0,-1.025922656E0,8.315058798E-2,9.745966911E0
1.913433458E0,-1.021137118E0,8.793623000E-2,9.722038269E0
1.915670701E0,-1.021137118E0,7.357929647E-2,9.726823807E0
1.917906480E0,-9.972088337E-1,7.776673883E-2,9.717850685E0
1.920143358E0,-1.001994491E0,7.298108935E-2,9.736993790E0
1.922380174E0,-1.016351461E0,8.793623000E-2,9.722038269E0
1.924616991E0,-1.021137118E0,8.315058798E-2,9.736394882E0
1.926854356E0,-1.049850941E0,7.357929647E-2,9.741181374E0
1.929091844E0,-1.021137118E0,6.879365444E-2,9.741181374E0
1.931327989E0,-1.006780148E0,8.733802289E-2,9.745966911E0
1.933565477E0,-1.016351461E0,9.212367237E-2,9.741181374E0
1.935801012E0,-1.025922656E0,8.793623000E-2,9.722038269E0
1.938034776E0,-1.016351461E0,7.836493850E-2,9.726823807E0
1.940262193E0,-1.025324464E0,9.750752151E-2,9.712467194E0
1.942511522E0,-1.025922656E0,8.315058798E-2,9.726823807E0
1.944748826E0,-1.030708313E0,7.836493850E-2,9.741181374E0
1.946986497E0,-1.016351461E0,8.733802289E-2,9.741181374E0
1.949211473E0,-1.006780148E0,8.733802289E-2,9.736394882E0
1.951459703E0,-1.030708313E0,9.750752151E-2,9.736394882E0
1.953695360E0,-1.021735311E0,6.340979785E-2,9.750752449E0
1.955935167E0,-1.011565804E0,7.357929647E-2,9.713065147E0
1.958166307E0,-1.021137118E0,8.315058798E-2,9.712467194E0
1.960394395E0,-1.011565804E0,6.819544733E-2,9.722636223E0
1.962643480E0,-1.021137118E0,7.836493850E-2,9.726823807E0
1.964881151E0,-1.001396298E0,1.016949639E-1,9.708279610E0
1.967116990E0,-1.035493970E0,7.836493850E-2,9.731609344E0
1.969339524E0,-1.021137118E0,7.836493850E-2,9.722038269E0
1.971577806E0,-1.020538807E0,9.750752151E-2,9.717252731E0
1.973826890E0,-1.006780148E0,8.255238086E-2,9.717850685E0
1.976066393E0,-1.006780148E0,9.690931439E-2,9.741181374E0
1.978303331E0,-1.021137118E0,7.836493850E-2,9.726823807E0
1.980537645E0,-1.025922656E0,7.836493850E-2,9.722038269E0
1.982775194E0,-1.011565804E0,9.690931439E-2,9.731609344E0
1.985011339E0,-1.030708313E0,8.793623000E-2,9.722038269E0
1.987248765E0,-1.021137118E0,8.315058798E-2,9.726823807E0
1.989484178E0,-1.021137118E0,9.272187948E-2,9.726823807E0
1.991721422E0,-1.021137118E0,8.793623000E-2,9.741181374E0
1.993957750E0,-1.035493970E0,7.836493850E-2,9.741181374E0
1.996194932E0,-1.025922656E0,6.879365444E-2,9.717252731E0
1.998432176E0,-1.006780148E0,8.255238086E-2,9.732208252E0
2.000669786E0,-1.025922656E0,6.400800496E-2,9.726823807E0
2.002905870E0,-1.030708313E0,7.357929647E-2,9.722038269E0
2.005143358E0,-1.045065284E0,7.836493850E-2,9.745966911E0
2.007378893E0,-1.016351461E0,9.212367237E-2,9.736394882E0
2.009615770E0,-1.021137118E0,9.272187948E-2,9.726823807E0
2.011849534E0,-1.006780148E0,8.255238086E-2,9.722636223E0
2.014077440E0,-1.030708313E0,8.315058798E-2,9.712467194E0
2.016326768E0,-1.011565804E0,7.298108935E-2,9.736993790E0
2.018564256E0,-1.025324464E0,9.750752151E-2,9.717252731E0
2.020803392E0,-1.034895778E0,9.272187948E-2,9.707681656E0
2.023037889E0,-1.021137118E0,8.315058798E-2,9.731609344E0
2.025273485E0,-1.016351461E0,8.315058798E-2,9.731609344E0
2.027510484E0,-1.021137118E0,8.793623000E-2,9.726823807E0
2.029746813E0,-1.025922656E0,9.750752151E-2,9.731609344E0
2.031983934E0,-1.034895778E0,9.272187948E-2,9.702896118E0
2.034219041E0,-1.035493970E0,9.272187948E-2,9.731609344E0
2.036449998E0,-1.010967612E0,9.272187948E-2,9.708279610E0
2.038694688E0,-1.025324464E0,1.022931710E-1,9.731609344E0
2.040932420E0,-1.021137118E0,7.836493850E-2,9.736394882E0
2.043170152E0,-1.011565804E0,8.733802289E-2,9.731609344E0
2.045404893E0,-1.025324464E0,9.272187948E-2,9.698110580E0
2.047641588E0,-1.016351461E0,7.357929647E-2,9.722038269E0
2.049878465E0,-1.016351461E0,7.357929647E-2,9.722038269E0
2.052115770E0,-1.011565804E0,9.212367237E-2,9.736394882E0
2.054353014E0,-1.030110121E0,1.118644550E-1,9.722038269E0
2.056589219E0,-1.030708313E0,8.315058798E-2,9.731609344E0
2.058826890E0,-1.025922656E0,6.400800496E-2,9.736394882E0
2.061062364E0,-1.021137118E0,6.879365444E-2,9.717252731E0
2.063299669E0,-1.030708313E0,7.836493850E-2,9.726823807E0
2.065536119E0,-1.025922656E0,9.272187948E-2,9.736394882E0
2.067772935E0,-1.030708313E0,8.793623000E-2,9.750752449E0
2.070009813E0,-1.035493970E0,9.272187948E-2,9.745966911E0
2.072247789E0,-1.026520967E0,8.733802289E-2,9.784252167E0
2.074483690E0,-1.026520967E0,6.400800496E-2,9.741181374E0
2.076721361E0,-1.030110121E0,8.315058798E-2,9.693324089E0
2.078953478E0,-1.011565804E0,8.315058798E-2,9.703494072E0
2.081179735E0,-1.001994491E0,8.255238086E-2,9.713065147E0
2.083430467E0,-1.021137118E0,9.750752151E-2,9.736394882E0
2.085667467E0,-1.021137118E0,8.793623000E-2,9.731609344E0
2.087905137E0,-1.016351461E0,8.315058798E-2,9.707681656E0
2.090127244E0,-1.011565804E0,7.776673883E-2,9.736394882E0
2.092363511E0,-1.030110121E0,9.272187948E-2,9.702896118E0
2.094603746E0,-1.035493970E0,7.836493850E-2,9.726823807E0
2.096854113E0,-1.025922656E0,7.836493850E-2,9.726823807E0
2.099091356E0,-1.035493970E0,8.793623000E-2,9.726823807E0
2.101326708E0,-1.021137118E0,8.733802289E-2,9.750752449E0
2.103556932E0,-1.025922656E0,7.836493850E-2,9.726823807E0
2.105798936E0,-1.021137118E0,7.357929647E-2,9.736394882E0
2.108036851E0,-1.011565804E0,8.733802289E-2,9.722636223E0
2.110273790E0,-1.030110121E0,9.750752151E-2,9.722038269E0
2.112510301E0,-1.021137118E0,6.879365444E-2,9.717252731E0
2.114745531E0,-1.001994491E0,8.733802289E-2,9.713065147E0
2.116980699E0,-1.021137118E0,8.315058798E-2,9.736394882E0
2.119211229E0,-1.025922656E0,7.836493850E-2,9.717252731E0
2.121456712E0,-9.972088337E-1,9.212367237E-2,9.727422714E0
2.123693956E0,-1.021137118E0,7.836493850E-2,9.731609344E0
2.125933275E0,-1.025922656E0,6.400800496E-2,9.731609344E0
2.128167283E0,-1.025922656E0,7.357929647E-2,9.736394882E0
2.130404771E0,-1.011565804E0,7.776673883E-2,9.722636223E0
2.132640428E0,-1.016351461E0,6.879365444E-2,9.713065147E0
2.134877489E0,-1.016351461E0,8.315058798E-2,9.708279610E0
2.137110155E0,-1.030708313E0,1.022931710E-1,9.736394882E0
2.139332566E0,-1.006780148E0,8.255238086E-2,9.745966911E0
2.141576524E0,-1.025922656E0,8.315058798E-2,9.736394882E0
2.143825975E0,-1.030708313E0,8.315058798E-2,9.731609344E0
2.146065660E0,-1.021137118E0,6.879365444E-2,9.731609344E0
2.148302049E0,-1.016351461E0,8.733802289E-2,9.736394882E0
2.150534837E0,-1.016351461E0,6.819544733E-2,9.736394882E0
2.152771776E0,-1.016351461E0,9.212367237E-2,9.741181374E0
2.155008592E0,-1.011565804E0,7.776673883E-2,9.731609344E0
2.157242418E0,-1.006780148E0,7.298108935E-2,9.736394882E0
2.159470872E0,-1.030708313E0,8.793623000E-2,9.726823807E0
2.161720506E0,-1.016351461E0,8.255238086E-2,9.736394882E0
2.163956346E0,-1.030708313E0,8.315058798E-2,9.726823807E0
2.166196642E0,-1.011565804E0,7.298108935E-2,9.736394882E0
2.168425646E0,-1.015753269E0,8.793623000E-2,9.707681656E0
2.170651353E0,-1.025922656E0,5.922235921E-2,9.722038269E0
2.172902879E0,-1.016351461E0,7.836493850E-2,9.731609344E0
2.175139940E0,-1.021137118E0,7.357929647E-2,9.722038269E0
2.177381089E0,-1.006780148E0,6.819544733E-2,9.722636223E0
2.179615098E0,-1.025922656E0,8.315058798E-2,9.707681656E0
2.181850877E0,-1.030708313E0,8.793623000E-2,9.741181374E0
2.184088182E0,-1.016351461E0,9.212367237E-2,9.731609344E0
2.186323900E0,-1.025922656E0,6.879365444E-2,9.722038269E0
2.188560777E0,-1.030708313E0,8.793623000E-2,9.731609344E0
2.190797411E0,-1.011565804E0,6.819544733E-2,9.741181374E0
2.193034410E0,-1.025922656E0,9.272187948E-2,9.731609344E0
2.195271592E0,-1.016351461E0,7.836493850E-2,9.731609344E0
2.197509386E0,-1.021137118E0,6.879365444E-2,9.741181374E0
2.199745469E0,-1.006780148E0,9.212367237E-2,9.727422714E0
2.201983018E0,-1.025922656E0,7.836493850E-2,9.726823807E0
2.204218492E0,-1.010967612E0,8.793623000E-2,9.713065147E0
2.206455369E0,-1.021137118E0,7.357929647E-2,9.717252731E0
2.208692064E0,-1.011565804E0,7.298108935E-2,9.736993790E0
2.210928636E0,-1.035493970E0,8.315058798E-2,9.722038269E0
2.213165819E0,-1.035493970E0,7.357929647E-2,9.741181374E0
2.215403551E0,-1.011565804E0,6.819544733E-2,9.741181374E0
2.217639817E0,-1.016351461E0,7.357929647E-2,9.726823807E0
2.219877550E0,-1.025922656E0,7.357929647E-2,9.745966911E0
2.222112779E0,-1.025922656E0,9.272187948E-2,9.745966911E0
2.224349718E0,-1.030708313E0,9.272187948E-2,9.736394882E0
2.226586656E0,-1.021137118E0,8.315058798E-2,9.726823807E0
2.228823534E0,-1.015753269E0,8.793623000E-2,9.708279610E0
2.231060655E0,-9.972088337E-1,8.733802289E-2,9.736993790E0
2.233294725E0,-1.011565804E0,8.255238086E-2,9.741181374E0
2.235520799E0,-1.025922656E0,9.272187948E-2,9.736394882E0
2.237771776E0,-1.016351461E0,8.793623000E-2,9.722038269E0
2.240007372E0,-1.030708313E0,8.315058798E-2,9.717252731E0
2.242247789E0,-1.016351461E0,6.819544733E-2,9.731609344E0
2.244480943E0,-1.011565804E0,8.255238086E-2,9.741181374E0
2.246717821E0,-1.006780148E0,8.255238086E-2,9.713065147E0
2.248955125E0,-1.035493970E0,1.022931710E-1,9.736394882E0
2.251192674E0,-1.025922656E0,8.315058798E-2,9.741181374E0
2.253428819E0,-1.025922656E0,9.272187948E-2,9.731609344E0
2.255666307E0,-1.030708313E0,7.836493850E-2,9.726823807E0
2.257901903E0,-1.021137118E0,7.836493850E-2,9.712467194E0
2.260138963E0,-1.021137118E0,7.357929647E-2,9.731609344E0
2.262375475E0,-1.016351461E0,6.819544733E-2,9.745966911E0
2.264612352E0,-1.011565804E0,8.255238086E-2,9.726823807E0
2.266849656E0,-1.016351461E0,7.357929647E-2,9.713065147E0
2.269087205E0,-1.030708313E0,8.315058798E-2,9.712467194E0
2.271323350E0,-1.025324464E0,1.022931710E-1,9.722038269E0
2.273560899E0,-1.021137118E0,8.793623000E-2,9.726823807E0
2.275796678E0,-1.011565804E0,8.255238086E-2,9.722636223E0
2.278030442E0,-1.016351461E0,7.357929647E-2,9.717850685E0
2.280257860E0,-1.021137118E0,8.793623000E-2,9.741181374E0
2.282507066E0,-1.016351461E0,7.776673883E-2,9.741181374E0
2.284744188E0,-1.025922656E0,7.836493850E-2,9.722038269E0
2.286983263E0,-1.021137118E0,8.315058798E-2,9.726823807E0
2.289211656E0,-1.015753269E0,9.272187948E-2,9.712467194E0
2.291455064E0,-1.011565804E0,9.212367237E-2,9.745966911E0
2.293690721E0,-1.011565804E0,8.255238086E-2,9.731609344E0
2.295929491E0,-1.006780148E0,8.255238086E-2,9.722636223E0
2.298161424E0,-1.016351461E0,8.793623000E-2,9.726823807E0
2.300389635E0,-1.006780148E0,8.733802289E-2,9.732208252E0
2.302638170E0,-1.021137118E0,8.315058798E-2,9.726823807E0
2.304876024E0,-1.035493970E0,7.357929647E-2,9.736394882E0
2.307112169E0,-1.025922656E0,7.357929647E-2,9.722038269E0
2.309338243E0,-1.016351461E0,9.212367237E-2,9.726823807E0
2.311585252E0,-1.011565804E0,9.690931439E-2,9.722038269E0
2.313822374E0,-1.025922656E0,8.793623000E-2,9.707681656E0
2.316061998E0,-1.021137118E0,9.272187948E-2,9.717252731E0
2.318295946E0,-1.001994491E0,8.255238086E-2,9.722636223E0
2.320533067E0,-1.006780148E0,9.212367237E-2,9.726823807E0
2.322770738E0,-1.025922656E0,6.879365444E-2,9.722038269E0
2.325006639E0,-1.025922656E0,8.793623000E-2,9.741181374E0
2.327244188E0,-1.025922656E0,7.836493850E-2,9.717252731E0
2.329479662E0,-1.016351461E0,6.879365444E-2,9.726823807E0
2.331716600E0,-1.030708313E0,8.793623000E-2,9.731609344E0
2.333953355E0,-1.030708313E0,8.793623000E-2,9.726823807E0
2.336190233E0,-1.016351461E0,8.793623000E-2,9.712467194E0
2.338427598E0,-1.006780148E0,7.776673883E-2,9.736993790E0
2.340665147E0,-1.016351461E0,8.733802289E-2,9.741181374E0
2.342901475E0,-1.016351461E0,9.690931439E-2,9.731609344E0
2.345135667E0,-1.006780148E0,8.255238086E-2,9.745966911E0
2.347362047E0,-1.006181955E0,8.733802289E-2,9.703494072E0
2.349611070E0,-1.021735311E0,5.922235921E-2,9.741181374E0
2.351847887E0,-1.016351461E0,8.733802289E-2,9.736394882E0
2.354087816E0,-1.025922656E0,8.315058798E-2,9.736394882E0
2.356322191E0,-1.025922656E0,8.315058798E-2,9.717252731E0
2.358559801E0,-1.021137118E0,9.272187948E-2,9.722038269E0
2.360795518E0,-1.016351461E0,8.255238086E-2,9.731609344E0
2.363033250E0,-1.021137118E0,7.357929647E-2,9.726823807E0
2.365268724E0,-1.016351461E0,7.357929647E-2,9.731609344E0
2.367501207E0,-1.021137118E0,6.879365444E-2,9.741181374E0
2.369724352E0,-1.025324464E0,9.272187948E-2,9.702896118E0
2.371979234E0,-1.040279627E0,7.836493850E-2,9.726823807E0
2.374216417E0,-1.006780148E0,7.298108935E-2,9.736993790E0
2.376458604E0,-1.025922656E0,7.836493850E-2,9.726823807E0
2.378690049E0,-1.045065284E0,7.357929647E-2,9.722038269E0
2.380927843E0,-1.021137118E0,7.357929647E-2,9.717252731E0
2.383163377E0,-1.011565804E0,8.255238086E-2,9.722636223E0
2.385400438E0,-1.030708313E0,9.272187948E-2,9.736394882E0
2.387636705E0,-1.030708313E0,7.357929647E-2,9.717252731E0
2.389873826E0,-1.025922656E0,7.357929647E-2,9.717252731E0
2.392111131E0,-1.021137118E0,6.879365444E-2,9.726823807E0
2.394348680E0,-1.006780148E0,8.733802289E-2,9.732208252E0
2.396584581E0,-1.025922656E0,6.400800496E-2,9.712467194E0
2.398822252E0,-1.016351461E0,8.733802289E-2,9.741181374E0
2.401057604E0,-1.011565804E0,7.298108935E-2,9.722636223E0
2.403294786E0,-1.015753269E0,9.750752151E-2,9.712467194E0
2.405531480E0,-1.035493970E0,8.793623000E-2,9.722038269E0
2.407768358E0,-1.011565804E0,7.776673883E-2,9.727422714E0
2.410005479E0,-1.006780148E0,7.298108935E-2,9.736993790E0
2.412240159E0,-1.016351461E0,6.879365444E-2,9.722636223E0
2.414467149E0,-1.021137118E0,6.400800496E-2,9.722038269E0
2.416716905E0,-1.035493970E0,8.315058798E-2,9.726823807E0
2.418952379E0,-1.030708313E0,8.315058798E-2,9.741181374E0
2.421192247E0,-9.972088337E-1,8.733802289E-2,9.736993790E0
2.423425768E0,-1.011565804E0,9.212367237E-2,9.731609344E0
2.425662828E0,-9.966106415E-1,9.690931439E-2,9.722636223E0
2.427899949E0,-1.021137118E0,9.750752151E-2,9.731609344E0
2.430137498E0,-1.025922656E0,8.315058798E-2,9.707681656E0
2.432373582E0,-1.006780148E0,8.733802289E-2,9.713065147E0
2.434608140E0,-1.030708313E0,9.750752151E-2,9.736394882E0
2.436834703E0,-1.021137118E0,7.836493850E-2,9.745966911E0
2.439083543E0,-1.030110121E0,9.750752151E-2,9.717252731E0
2.441320299E0,-1.011565804E0,7.298108935E-2,9.731609344E0
2.443560167E0,-1.030708313E0,8.793623000E-2,9.731609344E0
2.445794542E0,-1.025922656E0,7.836493850E-2,9.736394882E0
2.448032030E0,-1.021137118E0,7.836493850E-2,9.745966911E0
2.450268174E0,-1.021137118E0,9.272187948E-2,9.741181374E0
2.452505601E0,-1.011565804E0,8.733802289E-2,9.736394882E0
2.454741014E0,-1.030708313E0,9.272187948E-2,9.722038269E0
2.456977404E0,-1.030708313E0,9.272187948E-2,9.750752449E0
2.459211229E0,-9.876375198E-1,9.212367237E-2,9.746564865E0
2.461452012E0,-1.010967612E0,9.272187948E-2,9.713065147E0
2.463689012E0,-1.030708313E0,8.315058798E-2,9.731609344E0
2.465927477E0,-1.025922656E0,9.272187948E-2,9.717252731E0
2.468162645E0,-1.016351461E0,9.212367237E-2,9.736394882E0
2.470400194E0,-1.030708313E0,6.879365444E-2,9.717252731E0
2.472635729E0,-1.021137118E0,8.793623000E-2,9.731609344E0
2.474872545E0,-1.030708313E0,9.272187948E-2,9.722038269E0
2.477106248E0,-1.010967612E0,9.690931439E-2,9.713065147E0
2.479334703E0,-1.016351461E0,8.793623000E-2,9.712467194E0
2.481583299E0,-1.021137118E0,6.879365444E-2,9.731609344E0
2.483820909E0,-1.025922656E0,8.793623000E-2,9.726823807E0
2.486060106E0,-1.016351461E0,7.357929647E-2,9.713065147E0
2.488294847E0,-1.021137118E0,8.315058798E-2,9.722038269E0
2.490530565E0,-1.011565804E0,7.298108935E-2,9.736394882E0
2.492767137E0,-1.016351461E0,9.272187948E-2,9.726823807E0
2.495003893E0,-1.021137118E0,8.793623000E-2,9.722038269E0
2.497237718E0,-1.011565804E0,8.733802289E-2,9.731609344E0
2.499466173E0,-1.011565804E0,8.255238086E-2,9.732208252E0
2.501712632E0,-1.006780148E0,8.255238086E-2,9.732208252E0
2.503939805E0,-1.025922656E0,7.836493850E-2,9.726823807E0
2.506192247E0,-1.025324464E0,9.272187948E-2,9.707681656E0
2.508424791E0,-1.016351461E0,7.836493850E-2,9.727422714E0
2.510664598E0,-1.006780148E0,8.733802289E-2,9.741779327E0
2.512898180E0,-1.020538807E0,9.272187948E-2,9.717252731E0
2.515135301E0,-1.021137118E0,8.315058798E-2,9.736394882E0
2.517372667E0,-1.025922656E0,9.272187948E-2,9.722038269E0
2.519610155E0,-1.006780148E0,7.298108935E-2,9.751350403E0
2.521845994E0,-1.025922656E0,8.793623000E-2,9.741181374E0
2.524083543E0,-1.020538807E0,9.272187948E-2,9.717252731E0
2.526319322E0,-1.021137118E0,8.793623000E-2,9.741181374E0
2.528556261E0,-1.011565804E0,8.733802289E-2,9.736993790E0
2.530793016E0,-1.011565804E0,7.836493850E-2,9.717850685E0
2.533029771E0,-1.021137118E0,8.315058798E-2,9.722038269E0
2.535266954E0,-1.021137118E0,8.793623000E-2,9.722038269E0
2.537504625E0,-1.025922656E0,8.315058798E-2,9.722038269E0
2.539740587E0,-1.030708313E0,8.793623000E-2,9.736394882E0
2.541978380E0,-1.040279627E0,7.357929647E-2,9.741181374E0
2.544211229E0,-1.025324464E0,9.750752151E-2,9.722038269E0
2.546440233E0,-1.011565804E0,8.255238086E-2,9.726823807E0
2.548687242E0,-1.025922656E0,7.357929647E-2,9.726823807E0
2.550924303E0,-1.025922656E0,7.836493850E-2,9.722038269E0
2.553164049E0,-1.025922656E0,6.400800496E-2,9.703494072E0
2.555398973E0,-1.011565804E0,6.819544733E-2,9.732208252E0
2.557635118E0,-1.016351461E0,7.836493850E-2,9.717850685E0
2.559872850E0,-1.030708313E0,8.315058798E-2,9.745966911E0
2.562108263E0,-1.030708313E0,9.272187948E-2,9.726823807E0
2.564345506E0,-1.021137118E0,7.836493850E-2,9.712467194E0
2.566578660E0,-1.025922656E0,9.272187948E-2,9.722038269E0
2.568806383E0,-1.016351461E0,7.357929647E-2,9.726823807E0
2.571055650E0,-1.016351461E0,9.212367237E-2,9.755537987E0
2.573293443E0,-1.021137118E0,8.793623000E-2,9.712467194E0
2.575532457E0,-1.021137118E0,9.750752151E-2,9.731609344E0
2.577767198E0,-1.016351461E0,8.793623000E-2,9.726823807E0
2.580002733E0,-1.021137118E0,7.836493850E-2,9.717252731E0
2.582239915E0,-1.011565804E0,7.776673883E-2,9.722636223E0
2.584476549E0,-1.016351461E0,8.733802289E-2,9.731609344E0
2.586713243E0,-1.011565804E0,7.776673883E-2,9.736394882E0
2.588947802E0,-1.001994491E0,8.733802289E-2,9.736993790E0
2.591173326E0,-1.030708313E0,8.315058798E-2,9.722038269E0
2.593412523E0,-1.011565804E0,8.255238086E-2,9.726823807E0
2.595661912E0,-1.011565804E0,7.776673883E-2,9.722636223E0
2.597900376E0,-1.011565804E0,8.255238086E-2,9.741181374E0
2.600137010E0,-1.021137118E0,6.879365444E-2,9.726823807E0
2.602370836E0,-1.035493970E0,8.315058798E-2,9.745966911E0
2.604607896E0,-1.025922656E0,8.793623000E-2,9.741181374E0
2.606845140E0,-1.021137118E0,1.022931710E-1,9.741181374E0
2.609082811E0,-1.006181955E0,1.016949639E-1,9.722636223E0
2.611318651E0,-1.010967612E0,9.690931439E-2,9.717252731E0
2.613556200E0,-1.011565804E0,9.690931439E-2,9.741181374E0
2.615791673E0,-1.016351461E0,7.836493850E-2,9.731609344E0
2.618025621E0,-1.035493970E0,7.357929647E-2,9.717252731E0
2.620253465E0,-1.006780148E0,7.776673883E-2,9.736394882E0
2.622502489E0,-1.021137118E0,7.836493850E-2,9.741181374E0
2.624739549E0,-1.025922656E0,7.357929647E-2,9.745966911E0
2.626975206E0,-1.016351461E0,8.733802289E-2,9.750752449E0
2.629194566E0,-1.030708313E0,8.315058798E-2,9.736394882E0
2.631450426E0,-1.016351461E0,8.255238086E-2,9.731609344E0
2.633683091E0,-1.040279627E0,7.836493850E-2,9.745966911E0
2.635912889E0,-1.021137118E0,8.315058798E-2,9.707681656E0
2.638145250E0,-1.030708313E0,7.357929647E-2,9.707681656E0
2.640381883E0,-1.021137118E0,8.793623000E-2,9.712467194E0
2.642625169E0,-1.035493970E0,9.272187948E-2,9.722038269E0
2.644874559E0,-1.040279627E0,9.272187948E-2,9.726823807E0
2.647107896E0,-1.016351461E0,8.733802289E-2,9.750752449E0
2.649336717E0,-1.006780148E0,8.255238086E-2,9.741181374E0
2.651580553E0,-1.007378340E0,6.819544733E-2,9.755537987E0
2.653817613E0,-1.006780148E0,9.690931439E-2,9.736394882E0
2.656057055E0,-1.015753269E0,9.750752151E-2,9.722038269E0
2.658291307E0,-1.016351461E0,8.793623000E-2,9.712467194E0
2.660528367E0,-1.006780148E0,7.776673883E-2,9.708279610E0
2.662765977E0,-1.011565804E0,8.733802289E-2,9.731609344E0
2.665002244E0,-1.030708313E0,8.793623000E-2,9.717252731E0
2.667236619E0,-1.021137118E0,8.315058798E-2,9.726823807E0
2.669463426E0,-1.010967612E0,9.272187948E-2,9.713065147E0
2.671712144E0,-1.021137118E0,8.315058798E-2,9.731609344E0
2.673948778E0,-1.021137118E0,8.793623000E-2,9.736394882E0
2.676188829E0,-1.016351461E0,7.298108935E-2,9.736394882E0
2.678420214E0,-1.021137118E0,8.315058798E-2,9.722038269E0
2.680648729E0,-1.021137118E0,8.315058798E-2,9.736394882E0
2.682896531E0,-1.010967612E0,9.690931439E-2,9.722038269E0
2.685134019E0,-9.876375198E-1,8.733802289E-2,9.722636223E0
2.687372545E0,-1.021137118E0,7.357929647E-2,9.731609344E0
2.689606493E0,-1.016351461E0,8.793623000E-2,9.717252731E0
2.691843248E0,-1.016351461E0,7.836493850E-2,9.726823807E0
2.694080125E0,-1.025922656E0,7.357929647E-2,9.726823807E0
2.696317491E0,-1.025922656E0,9.750752151E-2,9.741181374E0
2.698554918E0,-1.025922656E0,9.272187948E-2,9.731609344E0
2.700786547E0,-1.010967612E0,9.212367237E-2,9.717850685E0
2.703011217E0,-1.025922656E0,8.315058798E-2,9.722038269E0
2.705263963E0,-1.021137118E0,8.255238086E-2,9.750752449E0
2.707501268E0,-1.006780148E0,9.212367237E-2,9.745966911E0
2.709741929E0,-1.021137118E0,8.315058798E-2,9.722038269E0
2.711974901E0,-1.016351461E0,8.315058798E-2,9.726823807E0
2.714211778E0,-1.016351461E0,7.836493850E-2,9.708279610E0
2.716449815E0,-1.021137118E0,9.272187948E-2,9.731609344E0
2.718685594E0,-1.011565804E0,7.836493850E-2,9.722636223E0
2.720923204E0,-1.016351461E0,8.315058798E-2,9.731609344E0
2.723158617E0,-1.021137118E0,7.357929647E-2,9.731609344E0
2.725395494E0,-1.006780148E0,7.298108935E-2,9.722636223E0
2.727632066E0,-1.011565804E0,8.733802289E-2,9.736993790E0
2.729869188E0,-1.006780148E0,8.255238086E-2,9.722636223E0
2.732106553E0,-1.034895778E0,1.022931710E-1,9.726823807E0
2.734344102E0,-1.030708313E0,7.836493850E-2,9.726823807E0
2.736580186E0,-1.016351461E0,6.400800496E-2,9.717850685E0
2.738817613E0,-1.021137118E0,8.315058798E-2,9.741181374E0
2.741052965E0,-1.006780148E0,6.819544733E-2,9.732208252E0
2.743287034E0,-1.016351461E0,8.315058798E-2,9.731609344E0
2.745514635E0,-1.021137118E0,7.836493850E-2,9.722038269E0
2.747763719E0,-1.016351461E0,6.400800496E-2,9.726823807E0
2.750000840E0,-1.021137118E0,8.793623000E-2,9.731609344E0
2.752241564E0,-1.025922656E0,8.315058798E-2,9.731609344E0
2.754474412E0,-1.020538807E0,1.070788130E-1,9.736394882E0
2.756712022E0,-1.016351461E0,8.315058798E-2,9.736394882E0
2.758947801E0,-1.011565804E0,8.255238086E-2,9.736993790E0
2.761184862E0,-1.010967612E0,9.272187948E-2,9.717850685E0
2.763421129E0,-1.016351461E0,6.879365444E-2,9.722636223E0
2.765657579E0,-1.030708313E0,7.836493850E-2,9.741181374E0
2.767893785E0,-1.030708313E0,9.272187948E-2,9.755537987E0
2.770132860E0,-1.006780148E0,7.298108935E-2,9.722636223E0
2.772369005E0,-1.025922656E0,6.879365444E-2,9.722038269E0
2.774606920E0,-1.035493970E0,8.793623000E-2,9.741181374E0
2.776842393E0,-1.011565804E0,6.819544733E-2,9.736394882E0
2.779079393E0,-1.030708313E0,8.315058798E-2,9.731609344E0
2.781315660E0,-1.021137118E0,8.315058798E-2,9.726823807E0
2.783552537E0,-1.011565804E0,8.315058798E-2,9.708279610E0
2.785790086E0,-1.025922656E0,7.357929647E-2,9.717252731E0
2.788027635E0,-1.030708313E0,7.836493850E-2,9.722038269E0
2.790263536E0,-1.025922656E0,9.272187948E-2,9.731609344E0
2.792500963E0,-1.006780148E0,6.819544733E-2,9.736993790E0
2.794736498E0,-1.006780148E0,7.776673883E-2,9.755537987E0
2.796969408E0,-1.006780148E0,9.212367237E-2,9.727422714E0
2.799194139E0,-1.021137118E0,8.315058798E-2,9.736394882E0
2.801447313E0,-1.025922656E0,9.272187948E-2,9.726823807E0
2.803684434E0,-1.040279627E0,8.315058798E-2,9.731609344E0
2.805926011E0,-1.006780148E0,8.255238086E-2,9.732208252E0
2.808158189E0,-1.016351461E0,5.922235921E-2,9.731609344E0
2.810392198E0,-1.016351461E0,7.836493850E-2,9.722038269E0
2.812618700E0,-1.035493970E0,8.793623000E-2,9.726823807E0
2.814868150E0,-1.030708313E0,8.793623000E-2,9.722038269E0
2.817101854E0,-1.006780148E0,9.690931439E-2,9.741181374E0
2.819332994E0,-1.021137118E0,6.879365444E-2,9.726823807E0
2.821578965E0,-1.035493970E0,7.836493850E-2,9.717252731E0
2.823816698E0,-1.025922656E0,6.879365444E-2,9.736394882E0
2.826055528E0,-1.021137118E0,7.836493850E-2,9.731609344E0
2.828290086E0,-1.025922656E0,8.315058798E-2,9.717252731E0
2.830525560E0,-1.011565804E0,8.255238086E-2,9.731609344E0
2.832758470E0,-1.021137118E0,8.315058798E-2,9.726823807E0
2.834983141E0,-1.025922656E0,9.272187948E-2,9.731609344E0
2.837237718E0,-1.006780148E0,8.733802289E-2,9.717850685E0
2.839479844E0,-1.006780148E0,7.776673883E-2,9.717850685E0
2.841715013E0,-1.021137118E0,7.836493850E-2,9.741181374E0
2.843947069E0,-9.972088337E-1,8.733802289E-2,9.746564865E0
2.846182786E0,-1.025922656E0,9.272187948E-2,9.726823807E0
2.848420152E0,-1.021137118E0,8.793623000E-2,9.717252731E0
2.850656969E0,-1.016351461E0,8.315058798E-2,9.722038269E0
2.852893602E0,-1.025922656E0,8.793623000E-2,9.736394882E0
2.855130662E0,-1.040279627E0,9.750752151E-2,9.722038269E0
2.857368028E0,-1.012163997E0,6.340979785E-2,9.745966911E0
2.859605516E0,-1.016351461E0,7.836493850E-2,9.731609344E0
2.861841356E0,-1.016351461E0,5.922235921E-2,9.722038269E0
2.864078905E0,-1.030110121E0,9.750752151E-2,9.712467194E0
2.866314684E0,-1.001994491E0,9.212367237E-2,9.732208252E0
2.868551622E0,-1.021137118E0,9.272187948E-2,9.741181374E0
2.870788438E0,-1.006780148E0,8.255238086E-2,9.732208252E0
2.873025377E0,-1.006181955E0,9.690931439E-2,9.717850685E0
2.875262254E0,-1.025922656E0,8.793623000E-2,9.726823807E0
2.877499742E0,-1.021137118E0,6.879365444E-2,9.717252731E0
2.879735887E0,-1.030708313E0,8.793623000E-2,9.712467194E0
2.881973741E0,-1.016351461E0,8.733802289E-2,9.741181374E0
2.884209276E0,-1.016351461E0,7.298108935E-2,9.736394882E0
2.886446153E0,-1.035493970E0,8.793623000E-2,9.736394882E0
2.888682787E0,-1.016351461E0,8.733802289E-2,9.755537987E0
2.890919481E0,-1.016351461E0,7.836493850E-2,9.726823807E0
2.893157090E0,-1.016351461E0,8.255238086E-2,9.736394882E0
2.895394517E0,-1.030708313E0,7.836493850E-2,9.722038269E0
2.897630540E0,-1.025922656E0,8.315058798E-2,9.741181374E0
2.899865098E0,-1.016351461E0,8.793623000E-2,9.726823807E0
2.902091295E0,-1.006780148E0,9.212367237E-2,9.732208252E0
2.904340562E0,-1.011565804E0,8.733802289E-2,9.741181374E0
2.906576830E0,-1.016351461E0,8.793623000E-2,9.722038269E0
2.908817064E0,-1.006780148E0,9.212367237E-2,9.736394882E0
2.911051317E0,-1.021137118E0,8.315058798E-2,9.726823807E0
2.913285936E0,-1.016351461E0,6.400800496E-2,9.712467194E0
2.915513109E0,-1.035493970E0,8.315058798E-2,9.726823807E0
2.917762743E0,-1.011565804E0,7.776673883E-2,9.722038269E0
2.919998094E0,-1.016351461E0,9.212367237E-2,9.736394882E0
2.922238146E0,-1.006780148E0,7.298108935E-2,9.731609344E0
2.924471605E0,-1.025922656E0,8.315058798E-2,9.741181374E0
2.926708543E0,-1.030708313E0,8.315058798E-2,9.717252731E0
2.928945909E0,-1.011565804E0,7.776673883E-2,9.731609344E0
2.931183580E0,-1.025922656E0,9.272187948E-2,9.736394882E0
2.933416369E0,-1.025922656E0,8.793623000E-2,9.736394882E0
2.935645250E0,-1.021137118E0,9.272187948E-2,9.741181374E0
2.937892320E0,-1.025922656E0,8.315058798E-2,9.760323524E0
2.940129747E0,-1.016351461E0,8.315058798E-2,9.726823807E0
2.942366685E0,-1.021137118E0,6.400800496E-2,9.722038269E0
2.944593309E0,-1.016351461E0,7.357929647E-2,9.726823807E0
2.946840135E0,-1.011565804E0,7.357929647E-2,9.708279610E0
2.949077928E0,-1.011565804E0,8.733802289E-2,9.722636223E0
2.951316515E0,-1.030708313E0,8.315058798E-2,9.760323524E0
2.953551622E0,-1.010967612E0,1.016949639E-1,9.736394882E0
2.955787157E0,-1.025324464E0,8.315058798E-2,9.698708534E0
2.958021165E0,-1.025922656E0,6.400800496E-2,9.722038269E0
2.960248521E0,-1.025922656E0,5.922235921E-2,9.708279610E0
2.962497606E0,-1.021137118E0,7.836493850E-2,9.731609344E0
2.964734910E0,-1.016949654E0,5.862415582E-2,9.736394882E0
2.966973253E0,-1.025324464E0,9.272187948E-2,9.717252731E0
2.969196458E0,-1.025922656E0,8.793623000E-2,9.726823807E0
2.971433580E0,-1.006181955E0,9.690931439E-2,9.722636223E0
2.973681383E0,-9.972088337E-1,7.776673883E-2,9.727422714E0
2.975920701E0,-1.016351461E0,7.836493850E-2,9.731609344E0
2.978155382E0,-1.025922656E0,8.793623000E-2,9.731609344E0
2.980381151E0,-1.021137118E0,8.315058798E-2,9.722038269E0
2.982629197E0,-1.016351461E0,8.793623000E-2,9.722038269E0
2.984866746E0,-1.030708313E0,8.315058798E-2,9.731609344E0
2.987102830E0,-1.011565804E0,8.733802289E-2,9.731609344E0
2.989329454E0,-1.021137118E0,9.272187948E-2,9.726823807E0
2.991576219E0,-1.021137118E0,8.315058798E-2,9.707681656E0
2.993813096E0,-1.011565804E0,8.255238086E-2,9.736394882E0
2.996052598E0,-1.011565804E0,7.298108935E-2,9.731609344E0
2.998286607E0,-1.034895778E0,9.750752151E-2,9.717252731E0
3.000523790E0,-1.016351461E0,7.357929647E-2,9.726823807E0
3.002761461E0,-1.006780148E0,8.733802289E-2,9.727422714E0
3.004997362E0,-1.011565804E0,8.315058798E-2,9.708279610E0
3.007234849E0,-1.025922656E0,8.793623000E-2,9.717252731E0
3.009467943E0,-1.025922656E0,7.836493850E-2,9.736394882E0
3.011698473E0,-1.021137118E0,9.272187948E-2,9.731609344E0
3.013943834E0,-1.045065284E0,8.315058798E-2,9.726823807E0
3.016181016E0,-1.025922656E0,1.022931710E-1,9.745966911E0
3.018420518E0,-1.040279627E0,7.357929647E-2,9.741181374E0
3.020655870E0,-1.021137118E0,7.836493850E-2,9.745966911E0
3.022891954E0,-1.016351461E0,7.357929647E-2,9.726823807E0
3.025129442E0,-1.011565804E0,8.255238086E-2,9.741181374E0
3.027365038E0,-1.021137118E0,8.315058798E-2,9.717252731E0
3.029602098E0,-1.025922656E0,8.315058798E-2,9.731609344E0
3.031838609E0,-1.030110121E0,1.022931710E-1,9.726823807E0
3.034075426E0,-1.021137118E0,8.793623000E-2,9.731609344E0
3.036312547E0,-1.035493970E0,6.879365444E-2,9.726823807E0
3.038550279E0,-1.030708313E0,7.357929647E-2,9.745966911E0
3.040786241E0,-1.021137118E0,6.879365444E-2,9.731609344E0
3.043024034E0,-1.016351461E0,7.357929647E-2,9.722038269E0
3.045259508E0,-1.021137118E0,7.836493850E-2,9.731609344E0
3.047496385E0,-1.025922656E0,9.750752151E-2,9.745966911E0
3.049732896E0,-1.016351461E0,9.212367237E-2,9.741181374E0
3.051969957E0,-1.021137118E0,8.255238086E-2,9.750752449E0
3.054207078E0,-1.001994491E0,9.212367237E-2,9.732208252E0
3.056444688E0,-1.016351461E0,7.836493850E-2,9.717850685E0
3.058681016E0,-1.016351461E0,9.272187948E-2,9.731609344E0
3.060918565E0,-1.035493970E0,6.400800496E-2,9.726823807E0
3.063154161E0,-1.016351461E0,8.315058798E-2,9.717850685E0
3.065391160E0,-1.015753269E0,1.016949639E-1,9.736394882E0
3.067627672E0,-1.011565804E0,8.733802289E-2,9.732208252E0
3.069864549E0,-1.021137118E0,8.315058798E-2,9.726823807E0
3.072101854E0,-1.025922656E0,7.836493850E-2,9.750752449E0
3.074339403E0,-1.025324464E0,1.118644550E-1,9.750752449E0
3.076575487E0,-1.035493970E0,7.836493850E-2,9.698110580E0
3.078812791E0,-1.016351461E0,6.879365444E-2,9.717850685E0
3.081048570E0,-1.016351461E0,7.836493850E-2,9.717252731E0
3.083285387E0,-1.011565804E0,7.776673883E-2,9.727422714E0
3.085522020E0,-1.025922656E0,9.750752151E-2,9.745966911E0
3.087756089E0,-1.006780148E0,8.255238086E-2,9.732208252E0
3.089981553E0,-1.025922656E0,6.879365444E-2,9.731609344E0
3.092222276E0,-1.006780148E0,7.776673883E-2,9.727422714E0
3.094470018E0,-1.011565804E0,8.733802289E-2,9.722636223E0
3.096710253E0,-1.016351461E0,8.315058798E-2,9.731609344E0
3.098945726E0,-1.025922656E0,8.793623000E-2,9.722038269E0
3.101176683E0,-1.030708313E0,7.836493850E-2,9.717252731E0
3.103404588E0,-1.016351461E0,7.836493850E-2,9.731609344E0
3.105653673E0,-1.025922656E0,7.836493850E-2,9.750752449E0
3.107890977E0,-1.030708313E0,9.272187948E-2,9.741181374E0
3.110131212E0,-1.040279627E0,7.357929647E-2,9.741181374E0
3.112364305E0,-1.016351461E0,7.298108935E-2,9.741181374E0
3.114601854E0,-1.011565804E0,6.819544733E-2,9.736993790E0
3.116837694E0,-1.035493970E0,8.793623000E-2,9.741181374E0
3.119074510E0,-1.025922656E0,7.836493850E-2,9.741181374E0
3.121311021E0,-1.030708313E0,5.922235921E-2,9.722038269E0
3.123547838E0,-1.011565804E0,7.776673883E-2,9.732208252E0
3.125785203E0,-1.021735311E0,6.400800496E-2,9.755537987E0
3.128022752E0,-1.016351461E0,6.879365444E-2,9.732208252E0
3.130258836E0,-1.016351461E0,7.357929647E-2,9.722636223E0
3.132496080E0,-1.035493970E0,9.272187948E-2,9.726823807E0
3.134728807E0,-1.011565804E0,7.298108935E-2,9.727422714E0
3.136955797E0,-1.015753269E0,1.022931710E-1,9.731609344E0
3.139199571E0,-1.016351461E0,7.836493850E-2,9.722636223E0
3.141442735E0,-1.016351461E0,8.793623000E-2,9.722636223E0
3.143682665E0,-1.030708313E0,7.836493850E-2,9.731609344E0
3.145918810E0,-1.016351461E0,8.255238086E-2,9.741181374E0
3.148153367E0,-1.006780148E0,7.298108935E-2,9.722636223E0
3.150390916E0,-1.016351461E0,6.879365444E-2,9.732208252E0
3.152626451E0,-1.021137118E0,8.733802289E-2,9.755537987E0
3.154863328E0,-1.030708313E0,9.272187948E-2,9.731609344E0
3.157097581E0,-1.021137118E0,7.357929647E-2,9.741181374E0
3.159326951E0,-1.006780148E0,8.733802289E-2,9.736993790E0
3.161574327E0,-1.025922656E0,8.315058798E-2,9.717252731E0
3.163811815E0,-1.006780148E0,6.819544733E-2,9.732208252E0
3.166047594E0,-1.030110121E0,9.272187948E-2,9.712467194E0
3.168270982E0,-1.021137118E0,8.793623000E-2,9.731609344E0
3.170509081E0,-1.016351461E0,7.357929647E-2,9.726823807E0
3.172758043E0,-1.016351461E0,8.315058798E-2,9.712467194E0
3.174997240E0,-1.011565804E0,9.212367237E-2,9.741181374E0
3.177231493E0,-1.016351461E0,6.340979785E-2,9.741181374E0
3.179456834E0,-1.016351461E0,8.255238086E-2,9.731609344E0
3.181706346E0,-1.006780148E0,7.776673883E-2,9.731609344E0
3.183942186E0,-1.011565804E0,7.776673883E-2,9.731609344E0
3.186182726E0,-1.025922656E0,7.357929647E-2,9.736394882E0
3.188415514E0,-1.006780148E0,8.255238086E-2,9.708279610E0
3.190652452E0,-1.016351461E0,8.733802289E-2,9.745966911E0
3.192889146E0,-1.016351461E0,8.315058798E-2,9.726823807E0
3.195125719E0,-1.016351461E0,7.776673883E-2,9.731609344E0
3.197363145E0,-1.025922656E0,6.879365444E-2,9.722038269E0
3.199600877E0,-1.025922656E0,8.793623000E-2,9.731609344E0
3.201837022E0,-1.021137118E0,8.793623000E-2,9.736394882E0
3.204074327E0,-1.006780148E0,8.733802289E-2,9.722636223E0
3.206310045E0,-1.010967612E0,1.016949639E-1,9.726823807E0
3.208546922E0,-1.020538807E0,1.022931710E-1,9.717252731E0
3.210783678E0,-1.030110121E0,1.118644550E-1,9.707681656E0
3.213020250E0,-1.016351461E0,9.750752151E-2,9.726823807E0
3.215257615E0,-1.025922656E0,7.357929647E-2,9.722038269E0
3.217495103E0,-1.016351461E0,7.836493850E-2,9.726823807E0
3.219731309E0,-1.006780148E0,7.298108935E-2,9.741779327E0
3.221968858E0,-1.011565804E0,7.836493850E-2,9.717850685E0
3.224204637E0,-1.011565804E0,8.255238086E-2,9.722636223E0
3.226441453E0,-1.030110121E0,9.272187948E-2,9.717252731E0
3.228678026E0,-1.015753269E0,9.750752151E-2,9.717252731E0
3.230915025E0,-1.006780148E0,7.776673883E-2,9.717850685E0
3.233149218E0,-1.021137118E0,9.272187948E-2,9.731609344E0
3.235377916E0,-1.021137118E0,8.315058798E-2,9.731609344E0
3.237625596E0,-1.006780148E0,8.255238086E-2,9.736993790E0
3.239863512E0,-1.025922656E0,6.879365444E-2,9.726823807E0
3.242101610E0,-1.030708313E0,9.272187948E-2,9.736394882E0
3.244336046E0,-1.025922656E0,7.357929647E-2,9.731609344E0
3.246572435E0,-1.021137118E0,6.879365444E-2,9.736394882E0
3.248809434E0,-1.021137118E0,6.879365444E-2,9.736394882E0
3.251046739E0,-1.030708313E0,7.357929647E-2,9.726823807E0
3.253284410E0,-1.021137118E0,7.836493850E-2,9.736394882E0
3.255520189E0,-1.021137118E0,7.836493850E-2,9.722038269E0
3.257758104E0,-1.006780148E0,8.255238086E-2,9.745966911E0
3.259993395E0,-1.016351461E0,6.819544733E-2,9.745966911E0
3.262230577E0,-1.011565804E0,8.255238086E-2,9.736394882E0
3.264466966E0,-1.035493970E0,8.315058798E-2,9.726823807E0
3.266703905E0,-1.045065284E0,1.022931710E-1,9.736394882E0
3.268941209E0,-1.001994491E0,7.776673883E-2,9.722636223E0
3.271178758E0,-1.025922656E0,8.793623000E-2,9.722038269E0
3.273414903E0,-1.001994491E0,7.776673883E-2,9.732208252E0
3.275652330E0,-1.030708313E0,8.793623000E-2,9.717252731E0
3.277887743E0,-1.016351461E0,7.836493850E-2,9.736394882E0
3.280125047E0,-1.030708313E0,7.357929647E-2,9.717252731E0
3.282361559E0,-1.025922656E0,7.357929647E-2,9.731609344E0
3.284598436E0,-1.006780148E0,7.298108935E-2,9.722636223E0
3.286835496E0,-1.016351461E0,8.255238086E-2,9.741181374E0
3.289073228E0,-1.006780148E0,8.733802289E-2,9.727422714E0
3.291309129E0,-1.025922656E0,8.793623000E-2,9.731609344E0
3.293546739E0,-1.001994491E0,8.255238086E-2,9.717850685E0
3.295782457E0,-1.016351461E0,9.272187948E-2,9.726823807E0
3.298018480E0,-1.006780148E0,7.298108935E-2,9.732208252E0
3.300252489E0,-1.011565804E0,9.212367237E-2,9.736394882E0
3.302492967E0,-1.020538807E0,9.272187948E-2,9.717252731E0
3.304730272E0,-1.030110121E0,1.022931710E-1,9.717252731E0
3.306965501E0,-1.025922656E0,8.793623000E-2,9.741181374E0
3.309191942E0,-1.010967612E0,9.690931439E-2,9.726823807E0
3.311441331E0,-1.016351461E0,8.315058798E-2,9.726823807E0
3.313677538E0,-1.025922656E0,8.793623000E-2,9.712467194E0
3.315916857E0,-1.025922656E0,8.793623000E-2,9.726823807E0
3.318147691E0,-1.034895778E0,9.750752151E-2,9.722038269E0
3.320375352E0,-1.035493970E0,9.272187948E-2,9.722038269E0
3.322624681E0,-1.016351461E0,8.793623000E-2,9.713065147E0
3.324862535E0,-9.972088337E-1,9.212367237E-2,9.722636223E0
3.327098314E0,-1.025922656E0,7.836493850E-2,9.741181374E0
3.329324266E0,-1.010967612E0,1.022931710E-1,9.703494072E0
3.331571153E0,-1.021137118E0,8.793623000E-2,9.726823807E0
3.333808153E0,-1.021137118E0,6.879365444E-2,9.731609344E0
3.336047776E0,-1.025922656E0,7.357929647E-2,9.726823807E0
3.338281785E0,-1.006780148E0,7.298108935E-2,9.746564865E0
3.340519151E0,-1.016351461E0,8.315058798E-2,9.708279610E0
3.342753587E0,-1.021137118E0,8.793623000E-2,9.726823807E0
3.344980577E0,-1.011565804E0,7.776673883E-2,9.750752449E0
3.347230272E0,-1.025922656E0,8.793623000E-2,9.726823807E0
3.349465807E0,-1.016351461E0,8.733802289E-2,9.741181374E0
3.351705736E0,-1.016351461E0,7.776673883E-2,9.741181374E0
3.353939439E0,-1.011565804E0,7.776673883E-2,9.736394882E0
3.356176317E0,-1.030708313E0,7.357929647E-2,9.726823807E0
3.358413682E0,-1.016351461E0,6.879365444E-2,9.726823807E0
3.360651170E0,-1.021137118E0,1.016949639E-1,9.745966911E0
3.362887315E0,-1.025922656E0,7.836493850E-2,9.726823807E0
3.365121934E0,-1.011565804E0,6.819544733E-2,9.717252731E0
3.367348863E0,-1.001994491E0,7.298108935E-2,9.722636223E0
3.369597215E0,-1.025922656E0,7.836493850E-2,9.726823807E0
3.371833971E0,-1.030708313E0,8.315058798E-2,9.736394882E0
3.374073717E0,-1.021137118E0,9.272187948E-2,9.726823807E0
3.376308214E0,-1.021137118E0,7.836493850E-2,9.707681656E0
3.378545701E0,-1.020538807E0,9.750752151E-2,9.722038269E0
3.380781846E0,-1.011565804E0,9.212367237E-2,9.726823807E0
3.383019273E0,-1.001994491E0,8.255238086E-2,9.750752449E0
3.385254686E0,-1.016351461E0,8.793623000E-2,9.722038269E0
3.387491930E0,-1.035493970E0,8.315058798E-2,9.726823807E0
3.389728258E0,-1.021137118E0,8.793623000E-2,9.726823807E0
3.391965440E0,-1.021137118E0,7.836493850E-2,9.731609344E0
3.394202684E0,-1.054636598E0,9.272187948E-2,9.736394882E0
3.396440294E0,-1.025324464E0,9.750752151E-2,9.726823807E0
3.398676317E0,-1.011565804E0,7.298108935E-2,9.732208252E0
3.400913621E0,-1.025922656E0,7.836493850E-2,9.722038269E0
3.403149400E0,-1.030708313E0,8.793623000E-2,9.745966911E0
3.405386217E0,-1.025922656E0,7.836493850E-2,9.707681656E0
3.407622789E0,-1.021137118E0,8.793623000E-2,9.736394882E0
3.409859544E0,-1.021137118E0,8.315058798E-2,9.741181374E0
3.412096727E0,-1.040279627E0,8.315058798E-2,9.717252731E0
3.414334520E0,-1.025922656E0,7.357929647E-2,9.726823807E0
3.416570665E0,-1.030708313E0,8.315058798E-2,9.722038269E0
3.418808214E0,-1.021137118E0,9.272187948E-2,9.736394882E0
3.421043810E0,-1.021137118E0,8.315058798E-2,9.726823807E0
3.423281053E0,-1.016351461E0,7.357929647E-2,9.726823807E0
3.425517320E0,-1.025922656E0,8.793623000E-2,9.722038269E0
3.427754198E0,-9.972088337E-1,9.212367237E-2,9.722636223E0
3.429991502E0,-1.016351461E0,8.255238086E-2,9.745966911E0
3.432226976E0,-1.016351461E0,6.340979785E-2,9.736394882E0
3.434455858E0,-1.011565804E0,8.733802289E-2,9.745966911E0
3.436702501E0,-1.010967612E0,9.690931439E-2,9.717252731E0
3.438938463E0,-1.021137118E0,7.836493850E-2,9.712467194E0
3.441177598E0,-1.025922656E0,8.793623000E-2,9.741181374E0
3.443411668E0,-1.021137118E0,7.836493850E-2,9.745966911E0
3.445648668E0,-1.025922656E0,8.315058798E-2,9.726823807E0
3.447886033E0,-1.025922656E0,8.315058798E-2,9.717252731E0
3.450123643E0,-1.025922656E0,7.836493850E-2,9.726823807E0
3.452359727E0,-1.025922656E0,8.315058798E-2,9.750752449E0
3.454597215E0,-1.021137118E0,8.315058798E-2,9.726823807E0
3.456832811E0,-1.021137118E0,8.793623000E-2,9.712467194E0
3.459069810E0,-1.016351461E0,6.879365444E-2,9.722038269E0
3.461306139E0,-1.016351461E0,8.255238086E-2,9.745966911E0
3.463543321E0,-1.021137118E0,7.836493850E-2,9.731609344E0
3.465780870E0,-1.011565804E0,8.315058798E-2,9.722636223E0
3.468018419E0,-1.006780148E0,8.255238086E-2,9.751350403E0
3.470254258E0,-1.006780148E0,9.212367237E-2,9.751350403E0
3.472491624E0,-1.021137118E0,8.793623000E-2,9.731609344E0
3.474726976E0,-1.025922656E0,8.793623000E-2,9.745966911E0
3.476962084E0,-1.011565804E0,7.776673883E-2,9.736993790E0
3.479192613E0,-1.006780148E0,8.255238086E-2,9.746564865E0
3.481437852E0,-1.021137118E0,7.836493850E-2,9.713065147E0
3.483675157E0,-1.016351461E0,9.272187948E-2,9.726823807E0
3.485914720E0,-1.030708313E0,7.836493850E-2,9.726823807E0
3.488148790E0,-1.016351461E0,6.400800496E-2,9.731609344E0
3.490386278E0,-1.021137118E0,7.357929647E-2,9.736394882E0
3.492621813E0,-1.010967612E0,8.793623000E-2,9.708279610E0
3.494858629E0,-1.030708313E0,7.836493850E-2,9.722038269E0
3.497092271E0,-1.011565804E0,7.298108935E-2,9.736993790E0
3.499315965E0,-1.015753269E0,8.793623000E-2,9.698708534E0
3.501548081E0,-1.025324464E0,1.022931710E-1,9.722038269E0
3.503794969E0,-1.011565804E0,8.733802289E-2,9.736394882E0
3.506045946E0,-1.016351461E0,8.793623000E-2,9.731609344E0
3.508285204E0,-1.035493970E0,7.357929647E-2,9.712467194E0
3.510519335E0,-1.030708313E0,8.315058798E-2,9.717252731E0
3.512753038E0,-1.030708313E0,7.836493850E-2,9.712467194E0
3.514990038E0,-1.025922656E0,8.315058798E-2,9.731609344E0
3.517223863E0,-1.011565804E0,8.733802289E-2,9.727422714E0
3.519452256E0,-1.020538807E0,9.750752151E-2,9.722038269E0
3.521701402E0,-1.040279627E0,7.357929647E-2,9.741181374E0
3.523937486E0,-1.016351461E0,5.922235921E-2,9.731609344E0
3.526177843E0,-1.030708313E0,8.793623000E-2,9.731609344E0
3.528410936E0,-1.010967612E0,9.272187948E-2,9.698708534E0
3.530647752E0,-1.020538807E0,1.070788130E-1,9.722038269E0
3.532884325E0,-1.016351461E0,9.212367237E-2,9.741181374E0
3.535121080E0,-1.010967612E0,1.016949639E-1,9.731609344E0
3.537358506E0,-1.016351461E0,5.922235921E-2,9.713065147E0
3.539596239E0,-1.025922656E0,8.793623000E-2,9.736394882E0
3.541831834E0,-1.021137118E0,7.776673883E-2,9.765109062E0
3.544068407E0,-1.021137118E0,6.400800496E-2,9.736394882E0
3.546305101E0,-1.016351461E0,8.793623000E-2,9.731609344E0
3.548542039E0,-1.011565804E0,9.690931439E-2,9.736394882E0
3.550779100E0,-1.006780148E0,7.776673883E-2,9.746564865E0
3.553015672E0,-1.006780148E0,7.776673883E-2,9.722636223E0
3.555253038E0,-1.021137118E0,8.315058798E-2,9.736394882E0
3.557490587E0,-1.016351461E0,7.836493850E-2,9.717252731E0
3.559726915E0,-1.016351461E0,7.357929647E-2,9.717850685E0
3.561964159E0,-1.021137118E0,8.315058798E-2,9.741181374E0
3.564199021E0,-1.016351461E0,7.836493850E-2,9.731609344E0
3.566433885E0,-1.011565804E0,8.255238086E-2,9.727422714E0
3.568673570E0,-1.030708313E0,8.793623000E-2,9.731609344E0
3.570910203E0,-1.030708313E0,8.315058798E-2,9.731609344E0
3.573148241E0,-1.030708313E0,9.272187948E-2,9.731609344E0
3.575384935E0,-1.016351461E0,8.793623000E-2,9.726823807E0
3.577620958E0,-1.021137118E0,7.357929647E-2,9.731609344E0
3.579858690E0,-1.020538807E0,9.272187948E-2,9.712467194E0
3.582094225E0,-1.016351461E0,9.212367237E-2,9.736394882E0
3.584331163E0,-1.016351461E0,8.793623000E-2,9.731609344E0
3.586564927E0,-1.006181955E0,8.733802289E-2,9.708279610E0
3.588790025E0,-1.025922656E0,7.836493850E-2,9.726823807E0
3.591030198E0,-1.035493970E0,7.357929647E-2,9.726823807E0
3.593279771E0,-1.021137118E0,8.793623000E-2,9.722038269E0
3.595518419E0,-1.035493970E0,8.315058798E-2,9.736394882E0
3.597756212E0,-1.016351461E0,9.750752151E-2,9.726823807E0
3.599988756E0,-1.025922656E0,8.315058798E-2,9.726823807E0
3.602225877E0,-1.021137118E0,6.879365444E-2,9.712467194E0
3.604462145E0,-1.021137118E0,6.879365444E-2,9.722038269E0
3.606699205E0,-1.025922656E0,8.793623000E-2,9.731609344E0
3.608936570E0,-1.025922656E0,9.272187948E-2,9.731609344E0
3.611175035E0,-1.011565804E0,7.836493850E-2,9.713065147E0
3.613409715E0,-1.011565804E0,8.733802289E-2,9.736394882E0
3.615647569E0,-1.016351461E0,7.357929647E-2,9.722636223E0
3.617883104E0,-1.021137118E0,7.836493850E-2,9.722038269E0
3.620120470E0,-1.030708313E0,9.272187948E-2,9.726823807E0
3.622356737E0,-1.011565804E0,8.733802289E-2,9.731609344E0
3.624593736E0,-1.011565804E0,6.819544733E-2,9.727422714E0
3.626830797E0,-1.025922656E0,9.272187948E-2,9.722038269E0
3.629068407E0,-1.030708313E0,8.315058798E-2,9.717252731E0
3.631303514E0,-1.021137118E0,8.315058798E-2,9.703494072E0
3.633535203E0,-1.020538807E0,9.272187948E-2,9.712467194E0
3.635762864E0,-1.011565804E0,7.836493850E-2,9.713065147E0
3.638000414E0,-1.021137118E0,7.836493850E-2,9.736394882E0
3.640243943E0,-1.030708313E0,6.879365444E-2,9.736394882E0
3.642491258E0,-1.016351461E0,8.255238086E-2,9.736394882E0
3.644728441E0,-1.021137118E0,1.022931710E-1,9.741181374E0
3.646962023E0,-1.021137118E0,8.793623000E-2,9.722038269E0
3.649187059E0,-1.006780148E0,8.255238086E-2,9.722636223E0
3.651436266E0,-1.021137118E0,7.357929647E-2,9.731609344E0
3.653670885E0,-1.011565804E0,6.340979785E-2,9.741181374E0
3.655911974E0,-1.011565804E0,7.776673883E-2,9.732208252E0
3.658143235E0,-1.021137118E0,7.836493850E-2,9.736394882E0
3.660372850E0,-1.025922656E0,8.793623000E-2,9.736394882E0
3.662619737E0,-1.021137118E0,9.272187948E-2,9.731609344E0
3.664857469E0,-1.006780148E0,8.255238086E-2,9.750752449E0
3.667093126E0,-1.011565804E0,7.776673883E-2,9.750752449E0
3.669319200E0,-9.924231768E-1,8.255238086E-2,9.741779327E0
3.671566637E0,-1.021137118E0,7.836493850E-2,9.712467194E0
3.673803514E0,-1.025922656E0,8.793623000E-2,9.731609344E0
3.676043261E0,-1.021137118E0,8.315058798E-2,9.712467194E0
3.678274156E0,-1.025922656E0,9.750752151E-2,9.731609344E0
3.680502610E0,-1.016351461E0,8.793623000E-2,9.726823807E0
3.682752244E0,-1.016351461E0,9.690931439E-2,9.736394882E0
3.684988084E0,-1.030708313E0,8.315058798E-2,9.741181374E0
3.687228258E0,-1.016351461E0,8.733802289E-2,9.736394882E0
3.689460619E0,-1.025324464E0,9.272187948E-2,9.712467194E0
3.691697984E0,-1.030708313E0,8.315058798E-2,9.717252731E0
3.693934557E0,-1.015753269E0,1.022931710E-1,9.717252731E0
3.696171495E0,-1.015753269E0,1.112662554E-1,9.741181374E0
3.698408738E0,-1.035493970E0,8.315058798E-2,9.726823807E0
3.700643235E0,-1.021137118E0,7.836493850E-2,9.717850685E0
3.702870225E0,-1.006780148E0,7.298108935E-2,9.708279610E0
3.705119981E0,-1.011565804E0,7.298108935E-2,9.732208252E0
3.707355699E0,-1.030708313E0,8.793623000E-2,9.731609344E0
3.709595384E0,-1.010967612E0,1.064806059E-1,9.717850685E0
3.711829088E0,-1.025324464E0,9.272187948E-2,9.717252731E0
3.714065904E0,-1.015753269E0,1.022931710E-1,9.722038269E0
3.716303392E0,-1.025922656E0,8.315058798E-2,9.741181374E0
3.718541063E0,-1.021137118E0,6.400800496E-2,9.722038269E0
3.720776964E0,-1.045065284E0,7.357929647E-2,9.722038269E0
3.723014451E0,-1.040279627E0,9.750752151E-2,9.726823807E0
3.725249925E0,-1.021137118E0,8.315058798E-2,9.736394882E0
3.727486803E0,-1.006780148E0,8.255238086E-2,9.722636223E0
3.729723436E0,-1.021137118E0,8.315058798E-2,9.712467194E0
3.731960741E0,-1.006780148E0,7.776673883E-2,9.741181374E0
3.734197862E0,-1.016351461E0,8.315058798E-2,9.717850685E0
3.736435411E0,-1.040279627E0,8.315058798E-2,9.712467194E0
3.738671434E0,-1.021137118E0,7.357929647E-2,9.731609344E0
3.740908922E0,-1.016351461E0,8.255238086E-2,9.736394882E0
3.743144273E0,-1.016351461E0,8.793623000E-2,9.722636223E0
3.745381395E0,-1.011565804E0,8.793623000E-2,9.717850685E0
3.747618150E0,-1.025922656E0,8.315058798E-2,9.712467194E0
3.749855089E0,-1.035493970E0,8.793623000E-2,9.731609344E0
3.752092393E0,-1.021137118E0,1.022931710E-1,9.741181374E0
3.754329881E0,-1.025922656E0,9.272187948E-2,9.731609344E0
3.756565965E0,-1.035493970E0,7.836493850E-2,9.707681656E0
3.758803209E0,-1.011565804E0,9.212367237E-2,9.722636223E0
3.761038805E0,-1.021137118E0,7.836493850E-2,9.712467194E0
3.763273790E0,-1.011565804E0,7.298108935E-2,9.736394882E0
3.765501207E0,-1.011565804E0,6.819544733E-2,9.722636223E0
3.767734605E0,-1.030708313E0,7.357929647E-2,9.726823807E0
3.769974717E0,-1.011565804E0,9.212367237E-2,9.750752449E0
3.772226487E0,-1.025922656E0,8.793623000E-2,9.726823807E0
3.774463243E0,-1.021137118E0,7.836493850E-2,9.726823807E0
3.776700853E0,-1.011565804E0,6.400800496E-2,9.708279610E0
3.778933580E0,-1.011565804E0,8.255238086E-2,9.722636223E0
3.781170457E0,-1.020538807E0,9.272187948E-2,9.722038269E0
3.783407030E0,-1.021137118E0,8.315058798E-2,9.708279610E0
3.785644029E0,-1.006780148E0,8.733802289E-2,9.741779327E0
3.787881151E0,-1.011565804E0,6.819544733E-2,9.722636223E0
3.790118761E0,-1.021735311E0,5.922235921E-2,9.750752449E0
3.792355028E0,-1.001994491E0,7.776673883E-2,9.741779327E0
3.794592332E0,-1.040279627E0,7.836493850E-2,9.750752449E0
3.796827928E0,-1.035493970E0,8.315058798E-2,9.731609344E0
3.799064989E0,-1.016351461E0,7.357929647E-2,9.722636223E0
3.801301805E0,-1.016351461E0,7.836493850E-2,9.698708534E0
3.803538682E0,-1.011565804E0,7.776673883E-2,9.732208252E0
3.805775926E0,-1.016351461E0,8.733802289E-2,9.745966911E0
3.808014330E0,-1.021137118E0,7.836493850E-2,9.722636223E0
3.810254014E0,-1.011565804E0,7.298108935E-2,9.727422714E0
3.812486986E0,-9.966106415E-1,8.733802289E-2,9.713065147E0
3.814722215E0,-1.016351461E0,9.212367237E-2,9.750752449E0
3.816955370E0,-1.011565804E0,8.733802289E-2,9.727422714E0
3.819184068E0,-1.006780148E0,8.733802289E-2,9.736993790E0
3.821433214E0,-1.021137118E0,7.836493850E-2,9.717850685E0
3.823670213E0,-1.021735311E0,5.383851007E-2,9.755537987E0
3.825910753E0,-1.025922656E0,8.793623000E-2,9.712467194E0
3.828143846E0,-1.016351461E0,8.255238086E-2,9.741181374E0
3.830381334E0,-1.016351461E0,8.733802289E-2,9.731609344E0
3.832618273E0,-1.035493970E0,7.836493850E-2,9.736394882E0
3.834860094E0,-1.011565804E0,8.255238086E-2,9.717850685E0
3.837087449E0,-1.001994491E0,6.340979785E-2,9.732208252E0
3.839315965E0,-1.016351461E0,7.357929647E-2,9.731609344E0
3.841562913E0,-1.025922656E0,7.357929647E-2,9.736394882E0
3.843802110E0,-1.011565804E0,8.733802289E-2,9.741181374E0
3.846041307E0,-1.011565804E0,7.298108935E-2,9.732208252E0
3.848275926E0,-1.040279627E0,9.750752151E-2,9.741181374E0
3.850511339E0,-1.011565804E0,9.690931439E-2,9.769894600E0
3.852748521E0,-1.011565804E0,9.690931439E-2,9.736394882E0
3.854984850E0,-1.006780148E0,9.212367237E-2,9.722636223E0
3.857219041E0,-1.021137118E0,8.315058798E-2,9.717252731E0
3.859447313E0,-1.016351461E0,9.212367237E-2,9.736394882E0
3.861696886E0,-1.020538807E0,9.750752151E-2,9.722038269E0
3.863932969E0,-1.021137118E0,8.315058798E-2,9.731609344E0
3.866173448E0,-9.972088337E-1,6.819544733E-2,9.736993790E0
3.868405992E0,-1.016351461E0,8.315058798E-2,9.717252731E0
3.870642808E0,-1.006780148E0,8.255238086E-2,9.741181374E0
3.872879320E0,-1.016351461E0,8.793623000E-2,9.726823807E0
3.875116136E0,-1.001994491E0,7.298108935E-2,9.722636223E0
3.877353441E0,-1.021137118E0,7.357929647E-2,9.707681656E0
3.879591600E0,-1.030708313E0,8.793623000E-2,9.750752449E0
3.881827256E0,-1.016351461E0,7.357929647E-2,9.717252731E0
3.884064805E0,-1.025922656E0,8.315058798E-2,9.726823807E0
3.886300279E0,-1.025922656E0,8.315058798E-2,9.741181374E0
3.888537645E0,-1.021137118E0,7.836493850E-2,9.726823807E0
3.890773973E0,-1.030708313E0,7.357929647E-2,9.717252731E0
3.893011034E0,-1.030708313E0,7.357929647E-2,9.722038269E0
3.895248094E0,-1.016351461E0,6.879365444E-2,9.722038269E0
3.897485826E0,-1.030708313E0,8.315058798E-2,9.755537987E0
3.899721483E0,-1.025922656E0,8.315058798E-2,9.722038269E0
3.901959276E0,-1.015753269E0,1.022931710E-1,9.722038269E0
3.904194750E0,-1.006780148E0,8.255238086E-2,9.736993790E0
3.906431749E0,-1.035493970E0,5.443671346E-2,9.722038269E0
3.908668504E0,-1.001994491E0,7.776673883E-2,9.722636223E0
3.910905565E0,-1.016351461E0,8.255238086E-2,9.736394882E0
3.913142686E0,-1.030708313E0,9.272187948E-2,9.722038269E0
3.915380174E0,-1.021137118E0,7.836493850E-2,9.712467194E0
3.917616258E0,-9.972088337E-1,7.776673883E-2,9.732208252E0
3.919853807E0,-1.016351461E0,7.357929647E-2,9.717850685E0
3.922089403E0,-1.001994491E0,8.733802289E-2,9.727422714E0
3.924326463E0,-1.016351461E0,9.272187948E-2,9.722038269E0
3.926562975E0,-1.025324464E0,9.272187948E-2,9.712467194E0
3.928799913E0,-1.006780148E0,8.255238086E-2,9.717850685E0
3.931037462E0,-1.021137118E0,7.836493850E-2,9.726823807E0
3.933274950E0,-1.025922656E0,9.272187948E-2,9.731609344E0
3.935510850E0,-1.030708313E0,8.793623000E-2,9.717252731E0
3.937748277E0,-1.006181955E0,9.690931439E-2,9.727422714E0
3.939983873E0,-1.015753269E0,9.750752151E-2,9.726823807E0
3.942220018E0,-1.016351461E0,7.298108935E-2,9.741181374E0
3.944453600E0,-1.021137118E0,8.793623000E-2,9.717252731E0
3.946694383E0,-1.006780148E0,7.776673883E-2,9.732208252E0
3.948931627E0,-1.016351461E0,6.879365444E-2,9.717252731E0
3.951169969E0,-1.016351461E0,7.776673883E-2,9.731609344E0
3.953405320E0,-1.021137118E0,9.750752151E-2,9.726823807E0
3.955642625E0,-1.030708313E0,8.793623000E-2,9.736394882E0
3.957878526E0,-1.015753269E0,8.793623000E-2,9.693922997E0
3.960115465E0,-1.016351461E0,8.793623000E-2,9.722038269E0
3.962351854E0,-1.021137118E0,7.836493850E-2,9.741181374E0
3.964585801E0,-1.006181955E0,9.690931439E-2,9.717850685E0
3.966813707E0,-1.025922656E0,8.315058798E-2,9.717252731E0
3.969063585E0,-1.025922656E0,7.836493850E-2,9.726823807E0
3.971299852E0,-1.006780148E0,7.298108935E-2,9.732208252E0
3.973540270E0,-1.016351461E0,8.255238086E-2,9.731609344E0
3.975772997E0,-1.006780148E0,8.733802289E-2,9.741181374E0
3.978006578E0,-1.021137118E0,7.357929647E-2,9.707681656E0
3.980233690E0,-1.021137118E0,7.836493850E-2,9.712467194E0
3.982483446E0,-1.006780148E0,9.212367237E-2,9.731609344E0
3.984720750E0,-1.021137118E0,8.793623000E-2,9.741181374E0
3.986958238E0,-1.016351461E0,8.315058798E-2,9.732208252E0
3.989182176E0,-1.015753269E0,9.750752151E-2,9.727422714E0
3.991432604E0,-1.006181955E0,9.212367237E-2,9.717850685E0
3.993671190E0,-1.021137118E0,8.793623000E-2,9.726823807E0
3.995907396E0,-1.011565804E0,7.776673883E-2,9.746564865E0
3.998138170E0,-1.015753269E0,8.793623000E-2,9.713065147E0
4.000365037E0,-1.025922656E0,9.272187948E-2,9.736394882E0
4.002615098E0,-9.972088337E-1,6.819544733E-2,9.722636223E0
4.004852769E0,-1.021137118E0,7.836493850E-2,9.741181374E0
4.007088731E0,-9.972088337E-1,8.733802289E-2,9.713065147E0
4.009314439E0,-1.016351461E0,9.690931439E-2,9.750752449E0
4.011561510E0,-1.021137118E0,7.836493850E-2,9.717252731E0
4.013798875E0,-1.006780148E0,7.776673883E-2,9.727422714E0
4.016038317E0,-1.025922656E0,8.793623000E-2,9.731609344E0
4.018272264E0,-1.025922656E0,6.879365444E-2,9.722038269E0
4.020509324E0,-1.010967612E0,1.016949639E-1,9.736394882E0
4.022747179E0,-1.016351461E0,9.690931439E-2,9.741181374E0
4.024983506E0,-1.030708313E0,8.315058798E-2,9.741181374E0
4.027220750E0,-1.020538807E0,9.750752151E-2,9.722038269E0
4.029453172E0,-1.025922656E0,7.836493850E-2,9.722038269E0
4.031678575E0,-1.016351461E0,8.315058798E-2,9.731609344E0
4.033917711E0,-1.006780148E0,8.255238086E-2,9.732208252E0
4.036166856E0,-1.006181955E0,9.690931439E-2,9.727422714E0
4.038402513E0,-1.025922656E0,8.315058798E-2,9.726823807E0
4.040626634E0,-1.011565804E0,9.212367237E-2,9.722636223E0
4.042877733E0,-1.001994491E0,8.255238086E-2,9.741779327E0
4.045115037E0,-1.011565804E0,8.255238086E-2,9.727422714E0
4.047355333E0,-1.021137118E0,8.315058798E-2,9.731609344E0
4.049587694E0,-1.030708313E0,8.315058798E-2,9.726823807E0
4.051824510E0,-1.011565804E0,7.836493850E-2,9.717850685E0
4.054061265E0,-1.021137118E0,9.272187948E-2,9.736394882E0
4.056298387E0,-1.025922656E0,8.793623000E-2,9.745966911E0
4.058535875E0,-1.030708313E0,9.750752151E-2,9.745966911E0
4.060772020E0,-1.021137118E0,6.879365444E-2,9.741181374E0
4.063009630E0,-1.021137118E0,6.879365444E-2,9.731609344E0
4.065245470E0,-1.011565804E0,9.212367237E-2,9.727422714E0
4.067482408E0,-1.011565804E0,7.298108935E-2,9.732208252E0
4.069718553E0,-1.006780148E0,8.255238086E-2,9.708279610E0
4.071955797E0,-1.021137118E0,8.315058798E-2,9.726823807E0
4.074192918E0,-1.021137118E0,7.357929647E-2,9.745966911E0
4.076430772E0,-1.030708313E0,8.793623000E-2,9.717252731E0
4.078666551E0,-1.025922656E0,8.793623000E-2,9.722038269E0
4.080904100E0,-1.016351461E0,9.212367237E-2,9.736394882E0
4.083139635E0,-1.006780148E0,8.733802289E-2,9.722636223E0
4.085373826E0,-1.016351461E0,7.357929647E-2,9.712467194E0
4.087598619E0,-1.006780148E0,7.776673883E-2,9.713065147E0
4.089838426E0,-1.035493970E0,7.836493850E-2,9.722038269E0
4.092087449E0,-1.011565804E0,8.255238086E-2,9.731609344E0
4.094327989E0,-1.016351461E0,1.016949639E-1,9.741181374E0
4.096560105E0,-1.021137118E0,9.272187948E-2,9.745966911E0
4.098778794E0,-1.016351461E0,8.793623000E-2,9.726823807E0
4.101022325E0,-1.016351461E0,9.690931439E-2,9.731609344E0
4.103271471E0,-1.021137118E0,9.272187948E-2,9.736394882E0
4.105512010E0,-1.025922656E0,8.315058798E-2,9.726823807E0
4.107747606E0,-1.006780148E0,8.255238086E-2,9.713065147E0
4.109981676E0,-1.025922656E0,7.357929647E-2,9.745966911E0
4.112219530E0,-1.016351461E0,8.315058798E-2,9.717850685E0
4.114455674E0,-1.025922656E0,7.836493850E-2,9.722038269E0
4.116693223E0,-1.021137118E0,7.836493850E-2,9.741181374E0
4.118928697E0,-1.011565804E0,8.733802289E-2,9.722636223E0
4.121165636E0,-1.010967612E0,8.793623000E-2,9.708279610E0
4.123402574E0,-1.016351461E0,9.272187948E-2,9.726823807E0
4.125639207E0,-1.025324464E0,9.750752151E-2,9.707681656E0
4.127876512E0,-1.015753269E0,9.750752151E-2,9.726823807E0
4.130113695E0,-1.025922656E0,8.315058798E-2,9.731609344E0
4.132347033E0,-1.016351461E0,8.793623000E-2,9.731609344E0
4.134572984E0,-1.016351461E0,7.836493850E-2,9.703494072E0
4.136811327E0,-1.001396298E0,9.690931439E-2,9.717850685E0
4.139060106E0,-1.015753269E0,1.016949639E-1,9.736394882E0
4.141299547E0,-1.025922656E0,7.357929647E-2,9.731609344E0
4.143536730E0,-1.006181955E0,9.212367237E-2,9.717850685E0
4.145771104E0,-1.016351461E0,7.298108935E-2,9.750752449E0
4.148008592E0,-1.006780148E0,7.298108935E-2,9.745966911E0
4.150244493E0,-1.011565804E0,9.212367237E-2,9.731609344E0
4.152482164E0,-1.016351461E0,7.776673883E-2,9.731609344E0
4.154717516E0,-1.035493970E0,7.357929647E-2,9.731609344E0
4.156951646E0,-9.972088337E-1,7.776673883E-2,9.736993790E0
4.159179186E0,-1.006780148E0,7.298108935E-2,9.731609344E0
4.161428270E0,-1.030708313E0,8.793623000E-2,9.717252731E0
4.163663743E0,-1.011565804E0,7.836493850E-2,9.708279610E0
4.165896593E0,-1.006780148E0,8.733802289E-2,9.727422714E0
4.168127244E0,-1.015753269E0,9.750752151E-2,9.722636223E0
4.170376512E0,-1.016351461E0,6.400800496E-2,9.732208252E0
4.172613695E0,-1.030708313E0,7.357929647E-2,9.736394882E0
4.174852159E0,-1.020538807E0,9.272187948E-2,9.722038269E0
4.177082994E0,-1.016351461E0,7.836493850E-2,9.722636223E0
4.179310838E0,-1.001994491E0,8.255238086E-2,9.717850685E0
4.181559923E0,-1.020538807E0,9.750752151E-2,9.722038269E0
4.183797594E0,-1.011565804E0,8.255238086E-2,9.741181374E0
4.186036485E0,-1.006780148E0,7.298108935E-2,9.727422714E0
4.188268113E0,-1.025324464E0,8.793623000E-2,9.702896118E0
4.190494859E0,-1.030708313E0,8.315058798E-2,9.717252731E0
4.192743700E0,-1.011565804E0,6.819544733E-2,9.736394882E0
4.194980272E0,-1.016351461E0,7.836493850E-2,9.722038269E0
4.197217271E0,-1.030110121E0,9.750752151E-2,9.707681656E0
4.199442430E0,-1.025922656E0,8.315058798E-2,9.731609344E0
4.201692003E0,-1.030708313E0,7.836493850E-2,9.722038269E0
4.203928209E0,-1.011565804E0,7.836493850E-2,9.713065147E0
4.206168321E0,-1.025922656E0,8.793623000E-2,9.736394882E0
4.208401109E0,-1.011565804E0,6.819544733E-2,9.727422714E0
4.210637865E0,-1.006780148E0,6.340979785E-2,9.727422714E0
4.212874559E0,-1.011565804E0,7.776673883E-2,9.726823807E0
4.215111619E0,-1.016351461E0,8.315058798E-2,9.708279610E0
4.217348985E0,-1.035493970E0,8.793623000E-2,9.712467194E0
4.219586473E0,-1.021137118E0,8.793623000E-2,9.722038269E0
4.221822313E0,-1.011565804E0,8.733802289E-2,9.741181374E0
4.224059862E0,-1.025922656E0,9.272187948E-2,9.722038269E0
4.226295641E0,-1.016351461E0,8.793623000E-2,9.726823807E0
4.228532579E0,-1.010967612E0,1.016949639E-1,9.736394882E0
4.230766709E0,-1.001994491E0,8.255238086E-2,9.727422714E0
4.232995531E0,-1.016351461E0,9.272187948E-2,9.722038269E0
4.235242967E0,-1.011565804E0,8.733802289E-2,9.727422714E0
4.237480760E0,-1.016351461E0,7.357929647E-2,9.727422714E0
4.239719774E0,-1.006780148E0,9.212367237E-2,9.732208252E0
4.241954759E0,-1.015753269E0,9.272187948E-2,9.722636223E0
4.244190233E0,-1.015753269E0,9.272187948E-2,9.717850685E0
4.246427049E0,-9.876375198E-1,7.298108935E-2,9.741779327E0
4.248663805E0,-9.972088337E-1,8.733802289E-2,9.727422714E0
4.250900621E0,-1.025922656E0,8.793623000E-2,9.736394882E0
4.253137742E0,-1.021137118E0,9.690931439E-2,9.750752449E0
4.255375230E0,-1.030708313E0,9.272187948E-2,9.726823807E0
4.257611436E0,-1.021137118E0,9.750752151E-2,9.736394882E0
4.259849168E0,-1.025922656E0,8.315058798E-2,9.736394882E0
4.262084520E0,-1.030708313E0,7.357929647E-2,9.717252731E0
4.264321580E0,-1.011565804E0,7.776673883E-2,9.732208252E0
4.266558031E0,-1.030708313E0,7.357929647E-2,9.731609344E0
4.268794969E0,-1.006780148E0,7.298108935E-2,9.736993790E0
4.271032274E0,-1.025922656E0,7.836493850E-2,9.726823807E0
4.273269762E0,-1.006780148E0,8.255238086E-2,9.713065147E0
4.275505723E0,-1.021137118E0,7.776673883E-2,9.755537987E0
4.277743455E0,-1.016351461E0,8.793623000E-2,9.726823807E0
4.279979051E0,-9.972088337E-1,7.298108935E-2,9.717850685E0
4.282216173E0,-1.011565804E0,8.793623000E-2,9.713065147E0
4.284452684E0,-1.021137118E0,1.022931710E-1,9.736394882E0
4.286689744E0,-1.011565804E0,7.298108935E-2,9.722636223E0
4.288926866E0,-1.011565804E0,6.340979785E-2,9.741181374E0
4.291164598E0,-1.025922656E0,8.793623000E-2,9.736394882E0
4.293400377E0,-1.020538807E0,9.272187948E-2,9.707681656E0
4.295637743E0,-1.021137118E0,8.793623000E-2,9.731609344E0
4.297870469E0,-1.016351461E0,8.733802289E-2,9.731609344E0
4.300098375E0,-1.011565804E0,9.212367237E-2,9.736394882E0
4.302346971E0,-1.020538807E0,1.022931710E-1,9.722038269E0
4.304584032E0,-9.972088337E-1,8.733802289E-2,9.736993790E0
4.306824388E0,-1.025922656E0,8.793623000E-2,9.722038269E0
4.309058946E0,-1.021137118E0,8.793623000E-2,9.736394882E0
4.311296373E0,-1.021137118E0,7.357929647E-2,9.745966911E0
4.313537889E0,-1.001994491E0,8.733802289E-2,9.746564865E0
4.315768114E0,-9.972088337E-1,7.298108935E-2,9.736993790E0
4.318003282E0,-1.021137118E0,8.315058798E-2,9.726823807E0
4.320232774E0,-1.021137118E0,7.836493850E-2,9.712467194E0
4.322478563E0,-1.015753269E0,1.022931710E-1,9.712467194E0
4.324715867E0,-1.016351461E0,8.793623000E-2,9.717850685E0
4.326952378E0,-1.021137118E0,7.836493850E-2,9.726823807E0
4.329177781E0,-1.016351461E0,8.315058798E-2,9.722038269E0
4.331423753E0,-1.030708313E0,7.836493850E-2,9.736394882E0
4.333650377E0,-1.025922656E0,9.750752151E-2,9.745966911E0
4.335902330E0,-1.025922656E0,9.272187948E-2,9.722038269E0
4.338133043E0,-1.021137118E0,7.836493850E-2,9.736394882E0
4.340361070E0,-1.011565804E0,8.793623000E-2,9.717850685E0
4.342598008E0,-1.011565804E0,8.733802289E-2,9.726823807E0
4.344845018E0,-1.025922656E0,7.836493850E-2,9.717252731E0
4.347073473E0,-1.006780148E0,7.298108935E-2,9.727422714E0
4.349315111E0,-1.021137118E0,7.357929647E-2,9.731609344E0
4.351542161E0,-1.016351461E0,7.357929647E-2,9.722038269E0
4.353783312E0,-1.011565804E0,9.212367237E-2,9.745966911E0
4.356022630E0,-1.021137118E0,7.357929647E-2,9.736394882E0
4.358255846E0,-1.040279627E0,8.793623000E-2,9.726823807E0
4.360494676E0,-1.016351461E0,7.357929647E-2,9.722636223E0
4.362736802E0,-1.016351461E0,9.212367237E-2,9.736394882E0
4.364966600E0,-1.030708313E0,7.357929647E-2,9.745966911E0
4.367204210E0,-1.011565804E0,8.733802289E-2,9.722636223E0
4.369437853E0,-1.011565804E0,7.357929647E-2,9.722636223E0
4.371676805E0,-1.011565804E0,8.255238086E-2,9.722636223E0
4.373913377E0,-1.010967612E0,9.272187948E-2,9.717850685E0
4.376150499E0,-1.006181955E0,9.212367237E-2,9.722636223E0
4.378387803E0,-1.011565804E0,7.298108935E-2,9.732208252E0
4.380625291E0,-1.025922656E0,8.793623000E-2,9.736394882E0
4.382861131E0,-1.006181955E0,9.690931439E-2,9.722636223E0
4.385098741E0,-1.035493970E0,7.357929647E-2,9.731609344E0
4.387334764E0,-1.040279627E0,7.836493850E-2,9.736394882E0
4.389571641E0,-1.021137118E0,6.879365444E-2,9.726823807E0
4.391808092E0,-1.025922656E0,8.793623000E-2,9.736394882E0
4.394044664E0,-1.006780148E0,7.298108935E-2,9.741779327E0
4.396282213E0,-1.030110121E0,9.272187948E-2,9.707681656E0
4.398519822E0,-1.011565804E0,9.212367237E-2,9.736394882E0
4.400758409E0,-1.011565804E0,9.690931439E-2,9.731609344E0
4.402999193E0,-9.972088337E-1,7.776673883E-2,9.741779327E0
4.405229479E0,-1.030110121E0,9.750752151E-2,9.717252731E0
4.407465196E0,-1.016351461E0,6.400800496E-2,9.708279610E0
4.409700792E0,-1.016351461E0,8.793623000E-2,9.726823807E0
4.411940477E0,-1.011565804E0,9.212367237E-2,9.745966911E0
4.414176317E0,-1.021137118E0,8.793623000E-2,9.736394882E0
4.416413927E0,-1.030708313E0,8.315058798E-2,9.745966911E0
4.418649583E0,-1.021137118E0,8.315058798E-2,9.741181374E0
4.420890489E0,-1.025922656E0,8.793623000E-2,9.745966911E0
4.423137986E0,-1.021137118E0,7.836493850E-2,9.712467194E0
4.425374803E0,-1.016351461E0,8.793623000E-2,9.731609344E0
4.427611376E0,-1.001994491E0,8.733802289E-2,9.760323524E0
4.429842454E0,-1.006780148E0,9.212367237E-2,9.732208252E0
4.432070604E0,-1.020538807E0,7.836493850E-2,9.693922997E0
4.434320116E0,-1.021137118E0,8.793623000E-2,9.722636223E0
4.436556199E0,-9.966106415E-1,1.016949639E-1,9.736993790E0
4.438796678E0,-1.021137118E0,9.750752151E-2,9.745966911E0
4.441029100E0,-1.015753269E0,1.070788130E-1,9.722636223E0
4.443266405E0,-1.025324464E0,9.750752151E-2,9.722038269E0
4.445502916E0,-1.006780148E0,8.255238086E-2,9.732208252E0
4.447739793E0,-1.021137118E0,7.836493850E-2,9.717850685E0
4.449976854E0,-1.015753269E0,9.272187948E-2,9.717252731E0
4.452214647E0,-1.011565804E0,8.255238086E-2,9.722636223E0
4.454450792E0,-1.025922656E0,9.272187948E-2,9.726823807E0
4.456688341E0,-1.040279627E0,9.750752151E-2,9.726823807E0
4.458923875E0,-1.006780148E0,8.255238086E-2,9.741181374E0
4.461160936E0,-1.025324464E0,9.750752151E-2,9.712467194E0
4.463397508E0,-1.035493970E0,8.793623000E-2,9.736394882E0
4.465634569E0,-1.025922656E0,7.357929647E-2,9.722038269E0
4.467871568E0,-1.045065284E0,8.315058798E-2,9.745966911E0
4.470108934E0,-1.021137118E0,7.357929647E-2,9.736394882E0
4.472345262E0,-1.001994491E0,9.212367237E-2,9.727422714E0
4.474582750E0,-1.006780148E0,9.212367237E-2,9.727422714E0
4.476818163E0,-1.001396298E0,1.064806059E-1,9.732208252E0
4.479055223E0,-1.020538807E0,1.166501045E-1,9.731609344E0
4.481291979E0,-1.030708313E0,8.793623000E-2,9.731609344E0
4.483528856E0,-1.016351461E0,7.836493850E-2,9.726823807E0
4.485765977E0,-1.035493970E0,7.836493850E-2,9.712467194E0
4.488003587E0,-1.016351461E0,8.315058798E-2,9.731609344E0
4.490239366E0,-1.001994491E0,9.690931439E-2,9.746564865E0
4.492477342E0,-1.025922656E0,8.315058798E-2,9.726823807E0
4.494712633E0,-1.011565804E0,8.733802289E-2,9.727422714E0
4.496945970E0,-1.010967612E0,9.272187948E-2,9.717850685E0
4.499170824E0,-1.030708313E0,7.836493850E-2,9.741181374E0
4.501423204E0,-1.021137118E0,7.357929647E-2,9.741181374E0
4.503660692E0,-1.011565804E0,8.733802289E-2,9.731609344E0
4.505901902E0,-1.030708313E0,7.357929647E-2,9.736394882E0
4.508134385E0,-1.011565804E0,8.255238086E-2,9.722038269E0
4.510371568E0,-1.030708313E0,6.879365444E-2,9.741181374E0
4.512607164E0,-1.006780148E0,8.255238086E-2,9.727422714E0
4.514843980E0,-1.011565804E0,9.212367237E-2,9.750752449E0
4.517078050E0,-1.020538807E0,9.750752151E-2,9.717252731E0
4.519306627E0,-1.025922656E0,8.793623000E-2,9.712467194E0
4.521554796E0,-1.016351461E0,6.819544733E-2,9.745966911E0
4.523792528E0,-1.011565804E0,7.836493850E-2,9.717850685E0
4.526031420E0,-1.016351461E0,7.357929647E-2,9.727422714E0
4.528266221E0,-1.021137118E0,7.836493850E-2,9.713065147E0
4.530501756E0,-1.016351461E0,8.793623000E-2,9.722636223E0
4.532738756E0,-1.011565804E0,8.315058798E-2,9.713065147E0
4.534975145E0,-1.020538807E0,1.070788130E-1,9.731609344E0
4.537209459E0,-1.025922656E0,8.793623000E-2,9.736394882E0
4.539437486E0,-1.001396298E0,1.016949639E-1,9.736993790E0
4.541686815E0,-1.021137118E0,8.315058798E-2,9.726823807E0
4.543922960E0,-1.016351461E0,7.836493850E-2,9.722636223E0
4.546163927E0,-1.011565804E0,9.212367237E-2,9.736394882E0
4.548396288E0,-1.021137118E0,9.272187948E-2,9.731609344E0
4.550633165E0,-1.021137118E0,8.255238086E-2,9.755537987E0
4.552869798E0,-1.030110121E0,9.750752151E-2,9.726823807E0
4.555106737E0,-1.021137118E0,7.836493850E-2,9.717850685E0
4.557344102E0,-1.021137118E0,9.272187948E-2,9.736394882E0
4.559581590E0,-1.011565804E0,9.212367237E-2,9.732208252E0
4.561815843E0,-1.016351461E0,8.315058798E-2,9.727422714E0
4.564047350E0,-1.006780148E0,8.255238086E-2,9.732208252E0
4.566289537E0,-1.011565804E0,8.255238086E-2,9.722636223E0
4.568527574E0,-1.025922656E0,8.315058798E-2,9.726823807E0
4.570766038E0,-1.006780148E0,7.776673883E-2,9.736993790E0
4.573001512E0,-1.030708313E0,8.793623000E-2,9.736394882E0
4.575238328E0,-1.011565804E0,7.836493850E-2,9.717850685E0
4.577475938E0,-1.016351461E0,8.255238086E-2,9.750752449E0
4.579712266E0,-1.016351461E0,7.298108935E-2,9.741181374E0
4.581949754E0,-1.015753269E0,9.272187948E-2,9.717252731E0
4.584182176E0,-1.016351461E0,9.212367237E-2,9.741181374E0
4.586407457E0,-1.016351461E0,1.016949639E-1,9.741181374E0
4.588647020E0,-1.016351461E0,8.255238086E-2,9.736394882E0
4.590896043E0,-1.025922656E0,1.022931710E-1,9.736394882E0
4.593135790E0,-1.025324464E0,9.272187948E-2,9.717252731E0
4.595373400E0,-1.006780148E0,8.255238086E-2,9.736993790E0
4.597606737E0,-1.021137118E0,7.357929647E-2,9.741181374E0
4.599844285E0,-1.035493970E0,8.793623000E-2,9.745966911E0
4.602079698E0,-1.016351461E0,8.315058798E-2,9.727422714E0
4.604316881E0,-1.011565804E0,8.793623000E-2,9.722636223E0
4.606553148E0,-1.011565804E0,7.776673883E-2,9.727422714E0
4.608790086E0,-1.011565804E0,8.793623000E-2,9.717850685E0
4.611027330E0,-1.021137118E0,8.793623000E-2,9.736394882E0
4.613264940E0,-1.010967612E0,1.064806059E-1,9.722636223E0
4.615501146E0,-1.006780148E0,8.255238086E-2,9.732208252E0
