"Time (s)","Linear Acceleration x (m/s^2)","Linear Acceleration y (m/s^2)","Linear Acceleration z (m/s^2)"
1.463506330E-1,7.876622677E-2,-1.124203652E-1,-2.311992645E-2
1.642451650E-1,7.336771488E-2,-1.106985807E-1,-2.223682404E-2
1.821396350E-1,7.517933846E-2,-1.141107380E-1,-1.427745819E-2
2.000339830E-1,8.103740215E-2,-1.123290658E-1,-3.622913361E-2
2.179338240E-1,7.935750484E-2,-1.067037731E-1,-9.259223938E-3
2.358230450E-1,7.446753979E-2,-1.084359884E-1,-1.647281647E-2
2.537175160E-1,6.785190105E-2,-1.123169959E-1,-1.785278320E-2
2.716123520E-1,8.349609375E-2,-1.090077162E-1,-1.761817932E-2
2.895065780E-1,7.646739483E-2,-1.053064018E-1,-2.481174469E-2
3.073967750E-1,8.300852776E-2,-1.089126319E-1,-1.847839355E-2
3.252959460E-1,8.037352562E-2,-1.061171144E-1,-8.774757385E-3
3.431902330E-1,7.854008675E-2,-1.119697243E-1,-2.336215973E-2
3.610847640E-1,7.855093479E-2,-1.084927395E-1,-1.281070709E-2
3.789795400E-1,7.119977474E-2,-9.795457125E-2,-2.250099182E-2
3.968737660E-1,7.700550556E-2,-1.016221866E-1,-3.023242950E-2
4.147682970E-1,7.818973064E-2,-1.082372516E-1,-1.810646057E-2
4.326628280E-1,6.985926628E-2,-1.128665283E-1,-1.415824890E-2
4.505572980E-1,7.760965824E-2,-1.063851416E-1,-1.081275940E-2
4.684518300E-1,7.872128487E-2,-1.098149046E-1,-1.401901245E-2
4.863462390E-1,7.580649853E-2,-1.128051803E-1,-1.828098297E-2
5.042384500E-1,7.678294182E-2,-1.154681817E-1,-2.470779419E-2
5.221354230E-1,6.863403320E-2,-1.085984558E-1,-1.601886749E-2
5.400298320E-1,7.471382618E-2,-1.165081188E-1,-2.479934692E-2
5.579243030E-1,7.768559456E-2,-1.143334806E-1,-2.241420746E-2
5.758069320E-1,7.636165619E-2,-1.079817265E-1,-1.480674744E-2
5.937104960E-1,8.223533630E-2,-1.153043956E-1,-1.224327087E-2
6.116078960E-1,7.268297672E-2,-1.110971197E-1,-8.132934570E-3
6.295021840E-1,7.820928097E-2,-1.051993743E-1,-2.358341217E-2
6.474001940E-1,7.045137882E-2,-1.061479524E-1,-2.250003815E-2
6.652915510E-1,8.236491680E-2,-1.086532846E-1,-1.618480682E-2
6.831857770E-1,7.743799686E-2,-1.002721861E-1,-8.809089661E-3
7.010803700E-1,8.155572414E-2,-9.840591997E-2,-9.567260742E-3
7.189749010E-1,7.580733299E-2,-1.081535295E-1,-1.943969727E-2
7.368694320E-1,7.242310047E-2,-1.134362891E-1,-2.481651306E-2
7.547639630E-1,7.528984547E-2,-1.064118743E-1,-7.904052734E-3
7.726569070E-1,7.282078266E-2,-1.106636077E-1,-1.062297821E-2
7.905529650E-1,7.389128208E-2,-1.003012061E-1,-2.033805847E-2
8.084475570E-1,7.639038563E-2,-9.860110283E-2,-5.215644836E-3
8.263420880E-1,8.194077015E-2,-1.086108610E-1,-1.388168335E-2
8.442363750E-1,7.935762405E-2,-1.073572859E-1,-9.792327881E-3
8.621309070E-1,8.362782001E-2,-1.088939533E-1,-2.307224274E-2
8.800254990E-1,7.938086987E-2,-1.053318679E-1,-1.565647125E-2
8.979201520E-1,7.764971256E-2,-1.084781811E-1,-1.487255096E-2
9.158147450E-1,7.606780529E-2,-1.039253697E-1,-2.129268646E-2
9.337090320E-1,7.190763950E-2,-1.127987504E-1,-1.766109467E-2
9.516033190E-1,8.053255081E-2,-1.048747748E-1,-2.907752991E-2
9.694977890E-1,7.433938980E-2,-1.094044819E-1,-9.050369263E-3
9.873926250E-1,7.400834560E-2,-1.079671234E-1,-2.447032928E-2
1.005287096E0,7.656586170E-2,-1.101927310E-1,-1.485252380E-2
1.023185960E0,8.128821850E-2,-1.031783894E-1,-8.689880371E-3
1.041068163E0,8.078920841E-2,-1.033241451E-1,-1.716136932E-2
1.058970506E0,7.620072365E-2,-1.003657132E-1,-2.714252472E-2
1.076865221E0,7.722437382E-2,-1.111734509E-1,-2.297782898E-2
1.094744920E0,7.875037193E-2,-1.061792299E-1,-2.534675598E-2
1.112656968E0,7.364034653E-2,-1.099429429E-1,-2.185535431E-2
1.130548631E0,7.755684853E-2,-1.114440113E-1,-1.340293884E-2
1.148431627E0,7.694089413E-2,-1.132618338E-1,-1.694107056E-2
1.166336473E0,7.424581051E-2,-1.168062389E-1,-1.712894440E-2
1.184231920E0,7.927680016E-2,-1.094204411E-1,-1.431465149E-2
1.202126512E0,7.213497162E-2,-1.119282916E-1,-1.838111877E-2
1.220020982E0,7.890605927E-2,-1.142675802E-1,-3.422832489E-2
1.237900499E0,7.972443104E-2,-1.105551720E-1,-2.672863007E-2
1.255810289E0,7.447361946E-2,-1.101518199E-1,-2.645683289E-2
1.273704393E0,8.306550980E-2,-1.014614105E-1,-1.671981812E-2
1.291599107E0,7.638680935E-2,-1.065069735E-1,-1.902008057E-2
1.309493395E0,7.536375523E-2,-1.022464484E-1,-1.945304871E-2
1.327388109E0,7.741510868E-2,-1.169247404E-1,-2.827548981E-2
1.345282518E0,7.865250111E-2,-1.047580093E-1,-2.399444580E-2
1.363176988E0,7.313549519E-2,-1.068504155E-1,-1.693820953E-2
1.381071336E0,7.233357430E-2,-1.059905440E-1,-2.544879913E-2
1.398966112E0,6.980264187E-2,-1.081556231E-1,-1.325988770E-2
1.416860399E0,7.736599445E-2,-1.041399613E-1,-1.657295227E-2
1.434754808E0,7.839310169E-2,-9.967898577E-2,-2.499580383E-2
1.452649706E0,8.251142502E-2,-1.013375148E-1,-2.340126038E-2
1.470543932E0,6.945979595E-2,-1.066865996E-1,-1.871204376E-2
1.488441515E0,8.188045025E-2,-1.087342054E-1,-2.285671234E-2
1.506332750E0,7.686114311E-2,-1.003720611E-1,-1.525974274E-2
1.524227892E0,7.853734493E-2,-1.068187878E-1,-1.304626465E-2
1.542121813E0,7.472741604E-2,-1.057161912E-1,-1.925086975E-2
1.560016649E0,7.299065590E-2,-9.922089428E-2,-2.449893951E-2
1.577910570E0,7.900774479E-2,-1.103932336E-1,-2.210330963E-2
1.595793810E0,8.038902283E-2,-1.059454083E-1,-2.020645142E-2
1.613699938E0,7.616794109E-2,-1.116526574E-1,-1.850986481E-2
1.631594469E0,7.626378536E-2,-9.503340721E-2,-2.236175537E-2
1.649479722E0,7.491683960E-2,-1.093958467E-1,-1.543331146E-2
1.667383531E0,7.610380650E-2,-1.070364714E-1,-1.524257660E-2
1.685278063E0,7.971966267E-2,-1.026286110E-1,-1.670265198E-2
1.703170091E0,7.752525806E-2,-1.040181518E-1,-2.154159546E-2
1.721066820E0,7.457888126E-2,-1.053577885E-1,-1.802825928E-2
1.738961473E0,7.893025875E-2,-1.135346591E-1,-1.736450195E-2
1.756856004E0,7.774436474E-2,-1.086849719E-1,-1.848602295E-2
1.774750291E0,7.529377937E-2,-1.091006473E-1,-1.742267609E-2
1.792645067E0,8.003604412E-2,-1.078196317E-1,-1.270580292E-2
1.810539842E0,7.148313522E-2,-1.066369712E-1,-1.971435547E-2
1.828434007E0,7.412588596E-2,-1.067410409E-1,-2.070903778E-2
1.846328355E0,7.981574535E-2,-1.007300168E-1,-1.872062683E-2
1.864223131E0,8.119976521E-2,-1.070210934E-1,-1.383781433E-2
1.882117235E0,7.316422462E-2,-1.115322709E-1,-2.009296417E-2
1.900011949E0,7.928860188E-2,-9.691475332E-2,-1.578903198E-2
1.917906480E0,8.175265789E-2,-1.072246879E-1,-2.084541321E-2
1.935801012E0,7.667267323E-2,-1.045195833E-1,-1.252460480E-2
1.953695360E0,7.555699348E-2,-1.071829945E-1,-7.366180420E-3
1.971577806E0,7.677304745E-2,-1.029222757E-1,-2.518463135E-2
1.989484178E0,7.596898079E-2,-1.008642614E-1,-2.064132690E-2
2.007378893E0,7.050645351E-2,-1.081437543E-1,-1.336002350E-2
2.025273485E0,7.484602928E-2,-1.036471426E-1,-2.120780945E-2
2.043170152E0,7.648181915E-2,-9.986791015E-2,-1.883792877E-2
2.061062364E0,7.295107841E-2,-1.103093177E-1,-2.109050751E-2
2.078953478E0,7.229268551E-2,-1.073410586E-1,-2.236652374E-2
2.096854113E0,7.084858418E-2,-1.067632586E-1,-2.396297455E-2
2.114745531E0,7.874488831E-2,-1.057825536E-1,-2.573013306E-2
2.132640428E0,7.808411121E-2,-1.143465713E-1,-2.309513092E-2
2.150534837E0,7.620215416E-2,-1.112348735E-1,-1.293754578E-2
2.168425646E0,7.748818398E-2,-1.070988849E-1,-2.104187012E-2
2.186323900E0,7.313561440E-2,-1.098751575E-1,-2.108383179E-2
2.204218492E0,7.808148861E-2,-1.059948578E-1,-2.127933502E-2
2.222112779E0,7.206892967E-2,-1.091299281E-1,-8.591651917E-3
2.240007372E0,7.406997681E-2,-1.026770622E-1,-2.016830444E-2
2.257901903E0,7.093834877E-2,-1.052688956E-1,-2.142333984E-2
2.275796678E0,7.576274872E-2,-1.035147533E-1,-2.386093140E-2
2.293690721E0,7.933461666E-2,-1.030924693E-1,-1.664924622E-2
2.311585252E0,7.692551613E-2,-1.017419621E-1,-2.087306976E-2
2.329479662E0,7.505679131E-2,-1.099398658E-1,-2.178001404E-2
2.347362047E0,8.281254768E-2,-1.020261869E-1,-2.075290680E-2
2.365268724E0,7.606434822E-2,-1.094384268E-1,-1.816654205E-2
2.383163377E0,7.237231731E-2,-1.105169207E-1,-2.370548248E-2
2.401057604E0,7.693088055E-2,-1.115179732E-1,-2.095603943E-2
2.418952379E0,6.972467899E-2,-1.102993712E-1,-1.722049713E-2
2.436834703E0,7.479345798E-2,-1.011347994E-1,-1.618099213E-2
2.454741014E0,7.146441936E-2,-1.005584151E-1,-1.449680328E-2
2.472635729E0,7.175767422E-2,-1.032725424E-1,-1.910305023E-2
2.490530565E0,7.580757141E-2,-1.090604663E-1,-2.164268494E-2
2.508424791E0,7.517039776E-2,-1.052438766E-1,-2.317714691E-2
2.526319322E0,7.310628891E-2,-1.011306718E-1,-1.369762421E-2
2.544211229E0,6.557166576E-2,-1.019118801E-1,-1.822757721E-2
2.562108263E0,6.778907776E-2,-1.067169830E-1,-1.919841766E-2
2.580002733E0,7.265782356E-2,-1.026587337E-1,-2.234840393E-2
2.597900376E0,7.888257504E-2,-1.062216610E-1,-1.660919189E-2
2.615791673E0,7.726836205E-2,-9.840101004E-2,-1.525115967E-2
2.633683091E0,6.607675552E-2,-1.067726240E-1,-7.613182068E-3
2.651580553E0,7.449769974E-2,-1.069369465E-1,-7.602691650E-3
2.669463426E0,7.537221909E-2,-1.002771556E-1,-2.654457092E-2
2.687372545E0,7.934784889E-2,-1.044420972E-1,-1.959037781E-2
2.705263963E0,7.059550285E-2,-1.016914472E-1,-1.480770111E-2
2.723158617E0,7.348871231E-2,-1.066144705E-1,-1.910495758E-2
2.741052965E0,7.444870472E-2,-1.107996255E-1,-1.741504669E-2
2.758947801E0,7.396638393E-2,-1.023857519E-1,-1.345729828E-2
2.776842393E0,7.004356384E-2,-1.104470044E-1,-1.320266724E-2
2.794736498E0,7.483398914E-2,-1.091368496E-1,-1.143169403E-2
2.812618700E0,6.759238243E-2,-1.072503999E-1,-1.906681061E-2
2.830525560E0,6.963348389E-2,-1.075633839E-1,-1.983547211E-2
2.848420152E0,7.341432571E-2,-1.011922881E-1,-2.001285553E-2
2.866314684E0,7.363986969E-2,-1.031714827E-1,-2.092552185E-2
2.884209276E0,7.114171982E-2,-1.058674306E-1,-1.818180084E-2
2.902091295E0,7.258141041E-2,-1.014954224E-1,-1.545524597E-2
2.919998094E0,7.195854187E-2,-1.038703546E-1,-1.949405670E-2
2.937892320E0,6.692564487E-2,-1.015634537E-1,-5.453109741E-3
2.955787157E0,7.007277012E-2,-1.020511240E-1,-2.289295197E-2
2.973681383E0,7.740688324E-2,-1.047704965E-1,-2.254009247E-2
2.991576219E0,6.966638565E-2,-1.012896448E-1,-2.550220490E-2
3.009467943E0,6.939375401E-2,-1.044113785E-1,-2.312850952E-2
3.027365038E0,6.844198704E-2,-1.056220978E-1,-1.659584045E-2
3.045259508E0,6.652200222E-2,-1.107236743E-1,-1.714229584E-2
3.063154161E0,6.897211075E-2,-1.061201990E-1,-2.065563202E-2
3.081048570E0,6.790196896E-2,-1.057674885E-1,-2.484416962E-2
3.098945726E0,7.094717026E-2,-1.034040973E-1,-2.073001862E-2
3.116837694E0,6.336522102E-2,-1.077911332E-1,-8.980751038E-3
3.134728807E0,6.814312935E-2,-1.106325835E-1,-1.736164093E-2
3.152626451E0,7.111954689E-2,-1.069834307E-1,-1.053714752E-2
3.170509081E0,6.953811646E-2,-1.053906679E-1,-2.028274536E-2
3.188415514E0,7.479250431E-2,-1.074729338E-1,-2.174854279E-2
3.206310045E0,7.365131378E-2,-9.737673402E-2,-1.956272125E-2
3.224204637E0,7.468736172E-2,-1.039767489E-1,-2.308940887E-2
3.242101610E0,6.696283817E-2,-1.021894440E-1,-1.725006104E-2
3.259993395E0,7.070767879E-2,-1.107394174E-1,-1.016044617E-2
3.277887743E0,6.915879250E-2,-1.034149975E-1,-1.874065399E-2
3.295782457E0,7.408881187E-2,-1.001522690E-1,-2.116298676E-2
3.313677538E0,6.847083569E-2,-9.634295851E-2,-2.431106567E-2
3.331571153E0,6.992030144E-2,-9.479802102E-2,-2.584266663E-2
3.349465807E0,6.969380379E-2,-1.011210978E-1,-1.410198212E-2
3.367348863E0,7.402384281E-2,-1.085309386E-1,-2.095127106E-2
3.385254686E0,7.370817661E-2,-9.812765568E-2,-1.913642883E-2
3.403149400E0,6.173110008E-2,-1.005161777E-1,-1.476764679E-2
3.421043810E0,6.297445297E-2,-1.004971787E-1,-1.952171326E-2
3.438938463E0,7.189893723E-2,-1.009445786E-1,-2.219581604E-2
3.456832811E0,6.501114368E-2,-1.005396023E-1,-2.135753632E-2
3.474726976E0,6.949555874E-2,-9.801123291E-2,-8.140563965E-3
3.492621813E0,7.038545609E-2,-1.042066365E-1,-2.253246307E-2
3.510519335E0,6.289970875E-2,-1.005104855E-1,-2.678012848E-2
3.528410936E0,6.592285633E-2,-1.001128480E-1,-2.686786652E-2
3.546305101E0,6.832599640E-2,-1.029554233E-1,-1.207447052E-2
3.564199021E0,7.032585144E-2,-1.035361663E-1,-1.710224152E-2
3.582094225E0,6.709516048E-2,-9.559722990E-2,-1.961231232E-2
3.599988756E0,6.294071674E-2,-9.656099975E-2,-2.081394196E-2
3.617883104E0,6.856501102E-2,-1.025265679E-1,-2.340698242E-2
3.635762864E0,6.833326817E-2,-9.882940352E-2,-3.269672394E-2
3.653670885E0,7.098436356E-2,-1.058012694E-1,-1.589202881E-2
3.671566637E0,7.515370846E-2,-1.015855372E-1,-1.449775696E-2
3.689460619E0,6.559360027E-2,-9.321009368E-2,-1.993942261E-2
3.707355699E0,6.671631336E-2,-9.926377237E-2,-2.217197418E-2
3.725249925E0,5.911910534E-2,-9.758327901E-2,-1.956081390E-2
3.743144273E0,6.776201725E-2,-9.931238741E-2,-2.169704437E-2
3.761038805E0,6.508064270E-2,-9.609279782E-2,-2.789688110E-2
3.778933580E0,7.111263275E-2,-1.032197475E-1,-2.473735809E-2
3.796827928E0,6.267154217E-2,-1.036129594E-1,-1.099205017E-2
3.814722215E0,7.447981834E-2,-9.777089208E-2,-1.641559601E-2
3.832618273E0,6.408095360E-2,-1.003969461E-1,-1.462650299E-2
3.850511339E0,6.741368771E-2,-9.454634041E-2,-2.587318420E-3
3.868405992E0,7.282018661E-2,-9.773153067E-2,-2.016162872E-2
3.886300279E0,6.481075287E-2,-9.976964444E-2,-1.736927032E-2
3.904194750E0,6.822943687E-2,-9.615653753E-2,-1.784610748E-2
3.922089403E0,7.519149780E-2,-9.982921928E-2,-2.360630035E-2
3.939983873E0,6.939661503E-2,-8.867137134E-2,-2.345371246E-2
3.957878526E0,6.683468819E-2,-9.423059970E-2,-2.875137329E-2
3.975772997E0,7.250738144E-2,-9.713321179E-2,-1.686668396E-2
3.993671190E0,7.056403160E-2,-9.145822376E-2,-2.199554443E-2
4.011561510E0,7.170546055E-2,-9.545759857E-2,-1.959228516E-2
4.029453172E0,6.398522854E-2,-9.285771847E-2,-1.935195923E-2
4.047355333E0,7.181131840E-2,-9.458987415E-2,-1.767635345E-2
4.065245470E0,6.692433357E-2,-9.650384635E-2,-1.431369781E-2
4.083139635E0,6.935322285E-2,-9.291616082E-2,-2.096843719E-2
4.101022325E0,6.877660751E-2,-8.834852278E-2,-1.657485962E-2
4.118928697E0,6.788742542E-2,-9.602065384E-2,-2.003479004E-2
4.136811327E0,7.226943970E-2,-8.941921592E-2,-2.896213531E-2
4.154717516E0,6.615102291E-2,-9.843550622E-2,-1.521682739E-2
4.172613695E0,6.663441658E-2,-9.980221093E-2,-1.923274994E-2
4.190494859E0,6.539475918E-2,-9.456859529E-2,-2.842998505E-2
4.208401109E0,6.592738628E-2,-9.875251353E-2,-2.300930023E-2
4.226295641E0,6.598663330E-2,-9.073600918E-2,-2.307796478E-2
4.244190233E0,7.140684128E-2,-8.793157339E-2,-2.410602570E-2
4.262084520E0,6.142246723E-2,-9.229432046E-2,-1.835918427E-2
4.279979051E0,7.330822945E-2,-9.818498790E-2,-2.024364471E-2
4.297870469E0,6.712019444E-2,-9.127358347E-2,-2.009010315E-2
4.315768114E0,7.621705532E-2,-9.479614347E-2,-1.052665710E-2
4.333650377E0,6.323027611E-2,-8.981071413E-2,-1.611232758E-2
4.351542161E0,6.795883179E-2,-9.896832705E-2,-2.272701263E-2
4.369437853E0,6.733071804E-2,-9.640081227E-2,-1.934623718E-2
4.387334764E0,5.962800980E-2,-9.380388260E-2,-1.766586304E-2
4.405229479E0,6.807029247E-2,-8.695890754E-2,-1.956653595E-2
4.423137986E0,6.285154819E-2,-9.210352600E-2,-1.632785797E-2
4.441029100E0,7.013750076E-2,-7.906874269E-2,-1.828956604E-2
4.458923875E0,6.521081924E-2,-8.635672182E-2,-1.893138885E-2
4.476818163E0,7.197129726E-2,-8.302121609E-2,-1.760005951E-2
4.494712633E0,6.749725342E-2,-8.771561831E-2,-1.863193512E-2
4.512607164E0,6.649255753E-2,-9.594009072E-2,-1.666831970E-2
4.530501756E0,6.657719612E-2,-9.369308501E-2,-2.522277832E-2
4.548396288E0,6.723427773E-2,-8.534366637E-2,-1.821994781E-2
4.566289537E0,6.993997097E-2,-8.936347812E-2,-1.991367340E-2
4.584182176E0,6.732225418E-2,-8.848358691E-2,-1.470756531E-2
4.602079698E0,6.273341179E-2,-8.916880190E-2,-1.349544525E-2
4.619974168E0,7.009363174E-2,-9.091457725E-2,-1.646614075E-2
4.637866380E0,6.710612774E-2,-9.840297699E-2,-1.951408386E-2
4.655763170E0,6.996393204E-2,-8.805325627E-2,-2.280712128E-2
4.673645494E0,6.001889706E-2,-9.426409006E-2,-2.785491943E-2
4.691552232E0,6.825637817E-2,-9.335113317E-2,-1.142501831E-2
4.709446275E0,6.911480427E-2,-8.763296902E-2,-2.299404144E-2
4.727341051E0,6.753718853E-2,-8.665674180E-2,-2.632808685E-2
4.745235582E0,6.355106831E-2,-8.082256466E-2,-1.577281952E-2
4.763130113E0,6.577944756E-2,-8.980817348E-2,-1.880836487E-2
4.781024217E0,5.972135067E-2,-8.719157428E-2,-2.778339386E-2
4.798919237E0,6.722664833E-2,-8.801465482E-2,-3.213691711E-2
4.816813524E0,6.450223923E-2,-9.189514071E-2,-1.566219330E-2
4.834707750E0,5.748856068E-2,-8.069863915E-2,-2.186012268E-2
4.852602586E0,6.647992134E-2,-8.679696918E-2,-2.430820465E-2
4.870496813E0,6.165063381E-2,-8.358264714E-2,-2.144145966E-2
4.888391344E0,6.317889690E-2,-8.371300995E-2,-1.752281189E-2
4.906285631E0,5.895674229E-2,-8.678361773E-2,-2.259540558E-2
4.924180467E0,6.570851803E-2,-8.926041424E-2,-2.093315125E-2
4.942074754E0,6.524372101E-2,-8.505864441E-2,-1.488780975E-2
4.959969286E0,5.870711803E-2,-8.838019520E-2,-2.222728729E-2
4.977863878E0,6.172609329E-2,-9.095154703E-2,-1.580524445E-2
4.995758043E0,7.249307632E-2,-8.549968898E-2,-1.662254333E-2
5.013640672E0,6.671297550E-2,-8.469656855E-2,-2.289581299E-2
5.031544969E0,5.605971813E-2,-8.925404400E-2,-1.914787292E-2
5.049441698E0,6.265854836E-2,-9.299797565E-2,-3.593349457E-2
5.067336168E0,6.689393520E-2,-8.947546780E-2,-2.492618561E-2
5.085216111E0,5.554151535E-2,-8.092819154E-2,-1.482486725E-2
5.103128282E0,6.047868729E-2,-7.154995203E-2,-1.455211639E-2
5.121019273E0,7.076609135E-2,-8.124733716E-2,-2.180957794E-2
5.138916002E0,6.492900848E-2,-8.112303913E-2,-2.711296082E-2
5.156808641E0,6.525290012E-2,-7.595904171E-2,-2.779388428E-2
5.174702928E0,6.143176556E-2,-8.001995087E-2,-1.668357849E-2
5.192597398E0,6.213378906E-2,-8.963169158E-2,-2.120590210E-2
5.210491991E0,6.491565704E-2,-8.153890818E-2,-2.533054352E-2
5.228384813E0,6.638598442E-2,-8.304925263E-2,-1.237869263E-2
5.246280748E0,6.052148342E-2,-8.617309481E-2,-9.986877441E-3
5.264175340E0,6.377589703E-2,-8.680288494E-2,-1.322746277E-2
5.282069811E0,6.884086132E-2,-8.382083476E-2,-1.552391052E-2
5.299963854E0,6.349766254E-2,-8.031582087E-2,-2.029800415E-2
5.317858751E0,6.529736519E-2,-8.676366508E-2,-1.876926422E-2
5.335753160E0,6.222999096E-2,-8.566731960E-2,-2.358436584E-2
5.353635545E0,5.916583538E-2,-8.639362454E-2,-1.892948151E-2
5.371542284E0,6.550812721E-2,-7.473394275E-2,-1.722908020E-2
5.389436510E0,6.035375595E-2,-7.664562017E-2,-1.946544647E-2
5.407318102E0,6.118679047E-2,-7.919739932E-2,-2.094745636E-2
5.425225572E0,6.605958939E-2,-7.508377731E-2,-1.679992676E-2
5.443120165E0,6.982922554E-2,-8.225253224E-2,-2.195072174E-2
5.461014757E0,5.990791321E-2,-8.508588374E-2,-2.101325989E-2
5.478909227E0,7.130539417E-2,-7.343606651E-2,-2.037429810E-2
5.496791551E0,6.043076515E-2,-7.808916271E-2,-2.301597595E-2
5.514697984E0,7.285928726E-2,-8.040814847E-2,-2.054595947E-2
5.532592271E0,7.160282135E-2,-8.170677722E-2,-1.742553711E-2
5.550487047E0,5.893921852E-2,-8.476179838E-2,-2.403068542E-2
5.568381395E0,6.453549862E-2,-8.057804406E-2,-2.217769623E-2
5.586264268E0,5.849051476E-2,-8.893585950E-2,-2.067089081E-2
5.604170579E0,6.553709507E-2,-8.237814903E-2,-1.296806335E-2
5.622064745E0,6.390738487E-2,-8.223169297E-2,-1.680946350E-2
5.639962450E0,6.182324886E-2,-8.326908946E-2,-3.005123138E-2
5.657853807E0,5.999374390E-2,-7.867443562E-2,-1.502799988E-2
5.675748338E0,6.647086143E-2,-8.330580592E-2,-2.356147766E-2
5.693627610E0,6.411409378E-2,-8.056692034E-2,-1.978111267E-2
5.711537096E0,6.458914280E-2,-7.746348530E-2,-2.378082275E-2
5.729431383E0,6.083166599E-2,-7.543268055E-2,-1.610851288E-2
5.747329148E0,6.439507008E-2,-7.188883424E-2,-2.195358276E-2
5.765220384E0,6.586813927E-2,-7.812189311E-2,-1.576995850E-2
5.783115099E0,6.804454327E-2,-7.894914597E-2,-2.290439606E-2
5.801009569E0,6.664812565E-2,-7.861681283E-2,-8.013725281E-3
5.818904039E0,6.427133083E-2,-7.914308459E-2,-1.884460449E-2
5.836801561E0,5.564439297E-2,-8.247005194E-2,-2.556133270E-2
5.854693163E0,7.221150398E-2,-8.048795164E-2,-1.403236389E-2
5.872587145E0,6.613957882E-2,-8.483345807E-2,-2.040386200E-2
5.890481981E0,6.701290607E-2,-7.818592340E-2,-2.102279663E-2
5.908376390E0,6.074833870E-2,-8.193150163E-2,-1.846599579E-2
5.926270982E0,5.815923214E-2,-8.430682123E-2,-2.317810059E-2
5.944165270E0,6.039893627E-2,-6.797511131E-2,-1.537704468E-2
5.962046373E0,5.101382732E-2,-7.572510839E-2,-1.842880249E-2
5.979954332E0,6.060194969E-2,-7.580071688E-2,-1.940441132E-2
5.997848985E0,6.432807446E-2,-6.815491617E-2,-2.099895477E-2
6.015743395E0,5.482435226E-2,-8.005021513E-2,-2.161121368E-2
6.033625536E0,6.851327419E-2,-7.637610286E-2,-2.335548401E-2
6.051532213E0,5.798256397E-2,-7.676924765E-2,-2.207183838E-2
6.069423570E0,5.344510078E-2,-7.289941609E-2,-2.205753326E-2
6.087321031E0,6.013166904E-2,-8.044974506E-2,-1.950645447E-2
6.105215685E0,5.853867531E-2,-6.903111935E-2,-1.535987854E-2
6.123110094E0,5.820727348E-2,-8.321610093E-2,-1.742744446E-2
6.141004503E0,6.179451942E-2,-7.598073781E-2,-1.803970337E-2
6.158899156E0,5.663740635E-2,-8.198647201E-2,-1.894569397E-2
6.176793565E0,5.705237389E-2,-7.554034144E-2,-1.233291626E-2
6.194687975E0,5.874240398E-2,-7.828710973E-2,-2.014541626E-2
6.212582567E0,5.978882313E-2,-6.738112122E-2,-2.045726776E-2
6.230476610E0,6.638133526E-2,-8.178276569E-2,-1.912498474E-2
6.248371324E0,5.618274212E-2,-8.177051693E-2,-1.831531525E-2
6.266265855E0,5.868625641E-2,-7.929284126E-2,-1.543045044E-2
6.284160387E0,5.517613888E-2,-7.251605392E-2,-2.657985687E-2
6.302057665E0,6.048572063E-2,-6.780157983E-2,-2.896690369E-2
6.319949205E0,6.330990791E-2,-7.051617652E-2,-1.903152466E-2
6.337839830E0,5.722832680E-2,-7.556007057E-2,-1.280498505E-2
6.355738268E0,6.345677376E-2,-6.864796579E-2,-1.854228973E-2
6.373620409E0,6.085765362E-2,-7.138030231E-2,-2.062416077E-2
6.391527147E0,6.023669243E-2,-7.386542857E-2,-2.159500122E-2
6.409421373E0,5.681681633E-2,-7.155063748E-2,-2.151679993E-2
6.427303636E0,5.725336075E-2,-7.402315736E-2,-1.850891113E-2
6.445210497E0,5.366671085E-2,-7.668689638E-2,-8.873939514E-3
6.463105028E0,5.991506577E-2,-7.610841095E-2,-1.482868195E-2
6.480999254E0,5.770313740E-2,-7.759623230E-2,-1.052474976E-2
6.498894090E0,5.818903446E-2,-7.326069474E-2,-1.898384094E-2
6.516788561E0,6.041574478E-2,-7.474400848E-2,-1.861381531E-2
6.534682909E0,6.106877327E-2,-7.136061788E-2,-2.237892151E-2
6.552577440E0,5.716705322E-2,-6.551971287E-2,-2.163887024E-2
6.570471910E0,5.350315571E-2,-6.862580776E-2,-2.674674988E-2
6.588369310E0,5.235874653E-2,-6.838672608E-2,-2.205276489E-2
6.606260484E0,5.489981174E-2,-6.889870763E-2,-2.474403381E-2
6.624155260E0,6.059479713E-2,-6.511281431E-2,-2.399349213E-2
6.642049608E0,5.115044117E-2,-6.127019972E-2,-1.773071289E-2
6.659944139E0,6.180632114E-2,-6.699156761E-2,-2.904701233E-2
6.677838731E0,4.867005348E-2,-7.091042399E-2,-1.251125336E-2
6.695715563E0,5.212759972E-2,-6.983502209E-2,-3.011512756E-2
6.713617723E0,5.606973171E-2,-7.182781398E-2,-2.637767792E-2
6.731521959E0,5.496263504E-2,-6.887530535E-2,-2.130699158E-2
6.749416307E0,5.018889904E-2,-6.845320016E-2,-1.805305481E-2
6.767311387E0,5.494296551E-2,-6.890915334E-2,-2.056312561E-2
6.785205370E0,5.252265930E-2,-7.329638302E-2,-2.306652069E-2
6.803099840E0,5.616962910E-2,-7.073868811E-2,-2.150917053E-2
6.820994432E0,5.490672588E-2,-6.189503521E-2,-1.926803589E-2
6.838888963E0,5.623531342E-2,-7.306866348E-2,-2.240371704E-2
6.856783250E0,6.324160099E-2,-6.615446508E-2,-1.884460449E-2
6.874677782E0,5.882310867E-2,-6.651191413E-2,-1.728153229E-2
6.892570360E0,4.506468773E-2,-6.770554185E-2,-2.597808838E-2
6.910466844E0,4.735636711E-2,-6.817356497E-2,-2.215576172E-2
6.928361070E0,5.237877369E-2,-6.933496892E-2,-1.118850708E-2
6.946255541E0,5.086374283E-2,-6.650742143E-2,-1.587104797E-2
6.964149950E0,5.516648293E-2,-5.526533723E-2,-1.689338684E-2
6.982044481E0,6.230759621E-2,-6.329043955E-2,-1.213836670E-2
6.999939012E0,5.113589764E-2,-6.515020132E-2,-1.631832123E-2
7.017833543E0,5.342245102E-2,-6.155427545E-2,-1.741981506E-2
7.035728136E0,5.542600155E-2,-7.315562665E-2,-1.900196075E-2
7.053617967E0,5.148613453E-2,-7.294454426E-2,-2.023220062E-2
7.071512010E0,4.878807068E-2,-7.141125947E-2,-3.050327301E-2
7.089414293E0,5.926120281E-2,-6.635265052E-2,-2.084064484E-2
7.107305834E0,5.423951149E-2,-6.706847996E-2,-3.065299988E-2
7.125197252E0,5.739009380E-2,-6.366068125E-2,-2.582454681E-2
7.143094835E0,5.512332916E-2,-6.218020618E-2,-2.506732941E-2
7.160981431E0,5.456256866E-2,-6.348344684E-2,-1.864528656E-2
7.178883775E0,4.627382755E-2,-7.197030634E-2,-2.077007294E-2
7.196778307E0,5.231738091E-2,-7.058110833E-2,-1.916408539E-2
7.214672655E0,4.563570023E-2,-6.842405349E-2,-1.883411407E-2
7.232567186E0,5.166018009E-2,-6.353394687E-2,-1.046466827E-2
7.250461656E0,5.306303501E-2,-6.355048716E-2,-2.264499664E-2
7.268356127E0,5.379176140E-2,-5.972829461E-2,-1.936054230E-2
7.286250475E0,5.925333500E-2,-6.400866061E-2,-2.195167542E-2
7.304144945E0,5.007779598E-2,-6.060041487E-2,-2.711677551E-2
7.322039354E0,5.036628246E-2,-6.140934676E-2,-1.391029358E-2
7.339933885E0,5.427598953E-2,-6.496819854E-2,-1.275253296E-2
7.357825669E0,6.024479866E-2,-6.601385772E-2,-2.141761780E-2
7.375722887E0,5.675423145E-2,-5.974610895E-2,-2.131271362E-2
7.393618211E0,4.912126064E-2,-6.393997371E-2,-1.940822601E-2
7.411511949E0,5.203747749E-2,-6.652964652E-2,-1.838970184E-2
7.429406053E0,5.573880672E-2,-5.218161643E-2,-2.095985413E-2
7.447300768E0,4.939925671E-2,-5.709618330E-2,-2.207851410E-2
7.465195177E0,5.593526363E-2,-6.519944966E-2,-2.744865417E-2
7.483089586E0,5.901062489E-2,-5.491758883E-2,-2.174377441E-2
7.500984239E0,6.083106995E-2,-6.252894551E-2,-1.868820190E-2
7.518878770E0,5.773735046E-2,-6.275750697E-2,-1.810741425E-2
7.536772752E0,5.388987064E-2,-6.230089068E-2,-1.886081696E-2
7.554667223E0,4.960656166E-2,-6.716080755E-2,-1.928234100E-2
7.572562120E0,5.935990810E-2,-7.047374547E-2,-3.182220459E-2
7.590445177E0,5.276894569E-2,-6.498534977E-2,-1.737213135E-2
7.608339159E0,5.475127697E-2,-6.112097204E-2,-1.484870911E-2
7.626233507E0,5.525910854E-2,-6.749572605E-2,-1.799583435E-2
7.644126634E0,5.703055859E-2,-6.783374399E-2,-1.718425751E-2
7.662034166E0,4.544830322E-2,-6.464195997E-2,-1.167201996E-2
7.679928758E0,5.222356319E-2,-6.213343889E-2,-2.521705627E-2
7.697826281E0,5.598139763E-2,-6.545133889E-2,-2.423667908E-2
7.715717760E0,5.270338058E-2,-6.301350147E-2,-2.541923523E-2
7.733596666E0,5.730283260E-2,-6.399916857E-2,-8.649826050E-3
7.751506578E0,5.099976063E-2,-6.731678545E-2,-1.724624634E-2
7.769400621E0,4.872202873E-2,-6.763780117E-2,-2.583789825E-2
7.787295580E0,5.147528648E-2,-6.424479187E-2,-1.351261139E-2
7.805189928E0,4.902315140E-2,-5.602833629E-2,-2.215766907E-2
7.823084459E0,4.631221294E-2,-5.832853913E-2,-2.149295807E-2
7.840979051E0,4.766464233E-2,-5.781146884E-2,-2.005004883E-2
7.858873277E0,5.042564869E-2,-6.154935807E-2,-1.914978027E-2
7.876767809E0,4.512596130E-2,-4.919088632E-2,-1.771354675E-2
7.894662096E0,5.155587196E-2,-5.719235539E-2,-2.030754089E-2
7.912556566E0,4.812049866E-2,-6.696045399E-2,-1.597976685E-2
7.930451402E0,4.604589939E-2,-6.799136102E-2,-2.174568176E-2
7.948345873E0,5.403268337E-2,-6.088378280E-2,-1.840686798E-2
7.966240587E0,4.580473900E-2,-5.941718072E-2,-2.612304688E-2
7.984134813E0,5.120575428E-2,-5.747587234E-2,-1.564121246E-2
8.002028856E0,5.263149738E-2,-6.062431633E-2,-1.576042175E-2
8.019923570E0,4.789936543E-2,-5.239518732E-2,-2.128601074E-2
8.037817857E0,4.876542091E-2,-4.938482493E-2,-2.220249176E-2
8.055712389E0,4.839193821E-2,-5.105660111E-2,-2.488231659E-2
8.073596666E0,4.723775387E-2,-6.256726384E-2,-2.589130402E-2
8.091497483E0,5.094313622E-2,-5.281322449E-2,-2.127456665E-2
8.109397203E0,5.211722851E-2,-5.800207704E-2,-2.315998077E-2
8.127290270E0,4.845368862E-2,-5.339778960E-2,-1.620578766E-2
8.145184801E0,4.595088959E-2,-5.271958560E-2,-1.561832428E-2
8.163079210E0,5.444324017E-2,-5.099006742E-2,-2.372455597E-2
8.180973619E0,4.802107811E-2,-5.596230179E-2,-1.771259308E-2
8.198868394E0,4.931914806E-2,-6.132864952E-2,-2.842235565E-2
8.216762743E0,4.321885109E-2,-6.202770025E-2,-3.063392639E-2
8.234657030E0,4.273509979E-2,-5.892007053E-2,-2.031135559E-2
8.252551500E0,4.487872124E-2,-4.983692616E-2,-1.845073700E-2
8.270445787E0,5.281209946E-2,-5.669568479E-2,-2.284908295E-2
8.288339524E0,5.041575432E-2,-6.648435444E-2,-2.285861969E-2
8.306235094E0,5.172801018E-2,-4.597605020E-2,-2.390861511E-2
8.324129381E0,4.585158825E-2,-5.551923811E-2,-1.631736755E-2
8.342023607E0,4.449927807E-2,-5.966526270E-2,-2.410984039E-2
8.359918749E0,5.273675919E-2,-5.683643371E-2,-2.717590332E-2
8.377812975E0,4.811370373E-2,-5.844842643E-2,-1.724624634E-2
8.395707323E0,4.826188087E-2,-5.315545201E-2,-1.688098907E-2
8.413596971E0,4.485070705E-2,-5.580019951E-2,-2.102565765E-2
8.431499009E0,5.020976067E-2,-6.278014183E-2,-1.598072052E-2
8.449393053E0,5.262851715E-2,-5.326332152E-2,-1.413154602E-2
8.467270738E0,5.365288258E-2,-5.589752644E-2,-1.948928833E-2
8.485179674E0,5.029535294E-2,-5.855530500E-2,-2.688694000E-2
8.503073961E0,5.371057987E-2,-5.953565240E-2,-2.535438538E-2
8.520968492E0,4.863953590E-2,-5.671246350E-2,-2.420425415E-2
8.538863023E0,5.878794193E-2,-5.514489859E-2,-2.340221405E-2
8.556751146E0,5.584442616E-2,-5.776930600E-2,-1.212120056E-2
8.574651842E0,5.328726768E-2,-5.362965167E-2,-2.126312256E-2
8.592549363E0,5.029392242E-2,-4.972539842E-2,-2.750396729E-2
8.610440599E0,4.949414730E-2,-5.237665027E-2,-2.247810364E-2
8.628335130E0,4.411578178E-2,-5.689260364E-2,-2.418136597E-2
8.646232714E0,5.345416069E-2,-4.944031686E-2,-1.852703094E-2
8.664123461E0,5.788302422E-2,-5.581258237E-2,-2.463054657E-2
8.682018541E0,4.262661934E-2,-5.537852645E-2,-2.253913879E-2
8.699913194E0,4.804885387E-2,-5.030152202E-2,-1.859283447E-2
8.717807420E0,5.007874966E-2,-5.919323862E-2,-1.620769501E-2
8.735701646E0,5.029809475E-2,-5.263852328E-2,-1.501369476E-2
8.753596117E0,5.304765701E-2,-5.224159360E-2,-2.775573730E-2
8.771491014E0,4.632008076E-2,-5.413132906E-2,-1.931858063E-2
8.789391344E0,4.200947285E-2,-5.825460702E-2,-1.256656647E-2
8.807279771E0,4.538810253E-2,-5.654901266E-2,-1.830387115E-2
8.825173814E0,5.469167233E-2,-5.333493650E-2,-2.422237396E-2
8.843068895E0,4.750919342E-2,-5.375356227E-2,-2.130508423E-2
8.860963121E0,5.006611347E-2,-5.298067629E-2,-1.223278046E-2
8.878857652E0,5.150997639E-2,-5.092396587E-2,-1.613235474E-2
8.896754930E0,4.820764065E-2,-4.973232746E-2,-1.380538940E-2
8.914646471E0,4.848992825E-2,-5.056296289E-2,-2.044868469E-2
8.932540758E0,4.822206497E-2,-5.198007822E-2,-2.128601074E-2
8.950435533E0,3.961813450E-2,-4.874408990E-2,-1.981925964E-2
8.968329820E0,4.780924320E-2,-5.194792151E-2,-1.758384705E-2
8.986224352E0,4.599809647E-2,-4.630707204E-2,-1.671981812E-2
9.004118883E0,4.758203030E-2,-5.170997977E-2,-2.135658264E-2
9.022012377E0,4.848408699E-2,-5.145274103E-2,-1.481056213E-2
9.039907762E0,4.464399815E-2,-4.809936881E-2,-1.976966858E-2
9.057802293E0,4.749941826E-2,-5.119210482E-2,-2.162742615E-2
9.075696520E0,4.794609547E-2,-4.464442283E-2,-2.530670166E-2
9.093590685E0,4.894280434E-2,-4.343511909E-2,-2.010345459E-2
9.111485643E0,4.826807976E-2,-6.285142899E-2,-2.060794830E-2
9.129371018E0,4.673171043E-2,-5.384932458E-2,-2.471160889E-2
9.147274400E0,5.810892582E-2,-4.744590819E-2,-2.195930481E-2
9.165168993E0,5.282855034E-2,-5.223912746E-2,-2.050590515E-2
9.183063463E0,4.553222656E-2,-4.672673345E-2,-2.696323395E-2
9.200957567E0,4.287445545E-2,-5.242401361E-2,-2.624225616E-2
9.218852281E0,4.808652401E-2,-5.086329579E-2,-1.333713531E-2
9.236746874E0,4.727923870E-2,-4.849476367E-2,-1.789093018E-2
9.254640855E0,4.534721375E-2,-5.146896094E-2,-1.839542389E-2
9.272535692E0,4.984641075E-2,-5.426156521E-2,-2.370071411E-2
9.290419481E0,5.956244469E-2,-4.549465328E-2,-1.744842529E-2
9.308324693E0,5.293369293E-2,-5.140975118E-2,-1.973915100E-2
9.326218980E0,4.240405560E-2,-5.078931898E-2,-1.529598236E-2
9.344113268E0,4.377400875E-2,-5.331885815E-2,-1.074981689E-2
9.362010790E0,4.708266258E-2,-5.456674099E-2,-1.689434052E-2
9.379902635E0,4.511356354E-2,-5.054646730E-2,-2.208709717E-2
9.397792710E0,4.147481918E-2,-4.939487576E-2,-2.802753448E-2
9.415691454E0,3.876125813E-2,-4.942984879E-2,-2.336406708E-2
9.433585741E0,4.553627968E-2,-4.997696728E-2,-1.696681976E-2
9.451480211E0,4.697775841E-2,-4.913653433E-2,-2.658462524E-2
9.469362474E0,4.580092430E-2,-5.406962335E-2,-2.244281769E-2
9.487251634E0,3.966999054E-2,-4.957931489E-2,-3.212738037E-2
9.505163622E0,4.373037815E-2,-4.880399257E-2,-2.349567413E-2
9.523058092E0,4.788315296E-2,-4.648893327E-2,-2.110481262E-2
9.540952318E0,3.941142559E-2,-4.319230467E-2,-2.886009216E-2
9.558846971E0,4.344916344E-2,-4.597841203E-2,-2.340507507E-2
9.576741441E0,5.113577843E-2,-4.820302874E-2,-2.617359161E-2
9.594635668E0,4.653084278E-2,-5.244760960E-2,-2.597904205E-2
9.612530260E0,4.151511192E-2,-5.023775250E-2,-2.280521393E-2
9.630427782E0,3.880989552E-2,-5.449328572E-2,-2.799415588E-2
9.648319383E0,4.067850113E-2,-4.886817932E-2,-3.531265259E-2
9.666201402E0,4.029738903E-2,-4.465995729E-2,-1.814079285E-2
9.684108202E0,4.401600361E-2,-4.689213634E-2,-2.495288849E-2
9.702002550E0,4.529964924E-2,-4.014006257E-2,-2.334976196E-2
9.719897020E0,3.687095642E-2,-4.706382751E-2,-2.553749084E-2
9.737791246E0,4.363596439E-2,-4.402858764E-2,-1.866340637E-2
9.755673570E0,3.991413116E-2,-5.237205327E-2,-1.764011383E-2
9.773580370E0,4.483163357E-2,-5.081444979E-2,-1.196956635E-2
9.791474840E0,4.406273365E-2,-4.669991881E-2,-1.809692383E-2
9.809359056E0,3.825628757E-2,-4.710079730E-2,-2.568721771E-2
9.827265184E0,3.939139843E-2,-4.455807805E-2,-1.977157593E-2
9.845158434E0,4.212462902E-2,-3.952489793E-2,-1.896095276E-2
9.863052721E0,4.603064060E-2,-3.781233728E-2,-2.429771423E-2
9.880946764E0,3.927659988E-2,-4.661138356E-2,-2.667999268E-2
9.898841600E0,4.245042801E-2,-5.080428720E-2,-2.332115173E-2
9.916736131E0,3.734278679E-2,-4.610247910E-2,-1.999759674E-2
9.934630357E0,4.141831398E-2,-4.929878563E-2,-2.781581879E-2
9.952522753E0,4.222702980E-2,-4.227096587E-2,-2.359390259E-2
9.970419481E0,4.040348530E-2,-4.617286474E-2,-9.027481079E-3
9.988313646E0,3.791987896E-2,-3.833922744E-2,-2.283191681E-2
1.000620824E1,4.517579079E-2,-4.600833356E-2,-3.145122528E-2
1.002409062E1,3.231561184E-2,-4.098020494E-2,-1.866054535E-2
1.004199700E1,4.471898079E-2,-4.868759960E-2,-1.863002777E-2
1.005989159E1,4.264807701E-2,-5.204182863E-2,-2.708148956E-2
1.007778624E1,3.943145275E-2,-4.075215757E-2,-1.835441589E-2
1.009568340E1,4.039800167E-2,-4.915297031E-2,-1.862907410E-2
1.011357469E1,3.760719299E-2,-4.203992337E-2,-2.154064178E-2
1.013145726E1,4.559373856E-2,-4.501041025E-2,-2.004814148E-2
1.014935179E1,3.866577148E-2,-5.073668063E-2,-2.093601227E-2
1.016725829E1,4.817295074E-2,-4.208582640E-2,-2.007198334E-2
1.018515288E1,4.535913467E-2,-4.143649340E-2,-2.629756927E-2
1.020304741E1,3.889572620E-2,-4.056335241E-2,-2.597618103E-2
1.022093028E1,4.251468182E-2,-4.808631539E-2,-2.647209167E-2
1.023883623E1,3.811752796E-2,-4.056951404E-2,-2.906513214E-2
1.025673076E1,4.222953320E-2,-4.221656919E-2,-2.034950256E-2
1.027462499E1,3.554403782E-2,-4.660995305E-2,-2.793216705E-2
1.029252275E1,3.938233852E-2,-3.907440603E-2,-2.806472778E-2
1.031041387E1,3.148901463E-2,-3.747085482E-2,-3.030204773E-2
1.032830882E1,5.056262016E-2,-3.643059731E-2,-2.260017395E-2
1.034620287E1,4.065752029E-2,-4.755843431E-2,-2.199077606E-2
1.036409715E1,4.611277580E-2,-4.848904908E-2,-2.055168152E-2
1.038199169E1,4.301261902E-2,-4.248471558E-2,-2.149391174E-2
1.039988597E1,3.483247757E-2,-3.823744506E-2,-1.892375946E-2
1.041777721E1,4.278767109E-2,-4.330097884E-2,-1.810073853E-2
1.043567479E1,4.044020176E-2,-3.859253228E-2,-2.025127411E-2
1.045356963E1,3.587234020E-2,-5.037674308E-2,-2.425289154E-2
1.047146392E1,3.964567184E-2,-5.606123060E-2,-2.891445160E-2
1.048934648E1,4.102325439E-2,-4.794740677E-2,-2.616500854E-2
1.050725286E1,4.049468040E-2,-4.407849163E-2,-2.345275879E-2
1.052514720E1,4.712796211E-2,-4.768997431E-2,-2.246952057E-2
1.054304173E1,3.901231289E-2,-4.924659431E-2,-2.655601501E-2
1.056093608E1,3.214347363E-2,-4.262628406E-2,-2.177715302E-2
1.057882768E1,3.917336464E-2,-4.589381814E-2,-2.373027802E-2
1.059672490E1,3.132891655E-2,-4.259867966E-2,-2.595901489E-2
1.061461937E1,3.372716904E-2,-4.728329927E-2,-3.023147583E-2
1.063251384E1,3.398454189E-2,-4.556622356E-2,-2.664947510E-2
1.065040850E1,3.946709633E-2,-4.890060425E-2,-2.646923065E-2
1.066830303E1,4.096472263E-2,-4.247732460E-2,-3.758335114E-2
1.068619609E1,4.614901543E-2,-4.122604430E-2,-2.588272095E-2
1.070409184E1,3.628396988E-2,-4.211247712E-2,-2.549362183E-2
1.072198613E1,3.663051128E-2,-3.884378076E-2,-2.416229248E-2
1.073988066E1,3.968954086E-2,-4.245172441E-2,-1.945114136E-2
1.075777526E1,3.963565826E-2,-4.635126889E-2,-2.802562714E-2
1.077566942E1,3.976333141E-2,-3.857620806E-2,-2.184104919E-2
1.079356096E1,3.781557083E-2,-3.575887531E-2,-2.633476257E-2
1.081144414E1,3.997623920E-2,-4.478444159E-2,-3.129291534E-2
1.082934154E1,4.131305218E-2,-4.093239456E-2,-2.840042114E-2
1.084724327E1,3.838145733E-2,-3.957229853E-2,-2.423858643E-2
1.086512969E1,4.241454601E-2,-4.105406255E-2,-9.819984436E-3
1.088303398E1,4.092395306E-2,-4.032325745E-2,-1.812076569E-2
1.090093041E1,3.182065487E-2,-4.219903797E-2,-1.580715179E-2
1.091882518E1,4.170262814E-2,-3.171166778E-2,-1.811027527E-2
1.093672014E1,3.877496719E-2,-3.697990626E-2,-2.527809143E-2
1.095461156E1,2.371215820E-2,-3.911060095E-2,-2.127838135E-2
1.097250853E1,3.773498535E-2,-4.060856998E-2,-2.862453461E-2
1.099040257E1,3.082585335E-2,-3.678566217E-2,-2.474689484E-2
1.100829735E1,3.968620300E-2,-3.649952263E-2,-2.013587952E-2
1.102619463E1,4.299283028E-2,-3.647430241E-2,-2.363014221E-2
1.104408617E1,3.645515442E-2,-4.120252281E-2,-2.673149109E-2
1.106198046E1,3.940761089E-2,-4.467232525E-2,-2.032375336E-2
1.107987212E1,4.272961617E-2,-4.684761167E-2,-2.967453003E-2
1.109776982E1,3.499174118E-2,-4.746905714E-2,-1.929664612E-2
1.111566094E1,3.765857220E-2,-3.872050345E-2,-2.859592438E-2
1.113355840E1,3.180491924E-2,-4.128482193E-2,-2.829456329E-2
1.115143578E1,2.997064590E-2,-4.174543172E-2,-2.002334595E-2
1.116933544E1,3.737175465E-2,-4.666732252E-2,-2.487468719E-2
1.118724162E1,4.012322426E-2,-3.435320407E-2,-2.491760254E-2
1.120513622E1,4.160284996E-2,-4.362201691E-2,-2.033996582E-2
1.122303075E1,3.749191761E-2,-3.818973154E-2,-2.665901184E-2
1.124092516E1,3.785467148E-2,-4.415050149E-2,-2.485179901E-2
1.125881963E1,3.480327129E-2,-4.344426841E-2,-2.953052521E-2
1.127671416E1,4.328441620E-2,-4.333934188E-2,-2.359104156E-2
1.129460820E1,3.425347805E-2,-4.269128293E-2,-1.974296570E-2
1.131250292E1,3.848159313E-2,-4.088758677E-2,-2.107810974E-2
1.133039726E1,4.465985298E-2,-4.560715705E-2,-3.223133087E-2
1.134828868E1,3.731095791E-2,-3.810305893E-2,-1.654911041E-2
1.136618926E1,3.883635998E-2,-3.931137919E-2,-3.546237946E-2
1.138408055E1,3.280591965E-2,-4.060791433E-2,-2.527332306E-2
1.140197508E1,3.973793983E-2,-3.719297796E-2,-2.148532867E-2
1.141986937E1,3.348958492E-2,-3.517366201E-2,-1.714897156E-2
1.143776421E1,3.383064270E-2,-4.687204212E-2,-2.838706970E-2
1.145565843E1,2.578461170E-2,-3.483077139E-2,-2.477836609E-2
1.147355266E1,3.862869740E-2,-3.389083594E-2,-1.790237427E-2
1.149144890E1,3.441524506E-2,-4.640759528E-2,-2.062892914E-2
1.150933006E1,3.312730789E-2,-4.220074415E-2,-2.276134491E-2
1.152722264E1,2.300262451E-2,-3.064860404E-2,-3.213500977E-2
1.154513060E1,3.042161465E-2,-3.448468447E-2,-3.144264221E-2
1.156302513E1,4.010748863E-2,-3.405228257E-2,-2.912807465E-2
1.158090508E1,2.882838249E-2,-3.503765166E-2,-1.715850830E-2
1.159881401E1,3.750956059E-2,-4.257506877E-2,-2.528095245E-2
1.161669554E1,3.127872944E-2,-3.618790209E-2,-1.928424835E-2
1.163460277E1,3.028059006E-2,-3.367041051E-2,-1.712608337E-2
1.165249730E1,3.236413002E-2,-3.642906994E-2,-2.400493622E-2
1.167039159E1,3.421342373E-2,-4.386309534E-2,-1.821136475E-2
1.168828630E1,3.671622276E-2,-3.464053571E-2,-1.733207703E-2
1.170618376E1,3.461194038E-2,-3.661373258E-2,-2.705383301E-2
1.172407518E1,3.892111778E-2,-3.100869060E-2,-1.372623444E-2
1.174196947E1,3.609764576E-2,-3.480765224E-2,-2.661991119E-2
1.175986406E1,3.146100044E-2,-3.489745408E-2,-2.891921997E-2
1.177775829E1,2.556622028E-2,-4.787973315E-2,-2.767372131E-2
1.179565257E1,3.817009926E-2,-4.375591874E-2,-2.437400818E-2
1.181354839E1,3.455317020E-2,-3.982545435E-2,-2.407836914E-2
1.183144164E1,2.906715870E-2,-3.856115043E-2,-2.400684357E-2
1.184932427E1,3.458845615E-2,-3.210429847E-2,-2.663326263E-2
1.186723076E1,2.943587303E-2,-3.958040476E-2,-1.789188385E-2
1.188512480E1,3.680670261E-2,-3.472562134E-2,-2.607822418E-2
1.190301958E1,3.086435795E-2,-3.789983690E-2,-2.286243439E-2
1.192091387E1,2.981865406E-2,-3.373393416E-2,-1.957130432E-2
1.193880834E1,3.299474716E-2,-3.579866886E-2,-1.545143127E-2
1.195670396E1,2.907073498E-2,-3.024949133E-2,-2.471160889E-2
1.197459697E1,2.878367901E-2,-3.698059916E-2,-3.022193909E-2
1.199248845E1,3.722918034E-2,-3.847678006E-2,-2.612876892E-2
1.201038634E1,3.755474091E-2,-2.928738296E-2,-2.282238007E-2
1.202828050E1,3.435075283E-2,-3.123740852E-2,-1.891517639E-2
1.204617796E1,4.418444633E-2,-2.631467581E-2,-2.647209167E-2
1.206406938E1,3.289222717E-2,-3.290063143E-2,-2.179050446E-2
1.208194896E1,3.439080715E-2,-3.045766801E-2,-2.862739563E-2
1.209985820E1,2.497315407E-2,-3.131547570E-2,-2.959823608E-2
1.211774077E1,3.667998314E-2,-2.635997534E-2,-3.439331055E-2
1.213564696E1,2.748847008E-2,-3.604117781E-2,-2.730846405E-2
1.215353813E1,2.585983276E-2,-2.983451635E-2,-2.860164642E-2
1.217143553E1,3.943991661E-2,-3.534543514E-2,-1.316547394E-2
1.218931957E1,3.786039352E-2,-3.860675544E-2,-1.716995239E-2
1.220722514E1,3.429794312E-2,-3.073967993E-2,-2.004814148E-2
1.222511949E1,3.385221958E-2,-3.598276526E-2,-2.600193024E-2
1.224301390E1,3.399443626E-2,-3.363715112E-2,-2.630996704E-2
1.226090703E1,3.050351143E-2,-3.249772638E-2,-2.656364441E-2
1.227880272E1,3.318285942E-2,-3.813435882E-2,-2.507400513E-2
1.229670018E1,3.167009354E-2,-3.259675950E-2,-2.152061462E-2
1.231459154E1,2.531254292E-2,-3.522945195E-2,-2.285003662E-2
1.233248613E1,2.568030357E-2,-4.137916863E-2,-2.836418152E-2
1.235037377E1,3.025233746E-2,-3.083397448E-2,-2.501487732E-2
1.236827483E1,3.472542763E-2,-3.702822328E-2,-2.181720734E-2
1.238617217E1,3.036463261E-2,-3.755702823E-2,-2.117824554E-2
1.240406395E1,3.456115723E-2,-3.165066242E-2,-2.623176575E-2
1.242195806E1,2.586889267E-2,-3.628981113E-2,-2.944946289E-2
1.243985277E1,3.707158566E-2,-2.918311954E-2,-2.826118469E-2
1.245774632E1,2.993142605E-2,-2.758979797E-2,-3.180408478E-2
1.247564128E1,3.244841099E-2,-3.150727600E-2,-2.546501160E-2
1.249353716E1,3.284132481E-2,-2.850272506E-2,-2.645683289E-2
1.251143126E1,3.585588932E-2,-3.447791934E-2,-2.779006958E-2
1.252931304E1,2.802050114E-2,-3.316856921E-2,-2.162456512E-2
1.254721630E1,2.312564850E-2,-3.466568142E-2,-2.047824860E-2
1.256511376E1,2.523446083E-2,-3.199666739E-2,-3.113460541E-2
1.258299639E1,2.911388874E-2,-3.489838541E-2,-2.587795258E-2
1.260090233E1,2.729094028E-2,-3.296852112E-2,-2.653408051E-2
1.261878496E1,2.482748032E-2,-2.866669744E-2,-1.689910889E-2
1.263669164E1,3.126835823E-2,-1.984501630E-2,-2.921009064E-2
1.265458574E1,3.047931194E-2,-3.445838392E-2,-2.221202850E-2
1.267248027E1,2.507758141E-2,-3.183618933E-2,-2.486610413E-2
1.269037743E1,2.737843990E-2,-2.650046349E-2,-2.288341522E-2
1.270826921E1,2.743625641E-2,-3.630729020E-2,-2.141952515E-2
1.272616674E1,2.666902542E-2,-3.443986923E-2,-1.974391937E-2
1.274405809E1,2.444612980E-2,-3.134882450E-2,-2.158355713E-2
1.276195244E1,3.249907494E-2,-3.275429457E-2,-1.621532440E-2
1.277984697E1,3.173613548E-2,-3.150781244E-2,-2.815055847E-2
1.279774144E1,2.886891365E-2,-3.676367551E-2,-2.889919281E-2
1.281562627E1,2.323639393E-2,-3.081340343E-2,-1.620006561E-2
1.283351805E1,2.516126633E-2,-3.625416011E-2,-2.476215363E-2
1.285142186E1,2.744829655E-2,-3.165641427E-2,-2.528953552E-2
1.286930712E1,2.126920223E-2,-2.735256404E-2,-3.009891510E-2
1.288721660E1,2.882063389E-2,-2.166607231E-2,-1.694869995E-2
1.290510814E1,3.159916401E-2,-2.914025635E-2,-2.360439301E-2
1.292300243E1,2.070331573E-2,-3.194507957E-2,-1.933860779E-2
1.294089665E1,2.361083031E-2,-2.505767345E-2,-1.919078827E-2
1.295879155E1,2.707374096E-2,-2.808973938E-2,-2.396678925E-2
1.297668584E1,3.304910660E-2,-3.036990017E-2,-2.184295654E-2
1.299457988E1,2.601206303E-2,-3.457661718E-2,-2.373504639E-2
1.301247112E1,3.303635120E-2,-2.790948004E-2,-2.059078217E-2
1.303036919E1,2.471494675E-2,-3.325135261E-2,-1.768207550E-2
1.304826335E1,3.131759167E-2,-2.821925282E-2,-2.288818359E-2
1.306616032E1,2.411341667E-2,-3.204456717E-2,-3.126430511E-2
1.308404015E1,2.929389477E-2,-3.085166961E-2,-1.548957825E-2
1.310194652E1,2.494835854E-2,-3.297503293E-2,-2.151870728E-2
1.311984422E1,3.050386906E-2,-3.201285005E-2,-3.103065491E-2
1.313773564E1,2.606868744E-2,-3.391951323E-2,-1.466560364E-2
1.315563292E1,3.203999996E-2,-2.836979181E-2,-1.269149780E-2
1.317351262E1,3.108704090E-2,-2.991966903E-2,-2.041912079E-2
1.319140380E1,2.527415752E-2,-2.689385414E-2,-2.438831329E-2
1.320930132E1,2.802407742E-2,-3.426092118E-2,-2.199459076E-2
1.322720781E1,2.578282356E-2,-2.740365267E-2,-2.877330780E-2
1.324510228E1,2.799320221E-2,-3.103025258E-2,-3.387737274E-2
1.326299687E1,3.457427025E-2,-3.362777084E-2,-3.134250641E-2
1.328088792E1,3.467214108E-2,-2.721304446E-2,-1.700305939E-2
1.329878533E1,2.893495560E-2,-2.584355325E-2,-3.129673004E-2
1.331668022E1,2.922666073E-2,-2.337829024E-2,-2.513217926E-2
1.333457427E1,2.493119240E-2,-3.355236351E-2,-2.225208282E-2
1.335246874E1,2.146589756E-2,-3.143700957E-2,-3.178024292E-2
1.337036327E1,3.245842457E-2,-2.408479899E-2,-3.347396851E-2
1.338825865E1,2.201044559E-2,-3.031428903E-2,-2.186393738E-2
1.340615502E1,2.086293697E-2,-2.680549771E-2,-2.212524414E-2
1.342404662E1,1.798880100E-2,-2.351907641E-2,-2.649021149E-2
1.344194090E1,2.421104908E-2,-2.153053135E-2,-2.180671692E-2
1.345983550E1,3.118085861E-2,-2.125511318E-2,-2.775669098E-2
1.347772704E1,2.010583878E-2,-2.912973613E-2,-2.687454224E-2
1.349562407E1,2.396214008E-2,-2.720240504E-2,-3.067874908E-2
1.351350664E1,2.534031868E-2,-2.392216772E-2,-2.041149139E-2
1.353141020E1,2.255308628E-2,-2.439127117E-2,-2.669906616E-2
1.354929619E1,2.473056316E-2,-2.529655397E-2,-2.915000916E-2
1.356720214E1,2.650547028E-2,-2.148067206E-2,-1.918220520E-2
1.358509715E1,2.506721020E-2,-3.355945647E-2,-1.780033112E-2
1.360299071E1,2.283918858E-2,-2.723223716E-2,-1.606273651E-2
1.362088805E1,2.088439465E-2,-2.936092764E-2,-2.755546570E-2
1.363877977E1,2.700996399E-2,-2.785726637E-2,-2.945899963E-2
1.365667406E1,2.769529819E-2,-2.744551003E-2,-2.895164490E-2
1.367456835E1,2.864789963E-2,-3.095514327E-2,-1.815700531E-2
1.369246312E1,2.339375019E-2,-2.587980777E-2,-2.002334595E-2
1.371035741E1,2.589631081E-2,-2.841701359E-2,-2.576446533E-2
1.372825188E1,1.833152771E-2,-2.180617303E-2,-1.772689819E-2
1.374614897E1,1.812982559E-2,-2.676036209E-2,-1.960182190E-2
1.376404076E1,2.024471760E-2,-2.316664159E-2,-2.655124664E-2
1.378193511E1,1.962566376E-2,-2.552778274E-2,-2.636241913E-2
1.379981792E1,3.535163403E-2,-2.345030010E-2,-2.193737030E-2
1.381772417E1,2.306723595E-2,-2.094661444E-2,-2.671909332E-2
1.383561846E1,2.306079865E-2,-2.232461423E-2,-2.343940735E-2
1.385350072E1,2.033936977E-2,-2.802540362E-2,-2.065944672E-2
1.387140416E1,2.436375618E-2,-2.830725908E-2,-2.515316010E-2
1.388929198E1,2.692103386E-2,-1.971761137E-2,-1.732158661E-2
1.390719609E1,2.245223522E-2,-2.699784935E-2,-1.922416687E-2
1.392509032E1,2.780127525E-2,-2.412851155E-2,-2.265644073E-2
1.394298204E1,2.476298809E-2,-2.109773457E-2,-2.556991577E-2
1.396087938E1,2.474224567E-2,-1.815138757E-2,-1.294517517E-2
1.397877391E1,1.749920845E-2,-2.525641024E-2,-1.766395569E-2
1.399667150E1,3.293728828E-2,-1.915302128E-2,-2.407646179E-2
1.401456255E1,2.059209347E-2,-2.595481277E-2,-2.743148804E-2
1.403245732E1,2.795040607E-2,-2.652727067E-2,-1.880931854E-2
1.405034007E1,2.356410027E-2,-2.132096142E-2,-3.045845032E-2
1.406823528E1,2.517521381E-2,-2.151364833E-2,-2.090167999E-2
1.408612731E1,1.526558399E-2,-2.705389261E-2,-2.076244354E-2
1.410403783E1,1.673853397E-2,-2.774397284E-2,-2.719688416E-2
1.412192906E1,2.957975864E-2,-2.437819541E-2,-2.712440491E-2
1.413982378E1,2.475905418E-2,-1.918900013E-2,-2.356243134E-2
1.415771825E1,2.456951141E-2,-1.832648367E-2,-2.085876465E-2
1.417561254E1,2.157580853E-2,-3.076845407E-2,-2.160930634E-2
1.419349486E1,1.614546776E-2,-2.119150758E-2,-2.767562866E-2
1.421140068E1,1.365602016E-2,-2.604757249E-2,-3.045463562E-2
1.422928423E1,2.685248852E-2,-2.795416862E-2,-2.958393097E-2
1.424719084E1,2.572512627E-2,-2.593161166E-2,-2.823448181E-2
1.426508495E1,1.791262627E-2,-2.067963779E-2,-2.064514160E-2
1.428297899E1,2.178561687E-2,-1.871515810E-2,-2.481365204E-2
1.430086186E1,1.900148392E-2,-3.185878694E-2,-2.019119263E-2
1.431876811E1,2.294516563E-2,-3.139721602E-2,-2.997112274E-2
1.433666264E1,2.280521393E-2,-2.743144333E-2,-2.082252502E-2
1.435455687E1,2.077913284E-2,-2.356146276E-2,-2.075004578E-2
1.437245140E1,2.875757217E-2,-2.593395114E-2,-2.225112915E-2
1.439034551E1,2.944314480E-2,-1.954453439E-2,-2.358913422E-2
1.440824022E1,3.008508682E-2,-1.977382600E-2,-2.194786072E-2
1.442613768E1,2.174270153E-2,-2.757746726E-2,-2.445316315E-2
1.444402904E1,2.716219425E-2,-2.469537407E-2,-2.075862885E-2
1.446192632E1,2.645981312E-2,-2.303359658E-2,-2.902221680E-2
1.447980590E1,2.067184448E-2,-2.495647967E-2,-2.123832703E-2
1.449771245E1,2.608525753E-2,-2.575404197E-2,-3.316593170E-2
1.451560668E1,1.827168465E-2,-2.234463394E-2,-2.294540405E-2
1.453348924E1,1.629149914E-2,-2.780164778E-2,-3.022384644E-2
1.455139549E1,1.760268211E-2,-1.615478843E-2,-2.383232117E-2
1.456927831E1,2.480018139E-2,-2.303314954E-2,-2.638530731E-2
1.458718724E1,2.750051022E-2,-2.607731521E-2,-3.500080109E-2
1.460507860E1,1.356458664E-2,-2.537768334E-2,-2.621269226E-2
1.462297307E1,2.600657940E-2,-1.752363890E-2,-2.555656433E-2
1.464086766E1,2.274370193E-2,-2.701002359E-2,-2.005958557E-2
1.465876219E1,1.970171928E-2,-2.127847821E-2,-2.889728546E-2
1.467665349E1,1.770412922E-2,-2.479374409E-2,-1.877117157E-2
1.469455101E1,2.174699306E-2,-2.627044916E-2,-2.150821686E-2
1.471244548E1,2.327430248E-2,-3.004782647E-2,-2.859783173E-2
1.473033959E1,1.643085480E-2,-2.029398084E-2,-2.315902710E-2
1.474823412E1,1.892840862E-2,-2.263776213E-2,-2.406215668E-2
1.476613158E1,2.185165882E-2,-2.561297268E-2,-3.106212616E-2
1.478402324E1,2.353131771E-2,-2.517543733E-2,-2.630615234E-2
1.480191753E1,1.803433895E-2,-2.389710397E-2,-2.126121521E-2
1.481981206E1,1.446783543E-2,-2.205984294E-2,-2.050018311E-2
1.483770665E1,2.086710930E-2,-2.410387993E-2,-1.990795135E-2
1.485559569E1,1.476061344E-2,-2.575384825E-2,-1.642894745E-2
1.487348314E1,2.642583847E-2,-1.894502342E-2,-2.825927734E-2
1.489138744E1,2.054679394E-2,-2.316258848E-2,-2.379417419E-2
1.490927367E1,1.811420918E-2,-2.679708600E-2,-1.863574982E-2
1.492717742E1,2.481746674E-2,-1.786536723E-2,-2.300453186E-2
1.494506096E1,2.258145809E-2,-2.737922966E-2,-3.120326996E-2
1.496296733E1,2.452385426E-2,-2.110252529E-2,-2.312278748E-2
1.498086180E1,2.205252647E-2,-2.286548913E-2,-2.631092072E-2
1.499875633E1,2.129375935E-2,-2.921131253E-2,-2.380275726E-2
1.501665086E1,2.738010883E-2,-2.602851391E-2,-2.439403534E-2
1.503454491E1,2.242386341E-2,-1.949970424E-2,-2.507877350E-2
1.505243950E1,1.830399036E-2,-2.655740082E-2,-2.743148804E-2
1.507033397E1,1.361548901E-2,-1.651813090E-2,-2.919673920E-2
1.508823155E1,2.059495449E-2,-1.809735596E-2,-2.339172363E-2
1.510612285E1,1.883339882E-2,-1.875893772E-2,-2.645397186E-2
1.512401732E1,1.832318306E-2,-1.620113850E-2,-2.156448364E-2
1.514190880E1,2.683138847E-2,-2.365883440E-2,-2.514362335E-2
1.515980614E1,2.657234669E-2,-2.247765660E-2,-3.043174744E-2
1.517770073E1,2.377092838E-2,-2.198666334E-2,-2.059745789E-2
1.519559471E1,2.471768856E-2,-1.843933016E-2,-3.042030334E-2
1.521347710E1,1.858258247E-2,-2.028903365E-2,-1.959800720E-2
1.523138304E1,3.035664558E-2,-2.006389946E-2,-1.833152771E-2
1.524926634E1,2.254891396E-2,-1.992756128E-2,-2.241992950E-2
1.526716924E1,2.774679661E-2,-1.580166072E-2,-2.564239502E-2
1.528506725E1,1.735043526E-2,-2.162784338E-2,-2.910232544E-2
1.530296141E1,1.835274696E-2,-1.281582564E-2,-2.464103699E-2
1.532084386E1,2.503108978E-2,-1.944473386E-2,-1.911354065E-2
1.533875054E1,2.655231953E-2,-2.181827277E-2,-3.575229645E-2
1.535664476E1,2.523219585E-2,-1.654434949E-2,-2.264118195E-2
1.537453905E1,2.752828598E-2,-2.229026705E-2,-2.555370331E-2
1.539243358E1,2.374231815E-2,-1.707788557E-2,-2.273368835E-2
1.541032988E1,2.197277546E-2,-1.570274681E-2,-1.961040497E-2
1.542822234E1,3.038871288E-2,-9.589523077E-3,-2.041721344E-2
1.544611986E1,2.604448795E-2,-1.428375393E-2,-2.646446228E-2
1.546401140E1,1.713144779E-2,-1.250050217E-2,-2.303504944E-2
1.548190544E1,2.183842659E-2,-2.105930448E-2,-1.587200165E-2
1.549980004E1,1.918613911E-2,-1.930256188E-2,-2.461433411E-2
1.551769298E1,2.313828468E-2,-2.136144042E-2,-2.096939087E-2
1.553558916E1,1.393902302E-2,-2.073161304E-2,-2.590179443E-2
1.555347948E1,1.974141598E-2,-2.397328615E-2,-2.831935883E-2
1.557137352E1,2.041816711E-2,-1.819334924E-2,-2.132701874E-2
1.558926018E1,1.966166496E-2,-1.847799867E-2,-1.761245728E-2
1.560715062E1,2.324926853E-2,-2.240724117E-2,-2.951812744E-2
1.562506102E1,1.610672474E-2,-1.765220612E-2,-3.015136719E-2
1.564295561E1,2.191054821E-2,-2.058842033E-2,-3.039073944E-2
1.566085277E1,2.124488354E-2,-1.357819885E-2,-2.862071991E-2
1.567874413E1,2.535331249E-2,-1.842429489E-2,-2.618026733E-2
1.569663896E1,2.074611187E-2,-1.129049808E-2,-2.472114563E-2
1.571453294E1,2.022576332E-2,-2.341558784E-2,-2.443408966E-2
1.573242772E1,2.180075645E-2,-2.587276697E-2,-2.044200897E-2
1.575032506E1,2.315127850E-2,-1.389231533E-2,-2.618312836E-2
1.576821630E1,2.365267277E-2,-1.413152367E-2,-2.588367462E-2
1.578611370E1,1.736736298E-2,-1.574458927E-2,-1.709842682E-2
1.580400542E1,2.283346653E-2,-2.207957953E-2,-2.213764191E-2
1.582189964E1,2.211844921E-2,-2.158171684E-2,-3.051185608E-2
1.583979424E1,2.209043503E-2,-1.358903199E-2,-2.044105530E-2
1.585768852E1,1.858317852E-2,-2.323236316E-2,-2.043819427E-2
1.587557622E1,2.092802525E-2,-1.710721850E-2,-2.668571472E-2
1.589347954E1,1.849949360E-2,-1.105464995E-2,-2.712726593E-2
1.591136901E1,2.086973190E-2,-2.475867420E-2,-2.128982544E-2
1.592925438E1,2.298092842E-2,-1.081357151E-2,-2.354145050E-2
1.594716307E1,1.788604259E-2,-2.547488362E-2,-2.267360687E-2
1.596505516E1,1.191198826E-2,-1.903185248E-2,-2.651119232E-2
1.598295000E1,1.768517494E-2,-1.426021755E-2,-2.596282959E-2
1.600084398E1,1.747000217E-2,-1.946851611E-2,-3.102588654E-2
1.601873833E1,1.427578926E-2,-1.839376241E-2,-2.295589447E-2
1.603663280E1,1.524496078E-2,-1.478670537E-2,-3.227329254E-2
1.605452715E1,2.151381969E-2,-2.193089575E-2,-1.926326752E-2
1.607241875E1,2.280247211E-2,-1.852900535E-2,-3.358173370E-2
1.609031597E1,2.049863338E-2,-1.557770371E-2,-2.549457550E-2
1.610819853E1,1.925885677E-2,-2.459976077E-2,-3.194522858E-2
1.612610771E1,1.464152336E-2,-2.521748096E-2,-2.641105652E-2
1.614399901E1,1.381373405E-2,-2.106364816E-2,-2.548313141E-2
1.616189354E1,1.212632656E-2,-1.633396000E-2,-2.543258667E-2
1.617978813E1,1.642298698E-2,-1.322593540E-2,-2.424907684E-2
1.619768273E1,2.303671837E-2,-1.347995549E-2,-2.450656891E-2
1.621557927E1,2.020215988E-2,-2.244428545E-2,-1.984214783E-2
1.623347948E1,2.203965187E-2,-2.563921362E-2,-3.369235992E-2
1.625136553E1,1.706659794E-2,-1.891980320E-2,-2.468204498E-2
1.626924803E1,1.688539982E-2,-1.304802299E-2,-3.208637238E-2
1.628715477E1,1.630902290E-2,-1.708433777E-2,-2.626419067E-2
1.630504906E1,1.647222042E-2,-1.536062360E-2,-2.420997620E-2
1.632294365E1,1.832568645E-2,-1.098351181E-2,-2.070236206E-2
1.634082311E1,1.887655258E-2,-1.685873419E-2,-2.599143982E-2
1.635873241E1,1.769077778E-2,-1.708995551E-2,-2.227401733E-2
1.637662700E1,1.940369606E-2,-1.407560706E-2,-2.336978912E-2
1.639452098E1,2.102327347E-2,-1.742628962E-2,-3.320312500E-2
1.641241576E1,2.194547653E-2,-1.102756709E-2,-2.850723267E-2
1.643031005E1,1.864087582E-2,-1.322553307E-2,-2.218341827E-2
1.644820439E1,1.723420620E-2,-2.417346835E-2,-2.506637573E-2
1.646610179E1,2.343487740E-2,-2.048842609E-2,-2.752399445E-2
1.648399346E1,1.806247234E-2,-1.551628858E-2,-2.618503571E-2
1.650188744E1,1.823782921E-2,-1.303072274E-2,-1.823425293E-2
1.651977416E1,1.905190945E-2,-1.723471284E-2,-2.575588226E-2
1.653767656E1,1.774370670E-2,-2.002728730E-2,-2.992820740E-2
1.655557085E1,1.648259163E-2,-1.859871298E-2,-1.956081390E-2
1.657346147E1,2.062928677E-2,-1.925552636E-2,-2.291488647E-2
1.659136290E1,1.325297356E-2,-1.832032204E-2,-2.787017822E-2
1.660924205E1,1.750397682E-2,-1.495043188E-2,-2.349853516E-2
1.662715318E1,1.734733582E-2,-1.477256417E-2,-2.200126648E-2
1.664504302E1,2.107036114E-2,-1.389800757E-2,-2.499771118E-2
1.666293749E1,1.773440838E-2,-1.050779969E-2,-2.886295319E-2
1.668083440E1,1.493430138E-2,-1.825764030E-2,-2.680301666E-2
1.669872630E1,1.634478569E-2,-1.190491021E-2,-2.741432190E-2
1.671662065E1,1.656234264E-2,-1.552738249E-2,-1.922416687E-2
1.673451488E1,1.656949520E-2,-1.759628206E-2,-2.444076538E-2
1.675240935E1,2.094280720E-2,-9.493984282E-3,-2.659511566E-2
1.677030370E1,2.164232731E-2,-1.339176297E-2,-3.231048584E-2
1.678819847E1,1.229512691E-2,-1.503430307E-2,-2.133178711E-2
1.680609276E1,2.137613297E-2,-1.644098759E-2,-2.320957184E-2
1.682398735E1,1.960933208E-2,-1.858525723E-2,-2.321434021E-2
1.684188133E1,1.483225822E-2,-9.345427155E-3,-2.947807312E-2
1.685977586E1,1.428222656E-2,-1.326222718E-2,-2.178001404E-2
1.687767021E1,1.633501053E-2,-1.135876030E-2,-2.309703827E-2
1.689556493E1,1.720952988E-2,-1.429037005E-2,-2.140903473E-2
1.691345043E1,1.709091663E-2,-2.090513706E-2,-2.146053314E-2
1.693135381E1,2.029871941E-2,-1.708068699E-2,-2.165031433E-2
1.694923595E1,1.460421085E-2,-9.580485523E-3,-3.314018250E-2
1.696714287E1,2.010035515E-2,-8.241474628E-3,-3.425502777E-2
1.698503685E1,2.066981792E-2,-2.149574459E-2,-2.373409271E-2
1.700293163E1,1.712536812E-2,-1.842506230E-2,-2.547931671E-2
1.702082561E1,1.443231106E-2,-1.681175083E-2,-2.217388153E-2
1.703872020E1,2.022147179E-2,-1.590361446E-2,-1.966094971E-2
1.705661467E1,1.845848560E-2,-8.514299989E-3,-2.437686920E-2
1.707449407E1,2.251374722E-2,-1.803335547E-2,-2.791309357E-2
1.709240312E1,1.353967190E-2,-1.127377152E-2,-2.733898163E-2
1.711030071E1,2.099764347E-2,-1.609533280E-2,-2.580165863E-2
1.712819212E1,1.444363594E-2,-2.521897107E-2,-2.123928070E-2
1.714608983E1,1.646554470E-2,-1.661345363E-2,-2.339553833E-2
1.716398125E1,1.441037655E-2,-1.015050709E-2,-3.175258636E-2
1.718187548E1,2.245235443E-2,-1.665674150E-2,-2.716732025E-2
1.719976982E1,1.447689533E-2,-1.219689846E-2,-2.957725525E-2
1.721766435E1,1.597774029E-2,-1.004186273E-2,-3.048801422E-2
1.723555858E1,2.272737026E-2,-1.553154737E-2,-2.800464630E-2
1.725345043E1,1.394104958E-2,-1.842354238E-2,-2.731609344E-2
1.727133568E1,1.261496544E-2,-1.871901751E-2,-2.317523956E-2
1.728922997E1,8.659958839E-3,-1.277039200E-2,-2.486228943E-2
1.730712419E1,6.265163422E-3,-7.644131780E-3,-3.168487549E-2
1.732503368E1,2.003073692E-2,-1.534229517E-2,-1.766014099E-2
1.734291509E1,2.264392376E-2,-1.524434984E-2,-2.097702026E-2
1.736081963E1,1.842582226E-2,-1.806528866E-2,-2.040386200E-2
1.737871416E1,1.144039631E-2,-2.094562352E-2,-2.561664581E-2
1.739660845E1,1.635241508E-2,-1.572300494E-2,-3.213024139E-2
1.741450597E1,1.881051064E-2,-1.655894518E-2,-2.900028229E-2
1.743239720E1,1.886618137E-2,-2.109628171E-2,-1.970100403E-2
1.745029149E1,1.281869411E-2,-1.466338336E-2,-2.324295044E-2
1.746818596E1,1.888287067E-2,-2.277608216E-2,-2.651214600E-2
1.748608330E1,1.591372490E-2,-1.491501927E-2,-2.709484100E-2
1.750397515E1,1.632165909E-2,-1.708244532E-2,-2.957820892E-2
1.752186943E1,2.342104912E-2,-1.347327977E-2,-2.335834503E-2
1.753974632E1,8.822202682E-3,-2.138308436E-2,-3.397846222E-2
1.755765825E1,1.921081543E-2,-1.111560315E-2,-2.652168274E-2
1.757555278E1,9.240984917E-3,-1.547761261E-2,-2.272987366E-2
1.759344701E1,1.226687431E-2,-2.056151628E-2,-2.686786652E-2
1.761134410E1,1.726329327E-2,-1.532246172E-2,-3.478431702E-2
1.762923143E1,1.929318905E-2,-1.241429895E-2,-2.704143524E-2
1.764713036E1,1.636588573E-2,-6.423711777E-3,-3.076648712E-2
1.766502465E1,1.161527634E-2,-1.460886747E-2,-2.651405334E-2
1.768291918E1,1.971113682E-2,-1.251310110E-2,-1.876735687E-2
1.770081322E1,1.984143257E-2,-1.494291425E-2,-2.510643005E-2
1.771870799E1,1.587212086E-2,-1.392618567E-2,-2.909469604E-2
1.773660332E1,1.879954338E-2,-1.201176643E-2,-1.554298401E-2
1.775449657E1,2.085638046E-2,-1.286853105E-2,-2.943515778E-2
1.777239110E1,1.459240913E-2,-9.254604578E-3,-3.597927094E-2
1.779028819E1,1.782584190E-2,-8.447535336E-3,-2.563762665E-2
1.780817961E1,1.747965813E-2,-1.538746804E-2,-2.512836456E-2
1.782607744E1,1.760864258E-2,-1.562602818E-2,-2.581787109E-2
1.784396904E1,1.452291012E-2,-1.462603360E-2,-2.131175995E-2
1.786186327E1,1.057446003E-2,-1.740184426E-2,-1.833343506E-2
1.787975762E1,1.963067055E-2,-1.090934873E-2,-1.277065277E-2
1.789765215E1,1.853168011E-2,-9.312510490E-3,-2.117538452E-2
1.791554613E1,1.634538174E-2,-1.105426997E-2,-2.783966064E-2
1.793344097E1,1.836347580E-2,-1.742588729E-2,-2.372264862E-2
1.795133525E1,1.821482182E-2,-2.431531250E-2,-2.612686157E-2
1.796921098E1,1.933085918E-2,-9.576179087E-3,-2.161121368E-2
1.798712407E1,2.267658710E-2,-1.311612874E-2,-2.761077881E-2
1.800501244E1,1.929163933E-2,-1.679940522E-2,-1.877784729E-2
1.802291307E1,1.789355278E-2,-1.928135753E-2,-3.300189972E-2
1.804080712E1,1.149141788E-2,-9.009085596E-3,-2.055263519E-2
1.805870165E1,1.776444912E-2,-1.958753169E-2,-2.807235718E-2
1.807659886E1,1.779508591E-2,-1.459018886E-2,-3.100395203E-2
1.809449046E1,1.233279705E-2,-1.538970321E-2,-2.228164673E-2
1.811238518E1,2.275943756E-2,-8.393041790E-3,-2.857208252E-2
1.813027904E1,1.749169827E-2,-2.007728070E-2,-3.083038330E-2
1.814817528E1,1.433551311E-2,-1.044508815E-2,-2.569389343E-2
1.816607122E1,1.380515099E-2,-1.427935809E-2,-2.609825134E-2
1.818396239E1,1.473748684E-2,-1.149959117E-2,-3.430366516E-2
1.820185478E1,1.146769524E-2,-7.817760110E-3,-3.140354156E-2
1.821975121E1,1.903831959E-2,-7.513821125E-3,-1.806640625E-2
1.823764580E1,1.418423653E-2,-9.805098176E-3,-2.172660828E-2
1.825554003E1,1.168906689E-2,-1.727773249E-2,-1.840496063E-2
1.827343431E1,1.844537258E-2,-1.267109811E-2,-2.789402008E-2
1.829132884E1,1.691520214E-2,-1.247245073E-2,-2.276134491E-2
1.830921086E1,1.575827599E-2,-1.220643520E-2,-2.828407288E-2
1.832711766E1,1.396989822E-2,-1.550686359E-2,-2.104282379E-2
1.834501201E1,1.566648483E-2,-1.613048464E-2,-1.556587219E-2
1.836290648E1,2.053689957E-2,-1.080807298E-2,-2.599239349E-2
1.838079125E1,5.120038986E-3,-1.333341002E-2,-1.389694214E-2
1.839869560E1,1.486194134E-2,-4.707038403E-3,-2.699279785E-2
1.841658983E1,1.769173145E-2,-1.039594412E-2,-2.559566498E-2
1.843448412E1,2.480506897E-2,-1.342859864E-2,-3.148174286E-2
1.845237865E1,1.829767227E-2,-1.928817481E-2,-3.241157532E-2
1.847026103E1,1.215815544E-2,-1.194621623E-2,-2.173709869E-2
1.848816747E1,1.974773407E-2,-1.493781805E-2,-2.667999268E-2
1.850606499E1,1.393032074E-2,-7.099591196E-3,-1.901912689E-2
1.852395622E1,1.802062988E-2,-4.542768002E-4,-2.853298187E-2
1.854185063E1,1.383435726E-2,-7.937148213E-3,-2.464962006E-2
1.855974510E1,1.358866692E-2,-1.293835044E-2,-2.564430237E-2
1.857764256E1,1.576972008E-2,-5.819179118E-3,-3.037548065E-2
1.859553392E1,1.866424084E-2,-9.274423122E-3,-3.282546997E-2
1.861342839E1,1.533365250E-2,-1.499406993E-2,-2.672290802E-2
1.863132274E1,1.666474342E-2,-1.401174068E-2,-2.948188782E-2
1.864920506E1,1.300370693E-2,-3.396935761E-3,-1.577281952E-2
1.866711162E1,1.225626469E-2,-2.361893654E-2,-2.546691895E-2
1.868500609E1,1.335883141E-2,-9.971842170E-3,-3.551292419E-2
1.870290038E1,1.943278313E-2,-1.528179646E-2,-2.545928955E-2
1.872079472E1,1.627254486E-2,-7.005430758E-3,-2.789974213E-2
1.873868895E1,2.290546894E-2,-1.214048266E-2,-2.407836914E-2
1.875658348E1,1.427221298E-2,-1.474539936E-2,-2.212429047E-2
1.877447777E1,1.628625393E-2,-1.039091498E-2,-1.921176910E-2
1.879237261E1,1.736485958E-2,-1.419112831E-2,-3.028392792E-2
1.881026958E1,1.116967201E-2,-1.579282433E-2,-3.013229370E-2
1.882816106E1,1.119065285E-2,-1.702520251E-2,-2.427196503E-2
1.884605864E1,1.897513866E-2,-1.344997436E-2,-2.673721313E-2
1.886395000E1,2.238249779E-2,-1.027686149E-2,-3.053092957E-2
1.888184423E1,1.765978336E-2,-1.648292691E-2,-2.747726440E-2
1.889973906E1,1.133060455E-2,-1.370643824E-2,-2.278709412E-2
1.891763335E1,1.512455940E-2,-1.860395074E-2,-3.132629395E-2
1.893552477E1,1.017844677E-2,-6.215915084E-3,-2.717685699E-2
1.895342210E1,1.748442650E-2,-9.548626840E-3,-2.406978607E-2
1.897131639E1,1.389634609E-2,-7.633782923E-3,-2.866649628E-2
1.898919408E1,1.771545410E-2,-1.001560688E-2,-1.879405975E-2
1.900710533E1,2.327311039E-2,-1.900149137E-2,-2.420997620E-2
1.902499974E1,5.324840546E-3,-1.265603304E-2,-2.592754364E-2
1.904289409E1,2.639639378E-2,-4.134736955E-3,-2.480602264E-2
1.906078832E1,1.048386097E-2,-7.018677890E-3,-2.615833282E-2
1.907868590E1,1.269483566E-2,-7.134020329E-3,-1.868247986E-2
1.909657451E1,1.648652554E-2,-1.087324321E-2,-2.326774597E-2
1.911445952E1,1.657056808E-2,-9.056769311E-3,-2.005767822E-2
1.913236620E1,1.741862297E-2,-1.370989531E-2,-2.563190460E-2
1.915026048E1,1.618778706E-2,-1.188916713E-2,-2.484607697E-2
1.916815496E1,1.590549946E-2,-9.368754923E-3,-2.428627014E-2
1.918605223E1,1.165401936E-2,-9.631812572E-3,-2.176475525E-2
1.920393163E1,1.282000542E-2,-1.641221344E-3,-2.200889587E-2
1.922183812E1,1.427352428E-2,-1.376640797E-2,-2.512454987E-2
1.923973271E1,1.437759399E-2,-7.158957422E-3,-2.050304413E-2
1.925762700E1,1.348125935E-2,-9.878046811E-3,-2.837371826E-2
1.927552129E1,1.571714878E-2,-7.731437683E-3,-2.669715881E-2
1.929341576E1,1.638126373E-2,-6.941162050E-3,-1.948833466E-2
1.931131029E1,1.196658611E-2,-1.052889228E-2,-2.252101898E-2
1.932919402E1,1.523554325E-2,-1.158638299E-2,-2.965068817E-2
1.934709935E1,1.262223721E-2,-2.211468667E-2,-2.111053467E-2
1.936499346E1,1.204836369E-2,-7.299102843E-3,-3.085327148E-2
1.938288774E1,7.631063461E-3,-5.989558995E-3,-1.448726654E-2
1.940077940E1,6.745100021E-3,-8.689440787E-3,-2.840232849E-2
1.941867680E1,2.026879787E-2,-1.121602952E-2,-1.826095581E-2
1.943657109E1,1.136374474E-2,-1.245770603E-2,-2.314281464E-2
1.945446514E1,1.471018791E-2,-8.651040494E-3,-2.519226074E-2
1.947235960E1,1.439535618E-2,-8.461654186E-3,-1.746273041E-2
1.949025389E1,1.118540764E-2,-3.909647465E-3,-2.601146698E-2
1.950814867E1,1.561486721E-2,-1.064942777E-2,-2.829456329E-2
1.952604497E1,1.753365993E-2,-8.355379105E-3,-2.191257477E-2
1.954393749E1,1.777386665E-2,-1.146198809E-2,-2.365303040E-2
1.956183183E1,2.250862122E-2,-1.248723269E-2,-2.600574493E-2
1.957972606E1,2.302968502E-2,-6.149202585E-3,-2.282619476E-2
1.959760619E1,6.204605103E-3,-7.146544755E-3,-2.948760986E-2
1.961551518E1,1.602840424E-2,-9.017087519E-3,-2.316284180E-2
1.963340941E1,1.386213303E-2,-1.561587304E-2,-2.466487885E-2
1.965130302E1,1.087737083E-2,-1.371043921E-2,-2.939319611E-2
1.966918212E1,1.751863956E-2,-8.936099708E-3,-2.657794952E-2
1.968709276E1,1.860618591E-2,-1.201891899E-2,-2.122306824E-2
1.970498717E1,2.240169048E-2,-8.034877479E-3,-2.683067322E-2
1.972288164E1,1.964199543E-2,-9.285189211E-3,-2.433681488E-2
1.974077568E1,8.805632591E-3,-1.309882849E-2,-2.598667145E-2
1.975867046E1,1.434767246E-2,-1.027484983E-2,-2.525997162E-2
1.977656236E1,9.374260902E-3,-9.013034403E-3,-3.116226196E-2
1.979445903E1,1.441442966E-2,-8.165694773E-3,-2.010250092E-2
1.981235356E1,1.208233833E-2,-1.158411801E-2,-2.920341492E-2
1.983024773E1,1.409900188E-2,-5.117759109E-3,-2.284240723E-2
1.984814226E1,8.604407310E-3,-9.614728391E-3,-2.677917480E-2
1.986603655E1,1.025772095E-2,-8.123859763E-3,-3.729724884E-2
1.988393114E1,1.407301426E-2,-4.960887134E-3,-2.449607849E-2
1.990182536E1,1.137673855E-2,-1.015941799E-2,-1.283836365E-2
1.991972002E1,1.556873322E-2,-1.638492942E-2,-2.407741547E-2
1.993760332E1,1.507914066E-2,-8.410833776E-3,-2.406597137E-2
1.995550859E1,2.256727219E-2,-9.782098234E-3,-2.170848846E-2
1.997340312E1,1.348626614E-2,-7.151402533E-3,-3.046321869E-2
1.999129833E1,1.349520683E-2,-1.138217747E-2,-2.503871918E-2
2.000918266E1,1.263678074E-2,-1.270216703E-2,-3.846740723E-2
2.002708647E1,1.345193386E-2,-1.069434732E-2,-2.589702606E-2
2.004496312E1,1.970446110E-2,-1.088973880E-2,-2.518558502E-2
2.006287236E1,1.379108429E-2,-7.571041584E-3,-3.112983704E-2
2.008076927E1,2.588415146E-2,-1.183069497E-2,-3.082370758E-2
2.009866405E1,1.625514030E-2,-1.938015223E-3,-1.996040344E-2
2.011655834E1,1.206541061E-2,-6.053134799E-3,-3.179073334E-2
2.013445342E1,1.282227039E-2,-1.474399865E-2,-2.624130249E-2
2.015234715E1,1.843845844E-2,-1.302646101E-2,-2.231597900E-2
2.017024126E1,1.107358932E-2,-1.723543555E-2,-2.422332764E-2
2.018813597E1,1.161372662E-2,-6.482519209E-3,-2.614784241E-2
2.020603319E1,1.178419590E-2,-1.254708320E-2,-2.981948853E-2
2.022392479E1,1.694357395E-2,-8.381314576E-3,-2.750396729E-2
2.024181609E1,1.792359352E-2,-1.610077173E-2,-1.608181000E-2
2.025971361E1,1.016926765E-2,-1.311392337E-2,-2.345657349E-2
2.027760790E1,1.126253605E-2,-1.682030410E-2,-1.675128937E-2
2.029550218E1,8.918642998E-3,-1.062871516E-2,-2.860546112E-2
2.031339647E1,1.178634167E-2,-4.942476749E-3,-1.881694794E-2
2.033128917E1,1.322948933E-2,-1.106739044E-2,-2.428340912E-2
2.034917528E1,1.371598244E-2,-5.592912436E-3,-1.754379272E-2
2.036707982E1,1.246452332E-2,-1.432640851E-2,-3.752040863E-2
2.038497435E1,1.356804371E-2,-7.449470460E-3,-1.352787018E-2
2.040285991E1,2.582621574E-2,-1.607777923E-2,-2.791118622E-2
2.042076299E1,1.814174652E-2,-7.167235017E-3,-3.230381012E-2
2.043865746E1,1.288723946E-2,-8.095301688E-3,-2.661037445E-2
2.045655199E1,6.351828575E-3,-1.701326668E-2,-2.116298676E-2
2.047444933E1,1.550900936E-2,-1.071475446E-2,-2.489280701E-2
2.049232616E1,2.051293850E-2,-1.109234244E-2,-2.991867065E-2
2.051022356E1,1.098585129E-2,-7.950745523E-3,-2.138519287E-2
2.052811736E1,1.270329952E-2,-9.174481034E-3,-2.305603027E-2
2.054602684E1,1.739287376E-2,-1.804157346E-2,-2.426624298E-2
2.056390410E1,1.195037365E-2,-1.732073724E-2,-2.513217926E-2
2.058181273E1,1.092779636E-2,-8.554525673E-3,-2.508735657E-2
2.059969457E1,1.779818535E-2,-1.306498796E-2,-1.803112030E-2
2.061760161E1,1.571202278E-2,-1.453854144E-2,-3.207683563E-2
2.063549584E1,1.430451870E-2,-1.370470971E-2,-2.443313599E-2
2.065339037E1,7.919788361E-3,-9.849756956E-3,-2.880382538E-2
2.067128203E1,1.656413078E-2,-7.792852819E-3,-2.886199951E-2
2.068917522E1,1.287484169E-2,-6.798118353E-3,-2.989959717E-2
2.070707317E1,9.972214699E-3,-5.978651345E-3,-2.784538269E-2
2.072496800E1,1.691448689E-2,-9.124755859E-3,-3.116321564E-2
2.074286229E1,6.107330322E-3,-1.137505472E-2,-2.621364594E-2
2.076075658E1,8.909463882E-3,-1.346123219E-2,-3.271675110E-2
2.077865093E1,5.759239197E-3,-1.251805574E-2,-1.766109467E-2
2.079654546E1,4.912376404E-3,-1.246012002E-2,-2.226257324E-2
2.081443993E1,1.233065128E-2,-6.924450397E-3,-2.653884888E-2
2.083233452E1,8.735537529E-3,-9.227775037E-3,-3.505992889E-2
2.085023259E1,4.277348518E-3,-1.104727387E-2,-2.380084991E-2
2.086811888E1,6.518006325E-3,-1.768715680E-3,-1.841545105E-2
2.088602049E1,1.319980621E-2,-7.479622960E-3,-1.987743378E-2
2.090391216E1,1.204621792E-2,-8.783861995E-4,-2.576160431E-2
2.092180620E1,1.255667210E-2,-1.326265931E-2,-1.646423340E-2
2.093970366E1,7.697820663E-3,-1.470169425E-2,-2.801418304E-2
2.095759551E1,1.411736012E-2,-6.004512310E-3,-1.927661896E-2
2.097548955E1,1.387536526E-2,-1.242290437E-2,-2.183437347E-2
2.099338396E1,1.157200336E-2,-1.033262163E-2,-2.663421631E-2
2.101127538E1,1.174354553E-2,-5.971938372E-3,-3.098392487E-2
2.102917504E1,1.230406761E-2,-5.015067756E-3,-2.752876282E-2
2.104707036E1,1.113080978E-2,-5.956664681E-3,-3.144264221E-2
2.106494945E1,1.017868519E-2,-9.409271181E-3,-3.419208527E-2
2.108285594E1,1.747810841E-2,-5.422912538E-3,-2.578735352E-2
2.110075316E1,9.416937828E-3,-1.917338371E-2,-2.267360687E-2
2.111864507E1,1.023972034E-2,-5.109459162E-3,-2.897644043E-2
2.113653880E1,1.029837132E-2,-1.027610898E-2,-3.728103638E-2
2.115443334E1,7.228255272E-3,-1.079385728E-2,-2.599906921E-2
2.117232811E1,4.333615303E-3,-5.147971213E-3,-2.492046356E-2
2.119022197E1,9.468317032E-3,-1.937069744E-2,-2.000236511E-2
2.120811693E1,8.628964424E-3,-1.400699466E-2,-2.947425842E-2
2.122601396E1,8.915901184E-3,-1.649165154E-2,-2.929210663E-2
2.124390538E1,8.724689484E-3,-6.493210793E-3,-1.705455780E-2
2.126179985E1,1.608717442E-2,-6.427645683E-3,-1.556205750E-2
2.127969438E1,1.657569408E-2,-6.846301258E-3,-1.366996765E-2
2.129758873E1,9.258031845E-3,-9.485527873E-3,-3.136157990E-2
2.131548296E1,1.222217083E-2,-1.829307526E-2,-3.163814545E-2
2.133336571E1,6.072044373E-3,-2.040661871E-3,-2.607250214E-2
2.135126897E1,1.335322857E-2,-4.737660289E-3,-2.006721497E-2
2.136917497E1,1.533377171E-2,-1.732835174E-2,-2.133655548E-2
2.138706090E1,5.348563194E-3,-6.970465183E-3,-1.803207397E-2
2.140495512E1,1.001226902E-2,-1.331176609E-2,-2.545166016E-2
2.142284960E1,9.265780449E-3,-1.207550615E-2,-1.786804199E-2
2.144074388E1,8.838176727E-3,1.115746796E-3,-2.285194397E-2
2.145863817E1,1.285111904E-2,-3.146633506E-3,-1.978206635E-2
2.147653276E1,7.857561111E-3,-1.179689914E-2,-2.738857269E-2
2.149442699E1,3.490328789E-3,-1.041276753E-2,-3.120517731E-2
2.151232152E1,1.105177402E-2,2.510122955E-3,-1.811313629E-2
2.153021300E1,1.085531712E-2,-1.436127722E-2,-1.614093781E-2
2.154811034E1,1.572585106E-2,-1.722097397E-2,-2.578639984E-2
2.156600780E1,5.734324455E-3,-4.883147776E-3,-2.270126343E-2
2.158389916E1,9.194612503E-3,-4.185177386E-3,-2.701187134E-2
2.160179637E1,1.310753822E-2,-8.337527514E-3,-2.583122253E-2
2.161968779E1,1.807081699E-2,-7.969386876E-3,-2.471256256E-2
2.163758226E1,9.086847305E-3,-7.244370878E-3,-2.934646606E-2
2.165547685E1,1.184821129E-2,-1.762298495E-2,-1.984024048E-2
2.167337114E1,1.480984688E-2,-7.083237171E-3,-3.026771545E-2
2.169126268E1,1.136839390E-2,-5.058616400E-3,-2.910995483E-2
2.170914488E1,1.356399059E-2,-4.841700196E-3,-2.995491028E-2
2.172705443E1,1.408410072E-2,-1.691107452E-2,-2.635002136E-2
2.174494872E1,1.518917084E-2,-7.078476250E-3,-2.725982666E-2
2.176284307E1,8.252739906E-3,-8.451476693E-3,-2.145576477E-2
2.178073760E1,1.573061943E-2,-9.458549321E-3,-2.773666382E-2
2.179861833E1,1.275146008E-2,-1.481056213E-3,-2.004051208E-2
2.181652635E1,1.516294479E-2,-9.943924844E-3,-1.968288422E-2
2.183442070E1,5.597472191E-3,-1.478914171E-2,-1.965045929E-2
2.185231523E1,1.717603207E-2,-6.087251008E-3,-2.028083801E-2
2.187020922E1,1.084136963E-2,-5.179792643E-3,-1.597595215E-2
2.188810399E1,6.131529808E-3,-1.280406117E-2,-2.161312103E-2
2.190599816E1,6.346821785E-3,-1.149003953E-2,-2.159309387E-2
2.192389287E1,1.921164989E-2,-3.888763487E-3,-2.886962891E-2
2.194178710E1,1.068186760E-2,-7.079906762E-3,-3.026199341E-2
2.195968144E1,8.206605911E-3,-9.336240590E-3,-2.186679840E-2
2.197757598E1,9.884715080E-3,-1.183474064E-2,-2.880954742E-2
2.199547045E1,6.140589714E-3,1.834109426E-4,-2.164745331E-2
2.201336479E1,1.109063625E-2,-7.571935654E-3,-2.320289612E-2
2.203125603E1,1.561629772E-2,-2.817660570E-4,-2.394008636E-2
2.204914824E1,1.047945023E-2,-9.257800877E-3,-2.133178711E-2
2.206704729E1,9.626984596E-3,-9.148456156E-3,-2.216625214E-2
2.208494243E1,1.359248161E-2,-1.012410969E-2,-2.742671967E-2
2.210283666E1,1.585543156E-2,-9.148269892E-3,-2.647972107E-2
2.212073100E1,1.442027092E-2,-1.189983636E-2,-2.362155914E-2
2.213862847E1,1.481306553E-2,-6.260007620E-3,-2.868175507E-2
2.215651982E1,1.485884190E-2,-1.202064008E-2,-2.002811432E-2
2.217440215E1,8.607625961E-3,-1.280415803E-2,-2.327919006E-2
2.219230858E1,1.015734673E-2,-9.434983134E-3,-2.074337006E-2
2.221020287E1,1.900267601E-2,-1.523735374E-2,-2.327728271E-2
2.222809740E1,1.546907425E-2,-5.980096757E-3,-2.011013031E-2
2.224599486E1,8.693814278E-3,-9.757488966E-3,-2.860546112E-2
2.226388426E1,1.275408268E-2,-7.521733642E-3,-1.718902588E-2
2.228178050E1,1.006865501E-2,-2.153232694E-3,-2.260303497E-2
2.229967510E1,5.840539932E-3,-6.014719605E-3,-2.582073212E-2
2.231756963E1,6.971716881E-3,-1.057900488E-3,-2.428913116E-2
2.233546385E1,7.911205292E-3,-4.967369139E-3,-2.408790588E-2
2.235335845E1,1.333642006E-2,-9.829185903E-3,-2.567100525E-2
2.237124968E1,1.168489456E-2,-4.479967058E-3,-2.310562134E-2
2.238914519E1,1.658773422E-2,-7.428213954E-3,-1.974773407E-2
2.240704161E1,1.294744015E-2,-1.494371891E-2,-2.881336212E-2
2.242493602E1,1.329123974E-2,-4.635788500E-3,-2.910804749E-2
2.244283006E1,1.498293877E-2,-8.364826441E-3,-2.144622803E-2
2.246072209E1,1.294624805E-2,-1.359540224E-2,-1.867866516E-2
2.247861919E1,6.752610207E-3,-5.222000182E-3,-2.323913574E-2
2.249651341E1,1.353061199E-2,-7.262468338E-3,-2.370548248E-2
2.251440776E1,1.013278961E-2,-8.501648903E-3,-2.426147461E-2
2.253230199E1,1.730132103E-2,-8.946292102E-3,-2.089500427E-2
2.255019628E1,1.173758507E-2,-2.012565732E-3,-2.753925323E-2
2.256809398E1,1.706194878E-2,-8.922010660E-3,-2.420997620E-2
2.258598833E1,1.078510284E-2,-6.636448205E-3,-2.633285522E-2
2.260388274E1,1.062810421E-2,2.038829029E-3,-1.795005798E-2
2.262177416E1,7.312893867E-3,-1.181542128E-2,-2.234363556E-2
2.263965648E1,1.173043251E-2,-1.159901917E-2,-2.261924744E-2
2.265756304E1,1.180756092E-2,-5.567282438E-3,-2.676391602E-2
2.267545726E1,7.307529449E-3,-7.267393172E-3,-3.481006622E-2
2.269335185E1,1.187527180E-2,-9.953930974E-3,-2.541446686E-2
2.271124541E1,9.781718254E-3,4.994869232E-5,-2.545070648E-2
2.272912621E1,1.323425770E-2,-8.131057024E-3,-2.918434143E-2
2.274703508E1,6.276965141E-3,-5.245313048E-3,-2.335166931E-2
2.276492943E1,1.498162746E-2,-7.960967720E-3,-2.448558807E-2
2.278282408E1,1.499438286E-2,-2.317585051E-3,-2.039051056E-2
2.280071831E1,1.847004890E-2,1.698441803E-3,-2.824115753E-2
2.281861278E1,1.215624809E-2,-1.096405089E-3,-2.593898773E-2
2.283650682E1,6.844162941E-3,-1.037547737E-2,-2.445602417E-2
2.285440007E1,1.065051556E-2,-9.483516216E-3,-2.724170685E-2
2.287229588E1,1.658570766E-2,-1.123578846E-2,-3.030490875E-2
2.289018993E1,5.915760994E-3,-3.844544291E-3,-2.047634125E-2
2.290808440E1,1.300585270E-2,-9.161040187E-3,-2.577114105E-2
2.292597923E1,1.241219044E-2,-5.552828312E-3,-2.982234955E-2
2.294387358E1,1.048767567E-2,-4.152782261E-3,-1.939296722E-2
2.296176775E1,1.395416260E-2,-9.157463908E-3,-2.021217346E-2
2.297966246E1,1.009941101E-2,-4.686504602E-3,-2.201652527E-2
2.299755644E1,1.079833508E-2,7.890164852E-5,-2.372646332E-2
2.301545116E1,2.225518227E-3,-6.699010730E-3,-2.195739746E-2
2.303334545E1,3.783345222E-3,-3.156058490E-3,-2.712821960E-2
2.305124071E1,9.246349335E-3,-1.237748563E-2,-2.675819397E-2
2.306913726E1,9.683847427E-3,-2.204075456E-3,-2.756690979E-2
2.308702855E1,8.863449097E-3,-6.794609129E-3,-3.322315216E-2
2.310492284E1,6.235003471E-3,-5.770325661E-3,-1.292514801E-2
2.312281761E1,1.192939281E-2,-8.982770145E-3,-2.656078339E-2
2.314071166E1,1.143991947E-2,-1.126511395E-2,-2.303886414E-2
2.315860625E1,1.452744007E-2,-1.012181491E-2,-2.906322479E-2
2.317650096E1,9.528994560E-3,-6.252087653E-3,-1.915454865E-2
2.319439476E1,1.265418530E-2,-5.718469620E-4,-1.809501648E-2
2.321228954E1,9.096741676E-3,-7.284596562E-3,-2.365970612E-2
2.323018389E1,8.300065994E-3,-1.070784032E-2,-3.407287598E-2
2.324807836E1,1.395273209E-2,-7.156431675E-3,-2.732658386E-2
2.326597563E1,1.066529751E-2,-2.469189465E-3,-2.293586731E-2
2.328386717E1,9.812474251E-3,-4.270285368E-3,-2.770996094E-2
2.330176146E1,1.335823536E-2,-4.147812724E-4,-2.114391327E-2
2.331965611E1,1.425981522E-2,-9.138047695E-3,-2.509784698E-2
2.333755040E1,9.337544441E-3,-1.281559467E-2,-2.006530762E-2
2.335544450E1,1.219582558E-2,-1.105680317E-2,-2.716350555E-2
2.337333885E1,7.700204849E-3,-4.935152829E-3,-2.057266235E-2
2.339123503E1,2.008241415E-2,-5.552604795E-3,-2.773666382E-2
2.340912792E1,1.026380062E-2,-4.624739289E-3,-2.892303467E-2
2.342702239E1,1.116919518E-2,-7.570266724E-3,-2.258586884E-2
2.344491728E1,1.185786724E-2,1.550853252E-3,-2.139282227E-2
2.346281084E1,1.083159447E-2,-3.495387733E-3,-3.003215790E-2
2.348070537E1,1.332104206E-2,-2.699285746E-3,-3.241062164E-2
2.349859990E1,6.727337837E-3,3.471873701E-3,-2.504348755E-2
2.351649443E1,9.899497032E-3,-8.774749935E-3,-2.539348602E-2
2.353439159E1,6.717920303E-3,-6.128549576E-3,-3.326702118E-2
2.355228325E1,1.950848103E-2,-8.253075182E-3,-2.398014069E-2
2.357017717E1,1.365935802E-2,-2.305567265E-3,-3.655910492E-2
2.358805712E1,3.782033920E-3,-7.480718195E-3,-3.234863281E-2
2.360596929E1,9.472131729E-3,-3.606610000E-3,-3.222465515E-2
2.362386089E1,7.900595665E-3,-8.021250367E-3,-2.857589722E-2
2.364175542E1,3.292441368E-3,-9.209766984E-3,-2.811813354E-2
2.365963390E1,8.872151375E-3,-8.212551475E-3,-1.850605011E-2
2.367754399E1,7.889509201E-3,-1.888051629E-3,-3.025913239E-2
2.369543828E1,3.122687340E-3,-8.569881320E-4,-3.323745728E-2
2.371332982E1,6.537795067E-3,-4.275262356E-3,-2.431011200E-2
2.373121446E1,7.692337036E-3,-5.877912045E-4,-2.261447906E-2
2.374910967E1,9.434223175E-3,-9.841367602E-3,-2.333545685E-2
2.376700340E1,1.170885563E-2,-9.069614112E-3,-2.947425842E-2
2.378491039E1,9.840369225E-3,-2.130925655E-3,-2.732372284E-2
2.380280474E1,9.336829185E-3,-6.349466741E-3,-2.687644958E-2
2.382069902E1,5.982398987E-3,-3.919191658E-3,-2.260684967E-2
2.383859349E1,1.346313953E-2,-6.965696812E-4,-1.853370667E-2
2.385648808E1,1.087796688E-2,-6.133869290E-3,-1.701927185E-2
2.387438237E1,9.408831596E-3,-8.078351617E-3,-3.574657440E-2
2.389227660E1,4.788279533E-3,-2.652704716E-4,-1.761817932E-2
2.391017174E1,1.130580902E-3,3.511883318E-3,-2.676677704E-2
2.392806517E1,4.416584969E-3,-4.311628640E-3,-1.397514343E-2
2.394596300E1,1.035833359E-2,2.249926329E-3,-2.212619781E-2
2.396385454E1,6.870746613E-3,-8.300803602E-3,-2.358245850E-2
2.398174883E1,1.434671879E-2,-2.868875861E-3,-2.272891998E-2
2.399964482E1,-1.325130463E-3,-2.724677324E-5,-2.823543549E-2
2.401753740E1,2.087354660E-3,-3.824345767E-3,-1.928234100E-2
2.403543212E1,1.507866383E-2,-3.118403256E-3,-1.577758789E-2
2.405332323E1,1.212942600E-2,-1.392811537E-3,-2.489852905E-2
2.407121868E1,3.205180168E-3,-4.543505609E-3,-2.426624298E-2
2.408910326E1,-1.358270645E-3,-1.094639301E-4,-2.151012421E-2
2.410700945E1,1.294076443E-2,-3.145232797E-3,-2.377033234E-2
2.412490648E1,1.108372211E-2,3.224030137E-3,-2.482509613E-2
2.414279833E1,1.150488853E-2,-1.916810870E-4,-2.300643921E-2
2.416069274E1,1.371920109E-2,5.358368158E-3,-2.388381958E-2
2.417858714E1,2.506256104E-3,3.416389227E-4,-2.315425873E-2
2.419648143E1,-1.708507538E-3,-1.910202205E-3,-2.054023743E-2
2.421437572E1,7.903099060E-3,-1.234164834E-2,-2.894401550E-2
2.423227031E1,3.571152687E-3,-3.559395671E-3,-1.937961578E-2
2.425016460E1,1.252830029E-2,-5.915686488E-3,-2.169322968E-2
2.426806206E1,5.539298058E-3,-1.121384650E-2,-2.212715149E-2
2.428595665E1,6.487727165E-3,2.071484923E-4,-2.353763580E-2
2.430384972E1,6.916403770E-3,-6.129652262E-3,-2.504348755E-2
2.432174248E1,6.268501282E-3,-6.418220699E-3,-2.576541901E-2
2.433963670E1,2.193689346E-3,-3.244012594E-3,-2.496242523E-2
2.435753136E1,1.192402840E-2,4.822015762E-3,-3.375434875E-2
2.437542821E1,7.331013680E-3,-3.436252475E-3,-2.786159515E-2
2.439332085E1,8.255124092E-3,-1.941099763E-3,-2.903079987E-2
2.441121422E1,2.810597420E-3,-4.909038544E-3,-2.749156952E-2
2.442910857E1,2.991914749E-3,-2.977639437E-3,-2.591419220E-2
2.444700414E1,2.749323845E-3,6.066560745E-4,-2.779197693E-2
2.446489775E1,8.381366730E-3,-5.357883871E-3,-2.767944336E-2
2.448279204E1,9.539723396E-3,-9.822472930E-4,-2.200698853E-2
2.450068627E1,2.581477165E-3,-9.984374046E-4,-2.229785919E-2
2.451858086E1,2.354025841E-3,-8.747726679E-3,-2.404308319E-2
2.453647484E1,5.612254143E-3,-1.095285267E-2,-2.676296234E-2
2.455435527E1,6.395339966E-3,1.560360193E-3,-2.043437958E-2
2.457226390E1,6.828188896E-3,-2.471894026E-3,-1.733493805E-2
2.459015514E1,5.856037140E-3,-1.229721308E-2,-2.457046509E-2
2.460805266E1,9.446263313E-3,-7.212847471E-3,-2.803230286E-2
2.462594853E1,1.192021370E-2,-3.268577158E-3,-3.649997711E-2
2.464384160E1,5.276799202E-3,7.768943906E-4,-2.964687347E-2
2.466173589E1,5.136728287E-4,1.374855638E-4,-2.867984772E-2
2.467963042E1,6.946086884E-3,-3.867678344E-3,-2.857398987E-2
2.469752471E1,-5.449056625E-4,-2.454049885E-3,-2.684307098E-2
2.471541893E1,9.329199791E-3,-5.626857281E-3,-2.930259705E-2
2.473331352E1,9.104967117E-3,2.036198974E-3,-2.803230286E-2
2.475120806E1,2.267479897E-3,-4.785507917E-5,-3.004360199E-2
2.476909056E1,5.918979645E-3,-5.317106843E-3,-2.231502533E-2
2.478699913E1,8.821845055E-3,3.508552909E-4,-3.402423859E-2
2.480489116E1,1.698327065E-2,-2.103373408E-3,-2.066135406E-2
2.482278545E1,6.756305695E-3,1.707702875E-3,-2.113819122E-2
2.484067998E1,1.032412052E-2,-4.169613123E-3,-2.159690857E-2
2.485856224E1,7.323980331E-3,-4.551574588E-3,-3.313636780E-2
2.487646855E1,3.776669502E-3,3.644183278E-3,-2.169895172E-2
2.489436302E1,1.234436035E-2,-1.404263079E-3,-2.839374542E-2
2.491225762E1,9.578943253E-3,-4.668124020E-3,-2.785873413E-2
2.493015459E1,7.411599159E-3,-1.109503955E-2,-2.165317535E-2
2.494804607E1,8.580565453E-3,-1.139044762E-2,-3.131580353E-2
2.496593968E1,1.628804207E-2,-4.834234715E-3,-3.070354462E-2
2.498383531E1,1.487076283E-2,-5.191743374E-3,-3.115844727E-2
2.500172923E1,1.198327541E-2,1.248292625E-3,-2.583408356E-2
2.501962407E1,4.698038101E-3,-8.203864098E-3,-2.576637268E-2
2.503751836E1,3.525137901E-3,-1.211240888E-3,-2.685737610E-2
2.505539769E1,8.142471313E-3,-3.247268498E-3,-2.708721161E-2
2.507330693E1,1.105487347E-2,-1.469150186E-3,-2.535057068E-2
2.509120433E1,7.711291313E-3,-5.826592445E-3,-3.649902344E-2
2.510909593E1,1.053261757E-2,-2.519093454E-3,-2.309608459E-2
2.512698906E1,5.783677101E-3,-4.745312035E-3,-2.199172974E-2
2.514488469E1,1.188170910E-2,-2.035498619E-3,-2.280426025E-2
2.516277910E1,7.615208626E-3,-5.321457982E-3,-2.243328094E-2
2.518067333E1,2.432227135E-3,-6.016105413E-3,-3.179550171E-2
2.519856792E1,2.467513084E-3,-9.598508477E-4,-2.659988403E-2
2.521646214E1,1.181745529E-2,-4.604950547E-3,-2.132797241E-2
2.523435643E1,8.342742920E-3,-7.052727044E-3,-3.060722351E-2
2.525225096E1,9.220123291E-3,-7.752306759E-3,-3.109169006E-2
2.527014537E1,1.292097569E-2,2.749353647E-3,-3.224754333E-2
2.528803978E1,1.202368736E-2,-6.010100245E-3,-2.957344055E-2
2.530593791E1,8.469343185E-3,-4.054643214E-3,-3.154277802E-2
2.532381615E1,1.176023483E-2,-1.023121178E-3,-2.560901642E-2
2.534172270E1,5.512714386E-3,-3.883138299E-3,-2.991962433E-2
2.535961742E1,8.067011833E-3,-5.195617676E-3,-2.330398560E-2
2.537751183E1,1.154100895E-2,-2.084597945E-3,-2.867221832E-2
2.539540599E1,8.656978607E-3,-2.164214849E-3,-2.593612671E-2
2.541330052E1,-1.516342163E-4,-8.675530553E-3,-2.606868744E-2
2.543119188E1,4.848122597E-3,1.116491854E-3,-2.201557159E-2
2.544908934E1,8.473992348E-3,-2.701982856E-3,-2.883434296E-2
2.546698430E1,-1.188278198E-3,-2.806968987E-3,-2.624320984E-2
2.548487810E1,1.181221008E-2,-6.173610687E-3,-2.331066132E-2
2.550277245E1,4.459500313E-3,-2.015091479E-3,-1.855564117E-2
2.552066722E1,-1.964688301E-3,2.433367074E-3,-2.642250061E-2
2.553856127E1,4.968523979E-3,1.287013292E-3,-3.141403198E-2
2.555645586E1,1.462709904E-2,2.496056259E-3,-2.755165100E-2
2.557435008E1,2.710700035E-3,1.921631396E-3,-1.331043243E-2
2.559224730E1,5.877494812E-3,-4.442542791E-3,-3.718757629E-2
2.561013872E1,4.608869553E-3,-4.233792424E-3,-2.892112732E-2
2.562803337E1,8.737683296E-3,6.961323321E-3,-2.764034271E-2
2.564592937E1,4.450082779E-4,-7.028654218E-3,-2.139186859E-2
2.566382524E1,4.096746445E-3,-3.587447107E-3,-2.763462067E-2
2.568171636E1,7.566928864E-3,-1.448556781E-3,-2.223396301E-2
2.569961083E1,7.520914078E-3,6.746649742E-4,-1.701545715E-2
2.571750542E1,1.069986820E-2,-5.448192358E-3,-2.330684662E-2
2.573539964E1,6.422042847E-3,-1.150503755E-3,-2.375411987E-2
2.575329393E1,6.615638733E-3,-8.011087775E-4,-2.564525604E-2
2.577118822E1,1.014804840E-2,-2.582386136E-3,-2.729034424E-2
2.578908055E1,1.099121571E-2,-3.212489188E-3,-2.263355255E-2
2.580697991E1,4.870057106E-3,-2.844713628E-3,-2.830314636E-2
2.582487157E1,5.725979805E-3,-6.796240807E-3,-1.937389374E-2
2.584276586E1,5.337715149E-3,-3.547228873E-3,-2.024841309E-2
2.586066026E1,1.004290581E-2,-4.359312356E-3,-2.415180206E-2
2.587855492E1,1.358366013E-2,-4.274830222E-3,-2.925777435E-2
2.589644921E1,8.225798607E-3,-2.966575325E-3,-2.608394623E-2
2.591434331E1,-1.740455627E-3,-8.809864521E-4,-3.105258942E-2
2.593223808E1,6.282448769E-3,-2.612769604E-4,-2.654647827E-2
2.595013213E1,1.376390457E-3,-4.100590944E-3,-3.624534607E-2
2.596802660E1,4.171252251E-3,1.327931881E-3,-2.733325958E-2
2.598592546E1,7.836222649E-3,-1.128908992E-2,-3.110694885E-2
2.600381572E1,1.003313065E-2,2.138286829E-3,-2.446174622E-2
2.602170976E1,1.177501678E-2,-1.894347370E-3,-3.029727936E-2
2.603960430E1,1.113533974E-2,-4.996269941E-3,-2.822589874E-2
2.605749022E1,9.452223778E-3,3.764145076E-3,-2.390193939E-2
2.607539305E1,7.409572601E-3,-2.375625074E-3,-2.097320557E-2
2.609328734E1,4.062294960E-3,-2.852387726E-3,-2.947521210E-2
2.611118193E1,8.447170258E-4,-2.357147634E-3,-3.278446198E-2
2.612907866E1,6.631851196E-3,-1.829721034E-3,-2.560234070E-2
2.614697069E1,2.987504005E-3,1.858800650E-3,-3.650665283E-2
2.616485668E1,1.441144943E-2,-7.927976549E-3,-2.175235748E-2
2.618275951E1,1.193046570E-2,-5.801543593E-3,-2.981281281E-2
2.620065386E1,1.421618462E-2,-1.087866724E-3,-2.685737610E-2
2.621854814E1,5.861043930E-3,-4.011929035E-3,-2.405548096E-2
2.623644274E1,2.219557762E-3,3.102362156E-3,-2.527523041E-2
2.625434447E1,6.857514381E-3,-5.490362644E-3,-2.114868164E-2
2.627223143E1,1.662135124E-3,-6.683483720E-3,-1.959133148E-2
2.629012548E1,7.134437561E-3,-2.006731927E-3,-2.841758728E-2
2.630802025E1,8.063197136E-3,-2.949662507E-3,-2.387142181E-2
2.632591728E1,5.554914474E-3,1.122973859E-3,-2.690029144E-2
2.634380913E1,9.117484093E-3,-6.048835814E-3,-2.284717560E-2
2.636170311E1,5.977272987E-3,-1.031219959E-3,-1.854515076E-2
2.637959764E1,1.157522202E-2,1.109659672E-3,-1.864242554E-2
2.639749230E1,6.290435791E-3,4.099234939E-4,-2.670764923E-2
2.641538652E1,4.613280296E-3,-6.486549973E-4,-2.352619171E-2
2.643328075E1,9.250164032E-3,-6.558559835E-3,-2.621746063E-2
2.645117229E1,-6.870031357E-4,6.955116987E-5,-2.735900879E-2
2.646906950E1,3.281116486E-3,3.059394658E-3,-2.656078339E-2
2.648696239E1,1.317858696E-3,-1.112048328E-2,-3.891658783E-2
2.650485845E1,4.572272301E-3,-6.211988628E-3,-2.056694031E-2
2.652274077E1,5.912780762E-3,-4.588596523E-3,-2.438163757E-2
2.654064696E1,9.215593338E-3,-8.410543203E-3,-2.685546875E-2
2.655854436E1,3.039598465E-3,-5.612224340E-3,-2.653312683E-2
2.657643578E1,2.596735954E-3,2.380594611E-3,-3.172492981E-2
2.659433312E1,5.657672882E-4,-7.380485535E-3,-2.890396118E-2
2.661222484E1,1.257658005E-4,-2.264037728E-3,-2.176666260E-2
2.663011888E1,1.083064079E-2,-5.748867989E-3,-2.996063232E-2
2.664801341E1,7.261037827E-3,-1.389563084E-3,-2.534103394E-2
2.666591100E1,9.221911430E-3,-6.617635489E-3,-2.709007263E-2
2.668380229E1,5.961537361E-3,-4.073016346E-3,-2.536582947E-2
2.670169658E1,7.369279861E-3,-2.493508160E-3,-2.684593201E-2
2.671957701E1,1.340949535E-2,-5.112804472E-3,-2.908134460E-2
2.673748546E1,1.135981083E-2,-2.026766539E-3,-2.151870728E-2
2.675537987E1,1.302862167E-2,-1.248201728E-2,-2.514457703E-2
2.677327422E1,1.095342636E-2,-2.562262118E-3,-2.431106567E-2
2.679116869E1,5.458116531E-3,-7.647864521E-3,-3.103637695E-2
2.680906304E1,4.704713821E-3,-3.092624247E-3,-2.154731750E-2
2.682695799E1,3.995418549E-3,-1.806274056E-3,-2.676391602E-2
2.684485185E1,8.995175362E-3,1.824945211E-3,-2.609539032E-2
2.686274614E1,4.884839058E-3,-5.091443658E-3,-2.387905121E-2
2.688064067E1,7.236361504E-3,1.158460975E-3,-2.628040314E-2
2.689852104E1,2.359271049E-3,-4.400007427E-3,-2.534675598E-2
2.691642955E1,1.892328262E-3,4.231259227E-4,-2.002906799E-2
2.693432347E1,7.742881775E-3,-7.525376976E-3,-2.407360077E-2
2.695220622E1,7.261991501E-3,1.126527786E-3,-2.409648895E-2
2.697010112E1,1.345026493E-2,-3.712624311E-3,-3.366947174E-2
2.698799455E1,1.260614395E-2,-1.694403589E-3,-2.431106567E-2
2.700590428E1,1.515662670E-2,-3.919452429E-3,-2.775096893E-2
2.702379589E1,8.464813232E-3,-2.572543919E-3,-2.473735809E-2
2.704168975E1,7.993936539E-3,-5.174964666E-3,-2.257823944E-2
2.705958782E1,4.440188408E-3,-4.741325974E-4,-2.958106995E-2
2.707747588E1,6.323218346E-3,-1.033898443E-2,-2.578353882E-2
2.709537303E1,8.178472519E-3,5.096793175E-3,-2.645683289E-2
2.711326787E1,1.052594185E-2,-4.262663424E-3,-2.570152283E-2
2.713116185E1,2.233982086E-4,-1.102665812E-2,-3.086471558E-2
2.714905638E1,4.011034966E-3,-3.528170288E-3,-2.584075928E-2
2.716695000E1,7.355093956E-3,-4.781968892E-3,-3.645324707E-2
2.718484526E1,1.350498199E-2,-2.427592874E-3,-1.657485962E-2
2.720273955E1,1.246213913E-2,-1.142836362E-2,-2.216720581E-2
2.722063378E1,6.588101387E-3,-4.416555166E-3,-2.735519409E-2
2.723852837E1,1.659142971E-2,-1.969873905E-3,-2.542209625E-2
2.725642259E1,8.532285690E-3,-5.104333162E-3,-3.338718414E-2
2.727431719E1,1.499950886E-2,-5.750909448E-3,-2.374744415E-2
2.729221141E1,6.928920746E-3,-4.174321890E-3,-2.740001678E-2
2.731010570E1,1.075601578E-2,1.703247428E-3,-3.565406799E-2
2.732800023E1,9.140133858E-3,-1.502096653E-3,-2.932262421E-2
2.734589745E1,1.181244850E-2,-1.791030169E-3,-2.645397186E-2
2.736378911E1,1.061546803E-2,-1.982979476E-3,-2.508354187E-2
2.738168315E1,1.304399967E-2,-5.579225719E-3,-3.146457672E-2
2.739957768E1,6.234169006E-3,-6.269983947E-3,-3.396892548E-2
2.741747222E1,1.341342926E-2,-6.843656301E-3,-1.304531097E-2
2.743536650E1,1.274597645E-2,-3.185868263E-5,-2.195835114E-2
2.745324877E1,7.618188858E-3,-7.474482059E-3,-2.990818024E-2
2.747115526E1,7.435321808E-3,-4.054345191E-3,-2.791023254E-2
2.748904955E1,1.089227200E-2,-1.299191266E-2,-2.089023590E-2
2.750694707E1,7.195711136E-3,-1.109652221E-3,-3.468990326E-2
2.752484197E1,4.691123962E-3,-5.768589675E-3,-2.757549286E-2
2.754273290E1,1.307761669E-2,4.302568734E-3,-2.584171295E-2
2.756062755E1,6.022930145E-3,-1.272393018E-2,-1.804828644E-2
2.757850682E1,9.281635284E-3,-1.099781692E-2,-3.023815155E-2
2.759641606E1,6.720900536E-3,-1.124769449E-3,-1.951122284E-2
2.761431035E1,4.524469376E-3,-1.085968316E-2,-3.458023071E-2
2.763220482E1,8.333325386E-3,-4.083938897E-3,-2.795982361E-2
2.765010039E1,6.160497665E-3,-5.324691534E-3,-3.050518036E-2
2.766799340E1,8.532047272E-3,-5.959115922E-3,-2.352523804E-2
2.768588860E1,6.285667419E-3,-1.044847816E-2,-1.542854309E-2
2.770378252E1,8.303642273E-3,1.715332270E-3,-2.540588379E-2
2.772168108E1,8.283972740E-3,-3.545872867E-3,-2.939510345E-2
2.773957109E1,3.378272057E-3,1.524016261E-3,-3.075695038E-2
2.775746538E1,3.215193748E-3,-1.056142151E-3,-2.858448029E-2
2.777535967E1,5.865693092E-3,-1.158013940E-3,-2.087497711E-2
2.779325438E1,1.520490646E-2,-6.904326379E-3,-2.724361420E-2
2.781114842E1,1.102447510E-2,-9.754449129E-3,-2.541732788E-2
2.782904265E1,9.198307991E-3,-2.551153302E-4,-2.378082275E-2
2.784693999E1,9.955286980E-3,1.795589924E-6,-2.739524841E-2
2.786483153E1,1.038420200E-2,1.560673118E-3,-1.860046387E-2
2.788272637E1,1.368594170E-2,-6.168670952E-3,-1.718235016E-2
2.790062041E1,3.602027893E-3,-3.625355661E-3,-1.937484741E-2
2.791850267E1,1.707077026E-3,-2.454824746E-3,-1.866340637E-2
2.793640941E1,1.468050480E-2,1.209467649E-3,-2.743530273E-2
2.795430382E1,7.830739021E-3,-2.285405993E-3,-2.602672577E-2
2.797219798E1,8.434891701E-3,-1.610063016E-3,-2.226638794E-2
2.799009239E1,7.090091705E-3,-4.039771855E-3,-2.797985077E-2
2.800798674E1,5.393385887E-3,-4.391603172E-3,-2.733612061E-2
2.802588170E1,1.602172852E-4,-4.914633930E-3,-2.371215820E-2
2.804377275E1,7.182121277E-3,-7.115684450E-3,-2.544975281E-2
2.806166972E1,1.193177700E-2,-5.050987005E-3,-2.753543854E-2
2.807955223E1,1.146006584E-2,8.393824100E-5,-2.579116821E-2
2.809745873E1,5.688905716E-3,-5.874522030E-3,-2.472019196E-2
2.811535185E1,1.654267311E-3,-7.730089128E-3,-2.200698853E-2
2.813324761E1,7.120251656E-3,-4.476435483E-3,-2.880191803E-2
2.815114183E1,1.238703728E-2,-9.898841381E-4,-2.394199371E-2
2.816903935E1,7.717132568E-3,-4.626773298E-3,-2.330780029E-2
2.818693657E1,1.007735729E-2,-5.410261452E-3,-2.173995972E-2
2.820482500E1,9.634375572E-3,7.301568985E-5,-1.788711548E-2
2.822271923E1,9.673714638E-3,6.204850972E-3,-2.761363983E-2
2.824061357E1,7.844090462E-3,-7.130391896E-3,-2.583122253E-2
2.825850664E1,9.393692017E-3,-6.116963923E-3,-2.567195892E-2
2.827640264E1,1.400983334E-2,1.582875848E-4,-1.685142517E-2
2.829429668E1,1.295161247E-2,-8.712261915E-4,-2.265167236E-2
2.831219121E1,1.678383350E-2,-4.009649158E-3,-2.403450012E-2
2.833008544E1,5.436778069E-3,-3.320857882E-3,-2.749252319E-2
2.834797997E1,7.853388786E-3,2.703517675E-3,-3.059482574E-2
2.836587206E1,1.084041595E-2,-6.473518908E-3,-2.537536621E-2
2.838376464E1,6.806135178E-3,-5.225121975E-3,-2.766418457E-2
2.840166313E1,1.129710674E-2,-2.898998559E-3,-3.094959259E-2
2.841955760E1,1.192367077E-2,-6.141290069E-3,-2.674484253E-2
2.843745201E1,1.065146923E-2,-1.923248172E-3,-3.204154968E-2
2.845534618E1,8.286356926E-3,-4.190087318E-3,-2.973365784E-2
2.847324071E1,5.723834038E-3,5.830004811E-4,-3.080749512E-2
2.849113512E1,-3.643751144E-3,-8.694365621E-3,-1.916885376E-2
2.850902953E1,7.480978966E-3,-4.170015454E-4,-2.742385864E-2
2.852692272E1,5.528450012E-3,2.921707928E-3,-2.921772003E-2
2.854480345E1,1.285183430E-2,1.926101744E-3,-2.378273010E-2
2.856271239E1,9.555816650E-3,-3.249868751E-3,-3.011798859E-2
2.858060692E1,4.565715790E-3,-7.897339761E-3,-2.230358124E-2
2.859850145E1,-1.287221909E-3,2.190165222E-3,-2.811431885E-2
2.861639574E1,9.509325027E-4,2.393051982E-4,-3.038120270E-2
2.863429009E1,3.945708275E-3,-1.114238054E-2,-2.594280243E-2
2.865218437E1,6.167292595E-3,4.530929029E-3,-3.357315063E-2
2.867007866E1,1.357316971E-3,1.099705696E-4,-2.402019501E-2
2.868797307E1,1.070356369E-2,1.524947584E-3,-2.435207367E-2
2.870587078E1,4.858970642E-4,-2.871103585E-3,-2.432632446E-2
2.872376524E1,8.666634560E-3,-4.683569074E-3,-3.402996063E-2
2.874165630E1,8.685946465E-3,-4.569515586E-4,-2.667903900E-2
2.875954943E1,1.096248627E-3,1.386560500E-3,-1.958179474E-2
2.877744536E1,7.543206215E-3,-4.669196904E-3,-2.836799622E-2
2.879533928E1,8.002281189E-3,-6.744489074E-4,-2.907657623E-2
2.881323393E1,4.030108452E-3,-8.318573236E-5,-2.651214600E-2
2.883112816E1,5.106806755E-3,-2.679973841E-5,-2.324104309E-2
2.884902190E1,9.660601616E-3,-9.109824896E-4,-2.185153961E-2
2.886691594E1,1.064860821E-2,1.121327281E-3,-2.937412262E-2
2.888481157E1,5.756974220E-3,-5.488313735E-3,-2.800083160E-2
2.890270580E1,1.778852940E-2,-1.605756581E-3,-2.550697327E-2
2.892060014E1,1.197540760E-2,5.227245390E-3,-2.369976044E-2
2.893849449E1,2.435088158E-3,-4.234276712E-3,-3.395748138E-2
2.895638872E1,6.642580032E-3,-4.695050418E-3,-2.618885040E-2
2.897428319E1,4.382014275E-3,-6.779231131E-3,-2.271270752E-2
2.899217754E1,7.562875748E-3,-1.356519759E-3,-2.650737762E-2
2.901007182E1,7.005095482E-3,1.778066158E-3,-3.957653046E-2
2.902796605E1,-3.167510033E-3,-4.731930792E-3,-2.168083191E-2
2.904585076E1,8.055090904E-3,-2.527080476E-3,-2.161598206E-2
2.906375542E1,3.880381584E-3,-3.143981099E-3,-2.767276764E-2
2.908165233E1,5.096197128E-3,3.080986440E-3,-2.903079987E-2
2.909954741E1,4.463315010E-3,-9.477019310E-3,-2.567005157E-2
2.911742607E1,8.573889732E-3,-2.139940858E-3,-3.103733063E-2
2.913533251E1,5.222082138E-3,-3.087602556E-3,-2.902412415E-2
2.915322704E1,8.810758591E-3,-6.283894181E-4,-2.895450592E-2
2.917112163E1,6.812334061E-3,-4.529841244E-3,-3.041076660E-2
2.918901708E1,8.078813553E-3,-4.972033203E-3,-3.368091583E-2
2.920691320E1,9.794473648E-3,2.080343664E-3,-3.068923950E-2
2.922480467E1,3.161668777E-3,-2.305075526E-3,-3.446388245E-2
2.924269902E1,4.783868790E-3,7.871687412E-4,-2.510261536E-2
2.926059331E1,1.011109352E-2,7.510334253E-4,-2.334976196E-2
2.927848778E1,1.202106476E-3,1.257188618E-3,-2.845764160E-2
2.929638207E1,1.012325287E-3,2.036511898E-3,-1.942157745E-2
2.931427172E1,1.334440708E-2,7.004790008E-3,-2.730751038E-2
2.933217082E1,7.140994072E-3,-6.924688816E-3,-3.136444092E-2
2.935006499E1,5.902767181E-3,-1.957662404E-3,-3.088569641E-2
2.936795964E1,7.812976837E-3,-8.967652917E-3,-3.026008606E-2
2.938585405E1,6.090641022E-3,-1.298412681E-3,-2.921485901E-2
2.940374828E1,9.202480316E-3,-2.622202039E-3,-3.002834320E-2
2.942164293E1,7.542371750E-3,-1.619003713E-3,-2.299499512E-2
2.943953685E1,5.524992943E-3,-2.343609929E-3,-1.364231110E-2
2.945743071E1,7.629632950E-3,-4.970245063E-3,-2.162361145E-2
2.947532573E1,1.201748848E-3,-1.440547407E-3,-2.513217926E-2
2.949321196E1,2.451419830E-3,-4.238978028E-3,-1.710033417E-2
2.951111449E1,7.949352264E-3,-3.494545817E-3,-3.348350525E-2
2.952900878E1,9.470820427E-3,-3.734081984E-3,-2.761554718E-2
2.954689403E1,6.265640259E-3,5.129650235E-3,-2.075767517E-2
2.956479985E1,1.986503601E-3,4.618614912E-5,-2.874660492E-2
2.958268114E1,5.855679512E-3,-5.445137620E-3,-2.836990356E-2
2.960058629E1,1.526951790E-3,-8.587941527E-3,-3.191566467E-2
2.961848100E1,4.569411278E-3,9.191259742E-4,-2.876758575E-2
2.963637529E1,1.249456406E-2,-6.378516555E-3,-2.470397949E-2
2.965427074E1,2.135992050E-3,-3.513321280E-3,-2.541351318E-2
2.967216380E1,3.989100456E-3,-3.204993904E-3,-2.762794495E-2
2.969005815E1,8.485674858E-3,-3.327563405E-3,-2.156066895E-2
2.970795268E1,5.435109138E-3,-2.564467490E-3,-2.489376068E-2
2.972584715E1,6.204366684E-3,-6.505921483E-4,-3.046417236E-2
2.974374175E1,-1.385688782E-3,-2.013720572E-3,-3.293514252E-2
2.976163567E1,2.781867981E-3,-3.356494009E-3,-2.656650543E-2
2.977952709E1,8.546113968E-3,-1.935981214E-3,-2.003097534E-2
2.979742467E1,6.805896759E-3,-1.762598753E-3,-3.507232666E-2
2.981531890E1,3.084301949E-3,-2.298332751E-3,-2.581310272E-2
2.983321337E1,5.461454391E-3,-9.044699371E-3,-2.155876160E-2
2.985110771E1,9.078741074E-3,3.468893468E-3,-2.634525299E-2
2.986900188E1,9.251236916E-3,-4.277698696E-3,-2.573299408E-2
2.988690099E1,9.884238243E-3,9.587630630E-4,-3.044986725E-2
2.990479100E1,9.606719017E-3,2.512715757E-3,-2.689170837E-2
2.992268517E1,6.600856781E-3,-5.839996040E-3,-2.265071869E-2
2.994057933E1,2.193689346E-3,-2.135567367E-3,-2.085685730E-2
2.995846416E1,-5.037784576E-4,-3.498263657E-3,-2.298545837E-2
2.997636821E1,3.505468369E-3,-4.969768226E-3,-2.836132050E-2
2.999426250E1,4.638314247E-3,2.561166883E-3,-2.487945557E-2
3.001215727E1,7.386207581E-4,-2.968236804E-3,-1.614952087E-2
3.003005425E1,2.979516983E-3,2.392366529E-3,-2.144336700E-2
3.004794158E1,3.257274628E-3,-6.617680192E-4,-2.001667023E-2
3.006584038E1,5.046725273E-3,7.494114339E-3,-2.812767029E-2
3.008373454E1,-3.488063812E-3,-1.511268318E-3,-3.022384644E-2
3.010162889E1,6.129145622E-3,-3.955721855E-3,-2.422523499E-2
3.011952324E1,6.019592285E-3,-6.894044578E-3,-3.001785278E-2
3.013741747E1,7.438421249E-3,-6.229922175E-3,-3.208827972E-2
3.015531206E1,3.583550453E-3,5.507320166E-4,-3.205299377E-2
3.017319170E1,-7.392168045E-4,6.285913289E-3,-3.087711334E-2
3.019108910E1,-3.964185715E-3,-8.075453341E-3,-3.137016296E-2
3.020898332E1,1.349449158E-4,6.395585835E-3,-2.037143707E-2
3.022689299E1,1.742482185E-3,3.992825747E-3,-2.516078949E-2
3.024478093E1,4.136204720E-3,2.855367959E-3,-2.995967865E-2
3.026267821E1,-1.577019691E-3,-3.643728793E-3,-2.364730835E-2
3.028057262E1,5.779027939E-3,-9.506121278E-4,-2.599906921E-2
3.029846709E1,5.705475807E-3,1.742482185E-3,-2.045917511E-2
3.031636113E1,-3.976345062E-3,1.338273287E-4,-1.973438263E-2
3.033425560E1,1.528090239E-2,1.040875912E-3,-3.012752533E-2
3.035215013E1,5.714416504E-3,-2.487912774E-3,-2.053070068E-2
3.037004418E1,3.016948700E-3,-8.408598602E-3,-1.981639862E-2
3.038794194E1,9.733557701E-3,3.193840384E-4,-3.172588348E-2
3.040583324E1,8.010983467E-3,-2.973586321E-3,-3.195858002E-2
3.042372734E1,1.017057896E-2,-5.566008389E-3,-2.324962616E-2
3.044162181E1,8.092880249E-3,-1.064293087E-3,-2.410221100E-2
3.045951634E1,2.064108849E-3,-3.190733492E-3,-3.671932220E-2
3.047741069E1,8.530735970E-3,1.841895282E-3,-2.140235901E-2
3.049530492E1,5.719542503E-3,5.339555442E-3,-2.629566193E-2
3.051319432E1,9.764790535E-3,1.393169165E-3,-2.370166779E-2
3.053109386E1,1.115298271E-2,-2.872757614E-3,-2.400207520E-2
3.054899114E1,7.043719292E-3,-4.383683205E-3,-2.833843231E-2
3.056688555E1,-9.729862213E-4,-1.593627036E-3,-2.547740936E-2
3.058477983E1,7.123947144E-4,-6.418131292E-3,-3.421211243E-2
3.060267143E1,2.011299133E-3,-2.350412309E-3,-3.350257874E-2
3.062056566E1,6.083607674E-3,2.367340028E-3,-2.620887756E-2
3.063846001E1,2.599358559E-3,-6.775692105E-3,-2.287960052E-2
3.065635454E1,7.197499275E-3,3.069832921E-3,-2.985477448E-2
3.067424883E1,6.317019463E-3,-8.734449744E-3,-2.554607391E-2
3.069214330E1,1.088261604E-3,-5.429834127E-4,-2.601146698E-2
3.071003441E1,2.706527710E-3,-1.182630658E-3,-2.478981018E-2
3.072793181E1,8.161783218E-3,-3.048852086E-3,-2.464103699E-2
3.074582640E1,1.122617722E-2,-6.697572768E-3,-3.125476837E-2
3.076372069E1,1.210331917E-2,-1.432449371E-2,-2.966976166E-2
3.078161479E1,3.664970398E-3,-5.921684206E-3,-1.742172241E-2
3.079950926E1,3.717184067E-3,-1.832991838E-4,-2.332782745E-2
3.081740386E1,6.201028824E-3,-5.373775959E-3,-2.255058289E-2
3.083529784E1,1.176381111E-2,-1.046374440E-3,-2.615070343E-2
3.085319127E1,1.002407074E-2,-8.328050375E-3,-2.626895905E-2
3.087108684E1,1.299262047E-2,-1.565836370E-3,-2.639961243E-2
3.088896947E1,8.595228195E-3,-1.036673784E-2,-2.984333038E-2
3.090687572E1,7.883667946E-3,1.743368804E-3,-3.162288666E-2
3.092477007E1,4.498004913E-3,-9.447135031E-3,-2.320861816E-2
3.094266429E1,8.996486664E-3,-9.247392416E-3,-2.546501160E-2
3.096054698E1,6.284832954E-3,-6.403982639E-3,-2.995014191E-2
3.097844115E1,7.443189621E-3,-9.263984859E-3,-3.501701355E-2
3.099634752E1,5.973815918E-3,-1.232497394E-2,-1.993846893E-2
3.101424187E1,4.793047905E-3,-5.365163088E-3,-2.757072449E-2
3.103213628E1,8.218407631E-3,-3.615498543E-3,-3.290176392E-2
3.105003313E1,7.946610451E-3,-5.136199296E-3,-2.337741852E-2
3.106792186E1,1.189422607E-2,-3.719516098E-3,-2.133083344E-2
3.108581871E1,1.079750061E-2,-6.284892559E-3,-2.569580078E-2
3.110371373E1,1.231467724E-2,-1.310035586E-4,-2.951526642E-2
3.112160790E1,3.890514374E-3,-1.568406820E-3,-1.553630829E-2
3.113950243E1,4.539966583E-3,-7.658138871E-3,-2.324199677E-2
3.115739678E1,4.455089569E-3,-3.183431923E-3,-2.538013458E-2
3.117528642E1,9.433031082E-3,4.200197756E-3,-2.360248566E-2
3.119318553E1,3.954410553E-3,3.616362810E-4,-3.026199341E-2
3.121107988E1,-1.979589462E-3,-1.913942397E-3,-2.493858337E-2
3.122897484E1,3.990173340E-3,8.148699999E-5,-2.606773376E-2
3.124686840E1,2.957463264E-3,-1.069001853E-3,-2.336120605E-2
3.126476293E1,2.750158310E-3,-7.355116308E-3,-2.944564819E-2
3.128265758E1,1.022374630E-2,-4.994660616E-3,-2.719306946E-2
3.130055174E1,4.966855049E-3,-2.970129251E-3,-1.852607727E-2
3.131844914E1,1.064860821E-2,1.089625061E-3,-3.085136414E-2
3.133634050E1,6.664872169E-3,-3.968037665E-3,-2.951526642E-2
3.135423485E1,6.861686707E-3,-5.502998829E-5,-2.720451355E-2
3.137212914E1,7.044792175E-3,6.551563740E-3,-2.342414856E-2
3.139002355E1,8.516788483E-3,-3.252670169E-3,-2.802181244E-2
3.140791796E1,8.131384850E-3,1.477681100E-3,-2.767086029E-2
3.142581255E1,9.342551231E-3,-4.384152591E-3,-2.620410919E-2
3.144369261E1,1.087355614E-2,1.081362367E-3,-3.858661652E-2
3.146160088E1,8.161664009E-3,-6.051868200E-3,-2.882194519E-2
3.147949541E1,8.538246155E-3,-9.854629636E-3,-2.445125580E-2
3.149738988E1,1.247894764E-2,-1.942217350E-4,-2.768898010E-2
3.151528392E1,4.321455956E-3,3.266111016E-4,-3.048992157E-2
3.153317876E1,9.824156761E-3,-2.976037562E-3,-2.438545227E-2
3.155107378E1,1.272535324E-2,-3.469705582E-3,-2.249813080E-2
3.156895262E1,1.111912727E-2,6.818942726E-3,-2.672195435E-2
3.158686455E1,1.103520393E-2,-1.023665071E-3,-2.240943909E-2
3.160475621E1,7.938623428E-3,-4.555225372E-3,-1.976299286E-2
3.162265038E1,9.899735451E-3,-2.125084400E-3,-2.278995514E-2
3.164054460E1,9.011745453E-3,-4.043780267E-3,-1.960849762E-2
3.165843895E1,9.200572968E-3,1.532807946E-3,-2.446269989E-2
3.167633360E1,1.217544079E-2,-8.282959461E-3,-1.881027222E-2
3.169423082E1,1.035702229E-2,-1.288935542E-3,-2.480983734E-2
3.171211351E1,1.419317722E-2,-1.653477550E-3,-2.785110474E-2
3.173001659E1,3.334164619E-3,1.253254712E-3,-2.564907074E-2
3.174791081E1,1.078677177E-2,-8.078873158E-3,-1.609230042E-2
3.176580516E1,3.823995590E-3,1.059815288E-3,-1.529312134E-2
3.178370268E1,8.653879166E-3,-1.948475838E-3,-2.377128601E-2
3.180159398E1,1.665353775E-3,-2.989701927E-3,-2.339267731E-2
3.181947637E1,4.844069481E-3,-6.085120142E-3,-2.812194824E-2
3.183738262E1,5.736231804E-3,-4.804275930E-3,-1.954650879E-2
3.185527696E1,7.271766663E-5,-8.312262595E-3,-2.313995361E-2
3.187317137E1,8.391022682E-3,-4.825472832E-3,-2.513217926E-2
3.189106597E1,1.074087620E-2,-8.497051895E-3,-3.274536133E-2
3.190894566E1,1.261246204E-2,-4.445686936E-4,-3.079605103E-2
3.192685454E1,1.208519936E-2,1.844942570E-3,-2.678108215E-2
3.194474907E1,4.170298576E-3,-2.871930599E-3,-2.563381195E-2
3.196264336E1,3.167390823E-3,-4.253610969E-3,-2.928638458E-2
3.198053765E1,1.563996077E-2,4.036784172E-3,-2.564716339E-2
3.199843212E1,5.462646484E-3,2.313137054E-3,-1.864147186E-2
3.201632646E1,1.132130623E-2,-1.869909465E-3,-1.784992218E-2
3.203422081E1,1.100635529E-2,-2.944238484E-3,-3.007125854E-2
3.205211516E1,3.559470177E-3,1.536473632E-3,-2.815914154E-2
3.206999761E1,9.632110596E-3,3.943264484E-3,-2.692508698E-2
3.208790355E1,1.897573471E-3,-3.039546311E-3,-2.619457245E-2
3.210579936E1,7.075309753E-3,3.814637661E-3,-2.541446686E-2
3.212369261E1,2.558588982E-3,3.158591688E-3,-3.213882446E-2
3.214158672E1,5.937933922E-3,-6.612755358E-3,-2.564525604E-2
3.215947020E1,1.459836960E-2,-5.221255124E-3,-2.239608765E-2
3.217737432E1,1.316952705E-2,-1.866333187E-3,-1.913833618E-2
3.219526994E1,1.145005226E-2,2.985373139E-4,-2.245426178E-2
3.221316435E1,7.113337517E-3,3.094844520E-3,-2.484416962E-2
3.223105858E1,5.991697311E-3,-5.252107978E-3,-3.114891052E-2
3.224895531E1,6.447553635E-3,-3.989934921E-3,-3.778171539E-2
3.226684740E1,1.246809959E-2,4.863522947E-3,-2.924251556E-2
3.228474236E1,1.170039177E-2,-4.996143281E-3,-3.030872345E-2
3.230263597E1,6.800055504E-3,3.385350108E-3,-2.828979492E-2
3.232053056E1,7.696151733E-4,4.102870822E-3,-3.283023834E-2
3.233842504E1,8.752465248E-3,5.345590413E-3,-2.179718018E-2
3.235631963E1,1.374328136E-2,-1.562848687E-3,-2.745628357E-2
3.237421483E1,1.295447350E-2,3.374077380E-3,-1.783561707E-2
3.239210814E1,9.558677673E-3,-5.090035498E-3,-1.910877228E-2
3.241000212E1,1.286423206E-2,3.453776240E-3,-2.054500580E-2
3.242789672E1,7.318854332E-3,3.357604146E-3,-3.543090820E-2
3.244579106E1,1.187324524E-2,1.832619309E-3,-2.016735077E-2
3.246368559E1,1.434969902E-2,4.655160010E-3,-2.153968811E-2
3.248157988E1,1.065385342E-2,6.388179958E-3,-2.394199371E-2
3.249946245E1,6.965160370E-3,-2.603895962E-3,-2.797985077E-2
3.251736852E1,7.235527039E-3,-3.125473857E-3,-3.274917603E-2
3.253526299E1,-2.475976944E-4,6.396166980E-3,-2.568626404E-2
3.255314507E1,5.840182304E-3,-4.224523902E-3,-3.363704681E-2
3.257105180E1,1.375663280E-2,-1.823112369E-3,-2.876949310E-2
3.258894615E1,1.383930445E-2,3.532476723E-3,-2.294731140E-2
3.260684038E1,7.479429245E-3,8.460782468E-3,-2.434444427E-2
3.262473467E1,6.112694740E-3,-2.761706710E-4,-3.089809418E-2
3.264261724E1,1.128029823E-2,-2.159573138E-3,-3.791427612E-2
3.266052348E1,1.425766945E-2,-3.988541663E-3,-2.005577087E-2
3.267841802E1,5.730152130E-3,-1.093000174E-4,-1.949596405E-2
3.269631224E1,2.101063728E-3,1.645497978E-3,-2.286148071E-2
3.271420635E1,3.924489021E-3,3.508850932E-4,-3.116512299E-2
3.273210082E1,9.398221970E-3,2.694211900E-3,-2.139377594E-2
3.274999553E1,1.010358334E-2,4.651889205E-3,-3.044700623E-2
3.276788957E1,5.495190620E-3,-4.526354373E-3,-2.859306335E-2
3.278578398E1,4.172444344E-3,1.744635403E-3,-2.221107483E-2
3.280367851E1,1.082789898E-2,-5.545325577E-3,-2.543544769E-2
3.282157280E1,7.961630821E-3,-2.474583685E-3,-2.892780304E-2
3.283945348E1,1.214897633E-2,2.093851566E-3,-2.416419983E-2
3.285736168E1,1.099908352E-2,-7.112547755E-4,-2.396583557E-2
3.287525560E1,5.944132805E-3,5.397349596E-4,-3.309345245E-2
3.289315019E1,6.956458092E-3,4.464752972E-3,-2.869796753E-2
3.291104448E1,8.701801300E-3,-8.340924978E-4,-3.092384338E-2
3.292893895E1,5.317687988E-3,-3.289982677E-3,-2.923774719E-2
3.294683318E1,1.319003105E-2,1.691006124E-3,-2.760982513E-2
3.296472777E1,7.502913475E-3,2.584360540E-3,-2.602195740E-2
3.298262328E1,1.369369030E-2,5.420446396E-4,-2.583885193E-2
3.300051640E1,4.941582680E-3,-4.017382860E-3,-2.457809448E-2
3.301840404E1,9.635806084E-3,-6.729215384E-4,-2.503967285E-2
3.303630205E1,7.554411888E-3,5.806349218E-3,-2.127075195E-2
3.305419914E1,1.446902752E-2,7.369451225E-3,-1.900959015E-2
3.307209667E1,7.010579109E-3,4.276208580E-3,-1.976394653E-2
3.308997655E1,4.417061806E-3,2.717345953E-3,-3.762626648E-2
3.310788628E1,1.127195358E-2,1.991823316E-3,-3.145503998E-2
3.312577684E1,1.370710135E-2,2.339132130E-3,-2.773857117E-2
3.314367119E1,8.791565895E-3,7.160753012E-5,-2.784824371E-2
3.316156566E1,4.382848740E-3,3.552138805E-4,-3.204727173E-2
3.317944811E1,8.629918098E-3,-3.722921014E-3,-2.599525452E-2
3.319735430E1,6.852507591E-3,-2.641849220E-3,-2.667808533E-2
3.321524547E1,1.032292843E-2,-4.422381520E-3,-2.708816528E-2
3.323314305E1,7.547259331E-3,6.048128009E-3,-2.908992767E-2
3.325103740E1,1.897811890E-3,1.002296805E-3,-2.587795258E-2
3.326893157E1,2.312064171E-3,2.027161419E-3,-2.686500549E-2
3.328682622E1,5.666732788E-3,4.569187760E-3,-2.345943451E-2
3.330471752E1,4.161596298E-3,7.537007332E-4,-3.092575073E-2
3.332261485E1,8.945345879E-3,8.938379586E-3,-2.817916870E-2
3.334050932E1,1.920461655E-3,6.314255297E-3,-2.805042267E-2
3.335840361E1,2.736926079E-3,5.469165742E-3,-2.605819702E-2
3.337629790E1,7.225632668E-3,2.196125686E-3,-2.581596375E-2
3.339418926E1,6.365656853E-3,-5.745887756E-5,-2.572631836E-2
3.341207500E1,4.028916359E-3,-1.383550465E-3,-3.085899353E-2
3.342998107E1,8.775591850E-3,4.531741142E-4,-3.233337402E-2
3.344786351E1,1.041114330E-2,1.151032746E-3,-2.294349670E-2
3.346576982E1,7.411003113E-3,4.418969154E-3,-2.818965912E-2
3.348366380E1,1.373064518E-2,-1.184299588E-3,-2.844905853E-2
3.350155840E1,-9.701251984E-4,2.283483744E-3,-3.069114685E-2
3.351944072E1,1.168358326E-2,-2.092935145E-3,-2.204895020E-2
3.353734435E1,5.804419518E-3,-2.654075623E-3,-2.673530579E-2
3.355524150E1,1.094877720E-2,-1.468800008E-3,-1.935386658E-2
3.357312694E1,9.777307510E-3,3.702998161E-3,-3.358840942E-2
3.359103050E1,9.834289551E-3,5.784012377E-3,-2.888870239E-2
3.360892461E1,8.467197418E-3,2.623274922E-3,-2.456188202E-2
3.362681883E1,8.867740631E-3,3.745801747E-3,-2.076530457E-2
3.364471343E1,6.495714188E-3,2.176038921E-3,-2.504253387E-2
3.366260765E1,5.150079727E-3,4.159547389E-3,-2.326202393E-2
3.368050200E1,9.767889977E-3,3.147691488E-3,-2.721977234E-2
3.369839653E1,2.310633659E-3,-4.929691553E-3,-2.615070343E-2
3.371629106E1,2.183914185E-4,6.118640304E-3,-2.529144287E-2
3.373418498E1,4.071593285E-3,3.253743052E-3,-3.234004974E-2
3.375207933E1,4.526376724E-3,1.175411046E-3,-3.409767151E-2
3.376997362E1,9.647250175E-3,-1.117825508E-3,-2.548313141E-2
3.378786815E1,4.606008530E-3,2.963773906E-3,-2.083778381E-2
3.380576250E1,4.482746124E-3,3.314226866E-3,-3.258705139E-2
3.382365709E1,5.440831184E-3,9.714514017E-4,-2.215576172E-2
3.384155419E1,7.543206215E-3,5.358248949E-3,-2.841091156E-2
3.385943358E1,4.313111305E-3,2.869285643E-3,-3.343105316E-2
3.387734014E1,4.470944405E-3,-3.782212734E-3,-3.111362457E-2
3.389523412E1,6.062507629E-3,5.211934447E-3,-3.329372406E-2
3.391312865E1,5.810976028E-3,4.528418183E-3,-2.894496918E-2
3.393102306E1,7.134795189E-3,9.684860706E-4,-3.287792206E-2
3.394890520E1,2.189993858E-3,6.142325699E-3,-2.375030518E-2
3.396681182E1,5.092024803E-3,-2.506062388E-3,-2.207756042E-2
3.398470604E1,4.553794861E-4,-5.815774202E-3,-1.518154144E-2
3.400260045E1,1.080644131E-2,2.456247807E-3,-2.691555023E-2
3.402049486E1,3.726363182E-3,1.942224801E-3,-3.406047821E-2
3.403837615E1,-7.615089417E-4,-4.596538842E-3,-2.337265015E-2
3.405628368E1,2.208113670E-3,-4.313886166E-6,-2.854728699E-2
3.407417809E1,7.527947426E-3,3.246076405E-3,-2.891445160E-2
3.409207231E1,8.566975594E-3,-2.063810825E-4,-3.730773926E-2
3.410996636E1,1.134634018E-2,-4.997543991E-3,-2.316761017E-2
3.412786107E1,2.884507179E-3,-4.227988422E-3,-3.156948090E-2
3.414575536E1,3.474354744E-3,-2.798214555E-4,-3.121852875E-2
3.416364964E1,1.469337940E-2,1.108579338E-3,-2.767086029E-2
3.418154399E1,1.070415974E-2,-4.347339272E-4,-2.312183380E-2
3.419942632E1,3.925919533E-3,7.449559867E-3,-3.410339355E-2
3.421733257E1,7.346510887E-3,2.544030547E-3,-1.597499847E-2
3.423522710E1,8.006811142E-3,-3.793828189E-3,-3.286838531E-2
3.425312157E1,8.014678955E-3,-2.448327839E-3,-3.492641449E-2
3.427101579E1,2.435088158E-3,4.208311439E-3,-2.921199799E-2
3.428891020E1,5.118489265E-3,1.957237720E-3,-2.551174164E-2
3.430680419E1,8.822679520E-4,1.408062875E-3,-2.965259552E-2
3.432469908E1,1.061648130E-2,8.074805140E-3,-2.268886566E-2
3.434259300E1,9.941101074E-3,2.626776695E-4,-2.184677124E-2
3.436048760E1,3.065109253E-3,3.093279898E-3,-3.373432159E-2
3.437838469E1,6.788849831E-3,4.916340113E-4,-3.359222412E-2
3.439627635E1,6.317019463E-3,-5.897186697E-3,-3.320121765E-2
3.441415770E1,5.784273148E-3,-1.558437943E-3,-2.526187897E-2
3.443206499E1,7.334947586E-3,6.553962827E-3,-2.414608002E-2
3.444995928E1,9.075760841E-3,5.551815033E-3,-3.537464142E-2
3.446785375E1,2.570867538E-3,-2.400740981E-3,-3.150463104E-2
3.448574803E1,6.526947021E-3,3.210164607E-3,-2.261734009E-2
3.450364202E1,3.692746162E-3,9.304739535E-3,-3.035926819E-2
3.452153661E1,-3.794670105E-3,3.987625241E-3,-2.184963226E-2
3.453941631E1,6.801009178E-3,5.523115396E-5,-2.512359619E-2
3.455732549E1,1.020789146E-2,1.730002463E-3,-2.797126770E-2
3.457521977E1,4.312396049E-3,-1.941487193E-3,-3.523445129E-2
3.459311430E1,1.383835077E-2,-1.280508935E-3,-3.310585022E-2
3.461100859E1,8.453726768E-3,2.198182046E-3,-3.111934662E-2
3.462890300E1,1.084446907E-2,-1.929223537E-3,-3.514289856E-2
3.464679741E1,7.388830185E-3,-2.150803804E-3,-2.879524231E-2
3.466469164E1,6.715297699E-3,-3.670901060E-4,-2.621078491E-2
3.468257396E1,9.387731552E-3,-1.048795879E-3,-1.931762695E-2
3.470048155E1,1.301252842E-2,-3.889501095E-3,-3.045845032E-2
3.471837474E1,6.486892700E-3,1.983091235E-3,-3.472232819E-2
3.473626909E1,-1.519322395E-3,2.648606896E-4,-2.392005920E-2
3.475416643E1,7.285833359E-3,-2.375401556E-3,-2.665996552E-2
3.477204717E1,1.420027018E-2,6.590157747E-3,-3.031253815E-2
3.478995195E1,5.521178246E-3,4.764117301E-3,-3.182888031E-2
3.480784667E1,1.059448719E-2,2.879768610E-3,-2.686214447E-2
3.482574077E1,7.927656174E-3,5.292952061E-3,-4.051208496E-2
3.484363689E1,7.227182388E-3,-1.760497689E-4,-2.267551422E-2
3.486152928E1,2.359509468E-3,4.076004028E-3,-2.979564667E-2
3.487941112E1,7.302880287E-3,-1.773834229E-4,-2.924823761E-2
3.489731816E1,7.540583611E-3,-3.792345524E-4,-3.004932404E-2
3.491521245E1,8.542895317E-3,-6.036624312E-3,-2.882289886E-2
3.493310692E1,6.622076035E-3,-6.732523441E-3,-3.145313263E-2
3.495100121E1,5.986928940E-3,8.998259902E-3,-2.896213531E-2
3.496888530E1,1.273238659E-2,-1.636639237E-3,-2.088546753E-2
3.498678996E1,2.591371536E-3,-3.304570913E-3,-3.036785126E-2
3.500468431E1,-1.795411110E-3,-3.217816353E-3,-3.125286102E-2
3.502257860E1,4.481077194E-3,8.069202304E-3,-3.382968903E-2
3.504045775E1,5.713820457E-3,5.415081978E-5,-2.191162109E-2
3.505836449E1,1.166081429E-2,1.038059592E-3,-2.279281616E-2
3.507626177E1,4.871129990E-3,-6.210684776E-3,-3.238773346E-2
3.509415605E1,2.773165703E-3,3.001563251E-3,-3.042125702E-2
3.511205052E1,3.176569939E-3,-2.721108496E-3,-2.608489990E-2
3.512994457E1,5.920767784E-3,7.958933711E-4,-3.000068665E-2
3.514783220E1,1.227104664E-2,-6.091274321E-3,-3.366851807E-2
3.516573338E1,8.610725403E-3,-3.554902971E-3,-2.806568146E-2
3.518362798E1,7.930278778E-3,3.999516368E-3,-2.866268158E-2
3.520152196E1,9.237289429E-3,-2.347283065E-3,-3.614902496E-2
3.521940453E1,3.556847572E-3,6.200186908E-3,-2.941036224E-2
3.523729888E1,4.768610001E-3,-7.535912097E-3,-2.019596100E-2
3.525520506E1,4.626512527E-3,3.205500543E-3,-3.246879578E-2
3.527309960E1,5.082249641E-3,2.615086734E-3,-2.532100677E-2
3.529099394E1,9.750127792E-3,-1.466326416E-3,-3.543949127E-2
3.530888890E1,1.750111580E-3,-1.069903374E-4,-1.995944977E-2
3.532678264E1,3.866672516E-3,-4.225224257E-4,-2.268981934E-2
