"Time (s)","Acceleration x (m/s^2)","Acceleration y (m/s^2)","Acceleration z (m/s^2)"
1.617494700E-2,8.973683357E0,-2.111666054E-1,4.311866283E0
1.855687400E-2,9.002995491E0,-2.590230405E-1,4.316651821E0
2.093880100E-2,9.017950058E0,-3.158525825E-1,4.335794449E0
2.332072800E-2,9.028120041E0,-3.774677813E-1,4.369892120E0
2.570265500E-2,9.013762474E0,-4.109672904E-1,4.408177376E0
2.808458200E-2,9.000003815E0,-4.540380836E-1,4.436891556E0
3.046650900E-2,8.991030693E0,-5.162515044E-1,4.470989227E0
3.284843600E-2,8.986844063E0,-5.497509837E-1,4.499702930E0
3.523036300E-2,8.987442017E0,-6.071787477E-1,4.514657974E0
3.761229100E-2,8.987442017E0,-6.173482537E-1,4.490729809E0
3.999416600E-2,8.983254433E0,-6.789634228E-1,4.505086899E0
4.237609300E-2,9.012566566E0,-7.124629617E-1,4.485944271E0
4.475802000E-2,8.998807907E0,-7.603194118E-1,4.486542225E0
4.713994700E-2,8.994022369E0,-7.794619799E-1,4.472185612E0
4.952187400E-2,8.975478172E0,-8.033902049E-1,4.476971149E0
5.190380100E-2,8.970093727E0,-7.848458290E-1,4.448257446E0
5.428572800E-2,8.974879265E0,-7.752745152E-1,4.419543266E0
5.666765500E-2,8.974879265E0,-7.513462901E-1,4.390829563E0
5.904958200E-2,8.955139160E0,-7.280163169E-1,4.347758770E0
6.143150900E-2,8.955139160E0,-7.184450030E-1,4.323830605E0
6.381338400E-2,8.949754715E0,-6.951149702E-1,4.284946918E0
6.619531100E-2,8.945567131E0,-7.094719410E-1,4.270590305E0
6.857723800E-2,8.940781593E0,-7.094719410E-1,4.275375843E0
7.095916600E-2,8.931210518E0,-7.094719410E-1,4.275375843E0
7.334109300E-2,8.892925262E0,-7.196413875E-1,4.285545349E0
7.572302000E-2,8.873783112E0,-6.957131624E-1,4.280161381E0
7.810494700E-2,8.830712318E0,-6.915257573E-1,4.304089546E0
8.048687400E-2,8.821140289E0,-6.963114142E-1,4.299902439E0
8.286880100E-2,8.801998138E0,-6.867401004E-1,4.318446636E0
8.525072800E-2,8.768498421E0,-6.921239495E-1,4.323830605E0
8.763260300E-2,8.754141808E0,-6.825526357E-1,4.328616142E0
9.001453000E-2,8.734998703E0,-6.969096065E-1,4.323830605E0
9.239645700E-2,8.739784241E0,-6.873382926E-1,4.314259052E0
9.477838400E-2,8.730213165E0,-6.873382926E-1,4.323830605E0
9.716031100E-2,8.734998703E0,-6.879364848E-1,4.290330887E0
9.954223800E-2,8.720642090E0,-7.022934556E-1,4.314259052E0
1.019241660E-1,8.720642090E0,-6.927221417E-1,4.299902439E0
1.043060930E-1,8.726025581E0,-7.304090858E-1,4.323830605E0
1.066880200E-1,8.711668968E0,-7.166503668E-1,4.319045067E0
1.090699470E-1,8.702097893E0,-7.118647099E-1,4.319045067E0
1.114518220E-1,8.687741280E0,-7.070791125E-1,4.319045067E0
1.138337490E-1,8.672785759E0,-6.879364848E-1,4.323830605E0
1.162156760E-1,8.677571297E0,-6.831508875E-1,4.328616142E0
1.185976030E-1,8.672785759E0,-6.831508875E-1,4.338187218E0
1.209795300E-1,8.677571297E0,-6.783652306E-1,4.347758770E0
1.233614570E-1,8.706285477E0,-6.640082598E-1,4.342374802E0
1.257433840E-1,8.696713448E0,-6.496513486E-1,4.380660057E0
1.281253110E-1,8.705686569E0,-6.346961856E-1,4.399802685E0
1.305072380E-1,8.715258598E0,-6.155536175E-1,4.418945312E0
1.328891660E-1,8.710473061E0,-5.916253924E-1,4.433301926E0
1.352710930E-1,8.719446182E0,-5.772684813E-1,4.423730850E0
1.376530200E-1,8.729017258E0,-5.820540786E-1,4.409373760E0
1.400349470E-1,8.748159409E0,-5.772684813E-1,4.428516388E0
1.424168220E-1,8.752944946E0,-5.527420044E-1,4.395017147E0
1.447987490E-1,8.757730484E0,-5.772684813E-1,4.395017147E0
1.471806760E-1,8.762516975E0,-5.629115105E-1,4.375874519E0
1.495626030E-1,8.781659126E0,-5.676971674E-1,4.356731892E0
1.519445300E-1,8.781659126E0,-5.676971674E-1,4.318446636E0
1.543264570E-1,8.781659126E0,-5.724828243E-1,4.299304008E0
1.567083840E-1,8.781659126E0,-5.575276613E-1,4.289732933E0
1.590903110E-1,8.786444664E0,-5.676971674E-1,4.284946918E0
1.614722380E-1,8.786444664E0,-5.676971674E-1,4.270590305E0
1.638541130E-1,8.791230202E0,-5.820540786E-1,4.280161381E0
1.662360410E-1,8.791230202E0,-5.820540786E-1,4.280161381E0
1.686179680E-1,8.796015739E0,-5.964110494E-1,4.289732933E0
1.709998950E-1,8.800801277E0,-5.862415433E-1,4.318446636E0
1.733818220E-1,8.805587769E0,-5.958128572E-1,4.313661098E0
1.757637490E-1,8.815158844E0,-6.005984545E-1,4.342374802E0
1.781456760E-1,8.839086533E0,-6.047859192E-1,4.351946354E0
1.805276030E-1,8.843872070E0,-6.095715761E-1,4.351946354E0
1.829095300E-1,8.815756798E0,-6.197410822E-1,4.361517429E0
1.852914570E-1,8.820542336E0,-6.101697683E-1,4.371088982E0
1.876733320E-1,8.800801277E0,-6.005984545E-1,4.390231133E0
1.900552590E-1,8.796614647E0,-6.101697683E-1,4.390231133E0
1.924371860E-1,8.796614647E0,-6.053841114E-1,4.404588223E0
1.948191130E-1,8.781659126E0,-5.958128572E-1,4.399802685E0
1.972010410E-1,8.752944946E0,-5.916253924E-1,4.380660057E0
1.995829680E-1,8.743373871E0,-5.916253924E-1,4.385445595E0
2.019648950E-1,8.748159409E0,-5.916253924E-1,4.371088982E0
2.043468220E-1,8.709874153E0,-5.730810165E-1,4.361517429E0
2.067287490E-1,8.709874153E0,-5.730810165E-1,4.375874519E0
2.091106760E-1,8.714659691E0,-5.533402562E-1,4.371088982E0
2.114926030E-1,8.714659691E0,-5.389832854E-1,4.370490551E0
2.138744780E-1,8.709874153E0,-5.341976285E-1,4.370490551E0
2.162564050E-1,8.709276199E0,-5.102694035E-1,4.375276089E0
2.186383320E-1,8.718847275E0,-4.959124923E-1,4.384847641E0
2.210202590E-1,8.723632812E0,-5.048855543E-1,4.389633179E0
2.234021860E-1,8.723632812E0,-5.000999570E-1,4.380061626E0
2.257841130E-1,8.723632812E0,-5.096712112E-1,4.384847641E0
2.281660410E-1,8.733204842E0,-5.096712112E-1,4.375276089E0
2.305479680E-1,8.728418350E0,-5.144568682E-1,4.389633179E0
2.329298950E-1,8.719446182E0,-5.383850932E-1,4.384847641E0
2.353117700E-1,8.738588333E0,-5.575276613E-1,4.380660057E0
2.376936970E-1,8.738588333E0,-5.629115105E-1,4.366302967E0
2.400756240E-1,8.729017258E0,-5.868397355E-1,4.371088982E0
2.424575510E-1,8.734400749E0,-6.011967063E-1,4.375874519E0
2.448394780E-1,8.743373871E0,-5.916253924E-1,4.375874519E0
2.472214050E-1,8.757730484E0,-5.868397355E-1,4.361517429E0
2.496033320E-1,8.753543854E0,-6.203392744E-1,4.371088982E0
2.519852590E-1,8.758329391E0,-6.107679605E-1,4.371088982E0
2.543671860E-1,8.772686005E0,-6.293123364E-1,4.366302967E0
2.567491130E-1,8.796614647E0,-6.532405615E-1,4.351946354E0
2.591310410E-1,8.806185722E0,-6.675975323E-1,4.313661098E0
2.615129160E-1,8.820542336E0,-6.675975323E-1,4.284946918E0
2.638948430E-1,8.825327873E0,-6.628118753E-1,4.261018753E0
2.662767700E-1,8.839685440E0,-6.771687865E-1,4.232305050E0
2.686586970E-1,8.830113411E0,-6.675975323E-1,4.222733974E0
2.710406240E-1,8.810971260E0,-6.681957245E-1,4.194019794E0
2.734225510E-1,8.815756798E0,-6.586244106E-1,4.179663181E0
2.758044780E-1,8.830113411E0,-6.538388133E-1,4.170091629E0
2.781864050E-1,8.806185722E0,-6.538388133E-1,4.189234257E0
2.805683320E-1,8.820542336E0,-6.634100676E-1,4.179663181E0
2.829502590E-1,8.815756798E0,-6.251249313E-1,4.194019794E0
2.853321340E-1,8.806185722E0,-6.346961856E-1,4.194019794E0
2.877141130E-1,8.815756798E0,-6.394818425E-1,4.203591347E0
2.900959880E-1,8.834300995E0,-6.197410822E-1,4.213162422E0
2.924779160E-1,8.834898949E0,-6.436693072E-1,4.203591347E0
2.948598430E-1,8.824729919E0,-5.964110494E-1,4.217947960E0
2.972417700E-1,8.829515457E0,-5.772684813E-1,4.227519512E0
2.996236970E-1,8.815158844E0,-5.724828243E-1,4.241876125E0
3.020056240E-1,8.815158844E0,-5.676971674E-1,4.251447678E0
3.043875510E-1,8.814560890E0,-5.335994363E-1,4.269991875E0
3.067694780E-1,8.814560890E0,-5.096712112E-1,4.289134502E0
3.091514050E-1,8.794819832E0,-4.857429862E-1,4.279563427E0
3.115332800E-1,8.785248756E0,-4.761717021E-1,4.293920040E0
3.139152070E-1,8.784649849E0,-4.378865361E-1,4.293920040E0
3.162971340E-1,8.765507698E0,-4.283152521E-1,4.313062668E0
3.186790610E-1,8.760722160E0,-4.193421602E-1,4.312464714E0
3.210609880E-1,8.746364594E0,-4.193421602E-1,4.307679176E0
3.234429160E-1,8.736793518E0,-3.954139352E-1,4.345963955E0
3.258248430E-1,8.736793518E0,-4.001995921E-1,4.336392879E0
3.282067700E-1,8.722436905E0,-3.906283081E-1,4.350749969E0
3.305886970E-1,8.688937187E0,-3.912265003E-1,4.365106583E0
3.329706240E-1,8.717651367E0,-3.762713671E-1,4.374678135E0
3.353525510E-1,8.717651367E0,-4.049852192E-1,4.374678135E0
3.377344260E-1,8.717651367E0,-4.145565331E-1,4.384847641E0
3.401163530E-1,8.732605934E0,-4.384847581E-1,4.370490551E0
3.424982800E-1,8.746963501E0,-4.331009090E-1,4.380061626E0
3.448802070E-1,8.751749039E0,-4.378865361E-1,4.380061626E0
3.472621340E-1,8.780462265E0,-4.857429862E-1,4.360919476E0
3.496440610E-1,8.790034294E0,-4.803591371E-1,4.365705013E0
3.520259880E-1,8.785846710E0,-5.096712112E-1,4.356133461E0
3.544079160E-1,8.804988861E0,-5.234299302E-1,4.341776848E0
3.567898430E-1,8.833703041E0,-5.425725579E-1,4.336990833E0
3.591717180E-1,8.834300995E0,-5.718846321E-1,4.323232174E0
3.615536450E-1,8.848658562E0,-5.814558864E-1,4.304089546E0
3.639355720E-1,8.863015175E0,-6.005984545E-1,4.270590305E0
3.663174990E-1,8.853444099E0,-6.101697683E-1,4.227519512E0
3.686994260E-1,8.839685440E0,-6.340979934E-1,4.213162422E0
3.710813530E-1,8.844470978E0,-6.484549642E-1,4.179663181E0
3.734632800E-1,8.834898949E0,-6.442674994E-1,4.146163464E0
3.758452070E-1,8.810971260E0,-6.544370055E-1,4.117449760E0
3.782271340E-1,8.806185722E0,-6.831508875E-1,4.103092670E0
3.806090610E-1,8.816354752E0,-6.927221417E-1,4.069592953E0
3.829909360E-1,8.801998138E0,-7.022934556E-1,4.065405846E0
3.853728630E-1,8.792427063E0,-7.262216806E-1,4.036691666E0
3.877547910E-1,8.787641525E0,-7.268198729E-1,4.022335052E0
3.901367180E-1,8.782855988E0,-7.262216806E-1,4.041477680E0
3.925186450E-1,8.778069496E0,-7.028916478E-1,4.022335052E0
3.949005720E-1,8.763712883E0,-7.124629617E-1,4.027120590E0
3.972824990E-1,8.768498421E0,-6.981059909E-1,4.055834293E0
3.996644260E-1,8.787641525E0,-7.070791125E-1,4.046263218E0
4.020463530E-1,8.782257080E0,-6.831508875E-1,4.069592953E0
4.044282800E-1,8.810971260E0,-6.640082598E-1,4.093521118E0
4.068102070E-1,8.810971260E0,-6.442674994E-1,4.136591911E0
4.091920820E-1,8.844470978E0,-6.538388133E-1,4.165306091E0
4.115740090E-1,8.858827591E0,-6.340979934E-1,4.208376884E0
4.139559360E-1,8.887541771E0,-6.478567123E-1,4.241876125E0
4.163378630E-1,8.911469460E0,-6.622136831E-1,4.256233215E0
4.187197910E-1,8.958727837E0,-6.424728632E-1,4.275375843E0
4.211017180E-1,8.963513374E0,-6.418746710E-1,4.294518471E0
4.234836450E-1,8.992227554E0,-6.370890141E-1,4.342374802E0
4.258655720E-1,9.001798630E0,-6.412764788E-1,4.347160339E0
4.282474990E-1,9.007183075E0,-6.508477330E-1,4.351946354E0
4.306294260E-1,9.021539688E0,-6.556333899E-1,4.356731892E0
4.330113530E-1,9.011968613E0,-6.652047038E-1,4.366302967E0
4.353932280E-1,9.007183075E0,-6.652047038E-1,4.356731892E0
4.377751550E-1,9.011369705E0,-6.412764788E-1,4.351946354E0
4.401570820E-1,8.992825508E0,-6.460621357E-1,4.351946354E0
4.425390090E-1,8.977870941E0,-6.323033571E-1,4.332803726E0
4.449209360E-1,8.977870941E0,-6.323033571E-1,4.337589264E0
4.473028630E-1,8.953942299E0,-6.281159520E-1,4.304089546E0
4.496847910E-1,8.925228119E0,-6.281159520E-1,4.280161381E0
4.520667180E-1,8.906085968E0,-6.191428304E-1,4.270590305E0
4.544486450E-1,8.901300430E0,-6.047859192E-1,4.256233215E0
4.568305720E-1,8.877371788E0,-6.101697683E-1,4.189234257E0
4.592124470E-1,8.863015175E0,-5.910272002E-1,4.165306091E0
4.615943740E-1,8.843872070E0,-5.772684813E-1,4.141377926E0
4.639763010E-1,8.824729919E0,-5.826523304E-1,4.093521118E0
4.663582280E-1,8.809774399E0,-5.730810165E-1,4.074378967E0
4.687401550E-1,8.795417786E0,-5.736792088E-1,4.036093712E0
4.711220820E-1,8.785846710E0,-5.539384484E-1,4.016352654E0
4.735040090E-1,8.757132530E0,-5.593222976E-1,3.987638950E0
4.758859360E-1,8.742775917E0,-5.593222976E-1,3.939782381E0
4.782678630E-1,8.747561455E0,-5.593222976E-1,3.920041800E0
4.806497910E-1,8.729017258E0,-5.844469070E-1,3.915854216E0
4.830317180E-1,8.714659691E0,-5.700899959E-1,3.891926050E0
4.854135930E-1,8.690732002E0,-5.850451589E-1,3.887140274E0
4.877955200E-1,8.695517540E0,-5.796613097E-1,3.906282902E0
4.901774470E-1,8.690732002E0,-5.754738450E-1,3.896711588E0
4.925593740E-1,8.729017258E0,-5.844469070E-1,3.911068678E0
4.949413010E-1,8.743373871E0,-5.796613097E-1,3.920639992E0
4.973232280E-1,8.767302513E0,-5.934200287E-1,3.896711588E0
4.997051550E-1,8.791230202E0,-5.934200287E-1,3.920639992E0
5.020870820E-1,8.819944382E0,-6.167500615E-1,3.925425529E0
5.044690090E-1,8.853444099E0,-6.161518097E-1,3.930809498E0
5.068508840E-1,8.867800713E0,-6.209374666E-1,3.930809498E0
5.092328110E-1,8.891729355E0,-6.209374666E-1,3.925425529E0
5.116147380E-1,8.929415703E0,-5.964110494E-1,3.949353695E0
5.139966660E-1,8.948558807E0,-6.053841114E-1,3.964308977E0
5.163785930E-1,8.967700958E0,-5.958128572E-1,3.954139471E0
5.187605200E-1,8.986844063E0,-5.958128572E-1,3.973282099E0
5.211424470E-1,9.001200676E0,-6.047859192E-1,3.987638950E0
5.235243740E-1,9.015557289E0,-6.000002623E-1,3.992424488E0
5.259063010E-1,9.025727272E0,-6.239284873E-1,4.016951084E0
5.282882280E-1,9.044869423E0,-6.233302951E-1,4.036093712E0
5.306701550E-1,9.035298347E0,-6.329016089E-1,4.060021877E0
5.330520820E-1,9.054440498E0,-6.329016089E-1,4.060021877E0
5.354339570E-1,9.049654961E0,-6.616154313E-1,4.074378967E0
5.378158840E-1,9.044869423E0,-6.520441771E-1,4.079164505E0
5.401978110E-1,9.040083885E0,-6.520441771E-1,4.093521118E0
5.425797380E-1,9.025727272E0,-6.568298340E-1,4.107878208E0
5.449616660E-1,9.011369705E0,-6.424728632E-1,4.098307133E0
5.473435930E-1,8.982656479E0,-6.239284873E-1,4.107878208E0
5.497255200E-1,8.958727837E0,-6.095715761E-1,4.112663746E0
5.521074470E-1,8.939585686E0,-6.005984545E-1,4.088735580E0
5.544893740E-1,8.924630165E0,-5.862415433E-1,4.102494240E0
5.568713010E-1,8.886344910E0,-5.718846321E-1,4.107280254E0
5.592531760E-1,8.867800713E0,-5.916253924E-1,4.117449760E0
5.616351030E-1,8.863015175E0,-5.958128572E-1,4.165306091E0
5.640170300E-1,8.867800713E0,-5.814558864E-1,4.203591347E0
5.663989570E-1,8.901300430E0,-6.239284873E-1,4.265804768E0
5.687808840E-1,8.944371223E0,-6.281159520E-1,4.308875561E0
5.711628110E-1,9.006584167E0,-6.466603279E-1,4.299304008E0
5.735447380E-1,9.064610481E0,-6.891329288E-1,4.251447678E0
5.759266660E-1,9.136395454E0,-7.268198729E-1,4.146163464E0
5.783085930E-1,9.180064201E0,-7.938188910E-1,4.036691666E0
5.806905200E-1,9.209376335E0,-8.703892231E-1,3.940979004E0
5.830723950E-1,9.238688469E0,-9.469595551E-1,3.864408493E0
5.854543220E-1,9.239884377E0,-1.042672515E0,3.826123476E0
5.878362490E-1,9.245268822E0,-1.119242787E0,3.836292982E0
5.902181760E-1,9.222537041E0,-1.186241865E0,3.865604877E0
5.926001030E-1,9.222537041E0,-1.228714466E0,3.894318819E0
5.949820300E-1,9.184849739E0,-1.272383451E0,3.927818298E0
5.973639570E-1,9.147162437E0,-1.291526079E0,3.952943087E0
5.997458840E-1,9.094520569E0,-1.306481123E0,3.938585997E0
6.021278110E-1,9.052047729E0,-1.316650629E0,3.933800459E0
6.045096860E-1,9.023334503E0,-1.331605792E0,3.904488325E0
6.068916130E-1,8.985049248E0,-1.360319614E0,3.880560160E0
6.092735410E-1,8.947361946E0,-1.380060434E0,3.870988846E0
6.116554680E-1,8.942576408E0,-1.403988719E0,3.842873096E0
6.140373950E-1,8.923434258E0,-1.404586911E0,3.833301783E0
6.164193220E-1,8.894720078E0,-1.395015597E0,3.818944931E0
6.188012490E-1,8.894720078E0,-1.395613790E0,3.799802303E0
6.211831760E-1,8.870791435E0,-1.371685624E0,3.809373617E0
6.235651030E-1,8.856434822E0,-1.366899967E0,3.818944931E0
6.259470300E-1,8.846264839E0,-1.333400369E0,3.847060680E0
6.283289570E-1,8.836693764E0,-1.290329576E0,3.880560160E0
6.307108320E-1,8.826524734E0,-1.271785259E0,3.875774384E0
6.330927590E-1,8.845666885E0,-1.252044439E0,3.890131474E0
6.354746860E-1,8.854640007E0,-1.213759303E0,3.889533281E0
6.378566130E-1,8.878568649E0,-1.208973646E0,3.908675671E0
6.402385410E-1,8.902496338E0,-1.189232826E0,3.942773581E0
6.426204680E-1,8.930612564E0,-1.169492126E0,3.985844374E0
6.450023950E-1,8.964112282E0,-1.145563841E0,3.995415688E0
6.473843220E-1,9.006584167E0,-1.120439172E0,4.047459602E0
6.497662490E-1,9.025727272E0,-1.101296663E0,4.071387768E0
6.521481760E-1,9.068798065E0,-1.081555843E0,4.076173306E0
6.545301030E-1,9.120841980E0,-1.061815023E0,4.076173306E0
6.569119780E-1,9.116056442E0,-1.033699393E0,4.066602230E0
6.592939050E-1,9.125029564E0,-1.009771109E0,4.032504559E0
6.616758320E-1,9.138788223E0,-9.619147182E-1,3.999004841E0
6.640577590E-1,9.143573761E0,-9.379864931E-1,3.975076675E0
6.664396860E-1,9.133403778E0,-8.955138922E-1,3.941577196E0
6.688216130E-1,9.123234749E0,-8.476574421E-1,3.926023722E0
6.712035410E-1,9.089137077E0,-7.860422134E-1,3.892524242E0
6.735854680E-1,9.069396019E0,-7.435696125E-1,3.863212109E0
6.759673950E-1,9.054440498E0,-6.909275651E-1,3.834498405E0
6.783493220E-1,9.016156197E0,-6.436693072E-1,3.800998688E0
6.807312490E-1,8.982057571E0,-5.772684813E-1,3.771686792E0
6.831131240E-1,8.957531929E0,-5.294120312E-1,3.747758389E0
6.854950510E-1,8.909076691E0,-4.773681164E-1,3.709473372E0
6.878769780E-1,8.870193481E0,-4.061816335E-1,3.694518089E0
6.902589050E-1,8.831310272E0,-3.732803464E-1,3.680161238E0
6.926408320E-1,8.812167168E0,-3.260220885E-1,3.684946775E0
6.950227590E-1,8.834898949E0,-2.446661144E-1,3.684348583E0
6.974046860E-1,8.858229637E0,-2.057827413E-1,3.689134359E0
6.997866130E-1,8.900702477E0,-1.429711580E-1,3.717249870E0
7.021685410E-1,8.934201241E0,-1.142572835E-1,3.745963812E0
7.045504680E-1,8.962317467E0,-1.040877849E-1,3.784249067E0
7.069323430E-1,9.005388260E0,-9.391828626E-2,3.845864296E0
7.093142700E-1,9.029914856E0,-1.172483116E-1,3.899104595E0
7.116961970E-1,9.063413620E0,-1.357926875E-1,3.952344894E0
7.140781240E-1,9.087940216E0,-1.926222295E-1,4.014558315E0
7.164600510E-1,9.117252350E0,-2.638086975E-1,4.053441525E0
7.188419780E-1,9.132207870E0,-3.158525825E-1,4.091726780E0
7.212239050E-1,9.166305542E0,-3.870390654E-1,4.130609989E0
7.236058320E-1,9.128618240E0,-4.301098585E-1,4.154538155E0
7.259877590E-1,9.129216194E0,-4.779663086E-1,4.188037872E0
7.283696860E-1,9.105288506E0,-4.731806815E-1,4.192823410E0
7.307515610E-1,9.067003250E0,-4.689932466E-1,4.211966038E0
7.331334880E-1,9.062217712E0,-4.546363056E-1,4.207180500E0
7.355154160E-1,9.057432175E0,-4.402793646E-1,4.192823410E0
7.378973430E-1,9.037691116E0,-4.169493318E-1,4.135395527E0
7.402792700E-1,9.052047729E0,-4.169493318E-1,4.097110748E0
7.426611970E-1,9.052047729E0,-4.073780477E-1,4.054039955E0
7.450431240E-1,9.075976372E0,-4.217349887E-1,4.001397610E0
7.474250510E-1,9.085547447E0,-4.127618968E-1,3.948755503E0
7.498069780E-1,9.095118523E0,-4.319044948E-1,3.924229145E0
7.521889050E-1,9.123832703E0,-4.408775866E-1,3.871587038E0
7.545708320E-1,9.133403778E0,-4.462614357E-1,3.823730469E0
7.569527070E-1,9.128618240E0,-4.510470629E-1,3.780659676E0
7.593346340E-1,9.133403778E0,-4.319044948E-1,3.718446493E0
7.617165610E-1,9.138189316E0,-4.420739710E-1,3.684946775E0
7.640984880E-1,9.142376900E0,-4.229314029E-1,3.651447296E0
7.664804160E-1,9.151947975E0,-4.325026870E-1,3.598805189E0
7.688623430E-1,9.132805824E0,-4.181457460E-1,3.589233875E0
7.712442700E-1,9.118449211E0,-4.378865361E-1,3.574877024E0
7.736261970E-1,9.104690552E0,-4.426721931E-1,3.555734396E0
7.760081240E-1,9.085547447E0,-4.432703853E-1,3.550948858E0
7.783899990E-1,9.075976372E0,-4.480560422E-1,3.570091486E0
7.807719260E-1,9.042476654E0,-4.576273263E-1,3.579662561E0
7.831538530E-1,9.008976936E0,-4.480560422E-1,3.608376503E0
7.855357800E-1,8.999405861E0,-4.576273263E-1,3.656233072E0
7.879177070E-1,8.990432739E0,-4.671986103E-1,3.699303865E0
7.902996340E-1,8.985647202E0,-5.006981492E-1,3.757329702E0
7.926815610E-1,8.995218277E0,-5.048855543E-1,3.795614958E0
7.950634880E-1,8.976674080E0,-5.240281820E-1,3.833899975E0
7.974454160E-1,8.976674080E0,-5.240281820E-1,3.838685751E0
7.998273430E-1,8.991030693E0,-5.288137794E-1,3.876971006E0
8.022092700E-1,8.991030693E0,-5.377869010E-1,3.896113396E0
8.045911970E-1,9.005388260E0,-5.425725579E-1,3.920041800E0
8.069730720E-1,9.000602722E0,-5.425725579E-1,3.924827337E0
8.093549990E-1,9.010173798E0,-5.330012441E-1,3.939782381E0
8.117369260E-1,9.010173798E0,-5.228317380E-1,3.978067636E0
8.141188530E-1,9.019744873E0,-5.228317380E-1,3.978067636E0
8.165007800E-1,9.019744873E0,-5.084748268E-1,4.021138668E0
8.188827070E-1,9.014361382E0,-4.845465720E-1,4.040280819E0
8.212646340E-1,9.004789352E0,-4.701896608E-1,4.073182583E0
8.236465610E-1,9.008976936E0,-4.319044948E-1,4.101896286E0
8.260284880E-1,9.023334503E0,-4.265206456E-1,4.121038914E0
8.284104160E-1,9.023334503E0,-4.169493318E-1,4.173680782E0
8.307922910E-1,8.999405861E0,-4.169493318E-1,4.216751575E0
8.331742180E-1,8.965906143E0,-4.073780477E-1,4.274179459E0
8.355561450E-1,8.928219795E0,-4.079762697E-1,4.312464714E0
8.379380720E-1,8.894720078E0,-4.271188378E-1,4.350749969E0
8.403199990E-1,8.875576973E0,-4.414757788E-1,4.370490551E0
8.427019260E-1,8.837890625E0,-4.420739710E-1,4.403990269E0
8.450838530E-1,8.799605370E0,-4.516452849E-1,4.394418716E0
8.474657800E-1,8.780462265E0,-4.474578202E-1,4.389633179E0
8.498477070E-1,8.770891190E0,-4.570291340E-1,4.408775806E0
8.522296340E-1,8.742177963E0,-4.474578202E-1,4.403990269E0
8.546115610E-1,8.746963501E0,-4.474578202E-1,4.403990269E0
8.569934360E-1,8.761320114E0,-4.331009090E-1,4.394418716E0
8.593753630E-1,8.785248756E0,-4.516452849E-1,4.413561344E0
8.617572910E-1,8.790034294E0,-4.707878530E-1,4.399204254E0
8.641392180E-1,8.809176445E0,-4.803591371E-1,4.370490551E0
8.665211450E-1,8.833105087E0,-4.803591371E-1,4.375276089E0
8.689030720E-1,8.852247238E0,-4.899304509E-1,4.351347923E0
8.712849990E-1,8.891130447E0,-5.132604837E-1,4.341776848E0
8.736669260E-1,8.900702477E0,-5.180460811E-1,4.327419758E0
8.760488530E-1,8.910273552E0,-5.419743061E-1,4.298706055E0
8.784307280E-1,8.943773270E0,-5.605186820E-1,4.293920040E0
8.808126550E-1,8.948558807E0,-5.659025311E-1,4.274777889E0
8.831945820E-1,8.953942299E0,-5.850451589E-1,4.269991875E0
8.855765090E-1,8.930013657E0,-6.089733839E-1,4.275375843E0
8.879584360E-1,8.939585686E0,-6.137589812E-1,4.256233215E0
8.903403630E-1,8.944969177E0,-6.424728632E-1,4.246662140E0
8.927222910E-1,8.940183640E0,-6.478567123E-1,4.232305050E0
8.951042180E-1,8.901898384E0,-6.430711150E-1,4.222733974E0
8.974861450E-1,8.872586250E0,-6.197410822E-1,4.208376884E0
8.998680720E-1,8.867800713E0,-6.053841114E-1,4.227519512E0
9.022499990E-1,8.839086533E0,-5.724828243E-1,4.222733974E0
9.046318740E-1,8.809774399E0,-5.240281820E-1,4.226921082E0
9.070138010E-1,8.766703606E0,-5.006981492E-1,4.236492634E0
9.093957280E-1,8.751749039E0,-4.624129832E-1,4.241278172E0
9.117776550E-1,8.741579056E0,-4.103690982E-1,4.250251293E0
9.141595820E-1,8.721838951E0,-3.672982752E-1,4.245465755E0
9.165415090E-1,8.706883430E0,-3.104687333E-1,4.235894203E0
9.189234360E-1,8.706883430E0,-2.961117923E-1,4.245465755E0
9.213053630E-1,8.715856552E0,-2.476571500E-1,4.244867325E0
9.236872910E-1,8.706285477E0,-2.099701911E-1,4.249652863E0
9.260692180E-1,8.696115494E0,-1.525424421E-1,4.244867325E0
9.284510930E-1,8.714659691E0,-1.094716340E-1,4.234697819E0
9.308330200E-1,8.752944946E0,-9.451649338E-2,4.225126743E0
9.332149470E-1,8.766703606E0,-4.187439755E-2,4.239483356E0
9.355968740E-1,8.771489143E0,-3.708875179E-2,4.263411522E0
9.379788010E-1,8.794819832E0,-1.316052489E-2,4.258028030E0
9.403607280E-1,8.818747520E0,1.794616925E-3,4.272384644E0
9.427426550E-1,8.857032776E0,-1.196411345E-2,4.315455437E0
9.451245820E-1,8.866603851E0,2.392822644E-3,4.344169617E0
9.475065090E-1,8.876175880E0,-1.794616925E-3,4.368097782E0
9.498884360E-1,8.914461136E0,-1.196411322E-3,4.420739651E0
9.522703630E-1,8.904889107E0,-1.555334684E-2,4.425525665E0
9.546522380E-1,8.924032211E0,-3.469592705E-2,4.463810444E0
9.570341660E-1,8.928817749E0,-3.888336942E-2,4.459024906E0
9.594160930E-1,8.938986778E0,-6.281159073E-2,4.473979950E0
9.617980200E-1,8.924630165E0,-7.238288224E-2,4.483551502E0
9.641799470E-1,8.924630165E0,-8.195417374E-2,4.473979950E0
9.665618740E-1,8.905488014E0,-6.340979785E-2,4.483551502E0
9.689438010E-1,8.895915985E0,-6.340979785E-2,4.469194412E0
9.713257280E-1,8.891130447E0,-7.776673883E-2,4.454837322E0
9.737076550E-1,8.886344910E0,-6.400800496E-2,4.421338081E0
9.760895820E-1,8.876773834E0,-5.443671346E-2,4.406980991E0
9.784714570E-1,8.857631683E0,-4.965107143E-2,4.387838364E0
9.808533840E-1,8.843274117E0,-5.503492057E-2,4.387838364E0
9.832353110E-1,8.852845192E0,-6.400800496E-2,4.387838364E0
9.856172380E-1,8.848059654E0,-6.460621208E-2,4.368695736E0
9.879991660E-1,8.828917503E0,-5.503492057E-2,4.349553585E0
9.903810930E-1,8.828917503E0,-5.503492057E-2,4.325624943E0
9.927630200E-1,8.833703041E0,-7.417750359E-2,4.292125702E0
9.951449470E-1,8.824131966E0,-7.477571070E-2,4.282554150E0
9.975268740E-1,8.814560890E0,-7.477571070E-2,4.268197536E0
9.999088010E-1,8.804988861E0,-9.391828626E-2,4.249054909E0
1.002290728E0,8.800801277E0,-1.034895778E-1,4.253840446E0
1.004672603E0,8.800203323E0,-7.956135273E-2,4.249054909E0
1.007054530E0,8.800203323E0,-6.999006122E-2,4.234697819E0
1.009436457E0,8.795417786E0,-8.015955985E-2,4.210769653E0
1.011818384E0,8.776275635E0,-8.494520187E-2,4.186841488E0
1.014200311E0,8.761918068E0,-7.118647546E-2,4.162913322E0
1.016582238E0,8.761918068E0,-8.075776696E-2,4.138985157E0
1.018964166E0,8.766703606E0,-9.990034252E-2,4.119842529E0
1.021346093E0,8.766703606E0,-9.511470050E-2,4.095914364E0
1.023728020E0,8.776873589E0,-1.286142170E-1,4.071985722E0
1.026109947E0,8.786444664E0,-1.477568001E-1,4.071985722E0
1.028491822E0,8.800801277E0,-1.477568001E-1,4.062414646E0
1.030873749E0,8.810373306E0,-1.567298770E-1,4.062414646E0
1.033255676E0,8.824729919E0,-1.710868180E-1,4.062414646E0
1.035637603E0,8.839086533E0,-1.663011760E-1,4.071985722E0
1.038019530E0,8.844470978E0,-1.854437590E-1,4.076771736E0
1.040401457E0,8.872586250E0,-1.752742529E-1,4.076771736E0
1.042783384E0,8.882756233E0,-1.896311939E-1,4.091128349E0
1.045165311E0,8.910871506E0,-1.890329868E-1,4.100699902E0
1.047547238E0,8.930612564E0,-2.033899277E-1,4.115654945E0
1.049929166E0,8.940183640E0,-2.075773627E-1,4.134797573E0
1.052311093E0,8.954540253E0,-2.075773627E-1,4.144368649E0
1.054692968E0,8.968897820E0,-2.027917206E-1,4.162913322E0
1.057074895E0,8.992227554E0,-1.878365725E-1,4.162913322E0
1.059456822E0,9.001798630E0,-1.926222295E-1,4.182055950E0
1.061838749E0,9.011369705E0,-1.639083475E-1,4.201198578E0
1.064220676E0,9.030512810E0,-1.776670814E-1,4.210769653E0
1.066602603E0,9.044869423E0,-1.728814393E-1,4.215555191E0
1.068984530E0,9.044869423E0,-1.633101404E-1,4.225126743E0
1.071366457E0,9.054440498E0,-1.633101404E-1,4.239483356E0
1.073748384E0,9.059226990E0,-1.531406492E-1,4.234697819E0
1.076130311E0,9.035298347E0,-1.489532143E-1,4.239483356E0
1.078512186E0,9.040083885E0,-1.489532143E-1,4.244269371E0
1.080894113E0,9.030512810E0,-1.585244983E-1,4.225126743E0
1.083276041E0,9.020941734E0,-1.585244983E-1,4.249054909E0
1.085657968E0,8.997013092E0,-1.680957973E-1,4.249054909E0
1.088039895E0,8.977870941E0,-1.734796464E-1,4.225126743E0
1.090421822E0,8.968298912E0,-1.830509305E-1,4.220340729E0
1.092803749E0,8.958727837E0,-1.782652885E-1,4.210769653E0
1.095185676E0,8.925827026E0,-1.932204217E-1,4.201198578E0
1.097567603E0,8.906683922E0,-1.986042857E-1,4.182653904E0
1.099949530E0,8.892327309E0,-2.129612118E-1,4.201796532E0
1.102331457E0,8.882756233E0,-2.177468538E-1,4.182653904E0
1.104713332E0,8.873184204E0,-2.273181528E-1,4.182653904E0
1.107095259E0,8.859425545E0,-2.368894368E-1,4.182653904E0
1.109477186E0,8.835497856E0,-2.422732860E-1,4.173082829E0
1.111859113E0,8.825926781E0,-2.518445849E-1,4.177868366E0
1.114241041E0,8.825926781E0,-2.374876440E-1,4.187439442E0
1.116622968E0,8.816354752E0,-2.470589429E-1,4.163511276E0
1.119004895E0,8.787641525E0,-2.476571500E-1,4.182653904E0
1.121386822E0,8.778069496E0,-2.620140910E-1,4.173082829E0
1.123768749E0,8.783453941E0,-2.811566591E-1,4.163511276E0
1.126150624E0,8.749954224E0,-2.715853751E-1,4.153940201E0
1.128532603E0,8.745168686E0,-2.961117923E-1,4.149752617E0
1.130914478E0,8.721240044E0,-3.152543902E-1,4.164109707E0
1.133296405E0,8.721838951E0,-3.248256743E-1,4.183252335E0
1.135678332E0,8.717052460E0,-3.296113312E-1,4.183252335E0
1.138060259E0,8.721838951E0,-3.385843933E-1,4.197608948E0
1.140442186E0,8.760123253E0,-3.385843933E-1,4.221537113E0
1.142824113E0,8.774480820E0,-3.379862010E-1,4.250251293E0
1.145206041E0,8.812766075E0,-3.421736360E-1,4.255036831E0
1.147587968E0,8.831908226E0,-3.613162339E-1,4.298107624E0
1.149969895E0,8.855836868E0,-3.559323549E-1,4.322035789E0
1.152351770E0,8.898907661E0,-3.409772217E-1,4.350749969E0
1.154733697E0,8.884550095E0,-3.505485058E-1,4.379463673E0
1.157115624E0,8.889336586E0,-3.505485058E-1,4.389034748E0
1.159497551E0,8.893523216E0,-3.218346536E-1,4.403391838E0
1.161879478E0,8.869595528E0,-3.122633696E-1,4.422534466E0
1.164261405E0,8.869595528E0,-3.074777126E-1,4.408177376E0
1.166643332E0,8.869595528E0,-2.835494876E-1,4.426722050E0
1.169025259E0,8.840881348E0,-2.937189937E-1,4.431507587E0
1.171407186E0,8.821739197E0,-2.697907388E-1,4.450650215E0
1.173789113E0,8.816953659E0,-2.697907388E-1,4.465006828E0
1.176170988E0,8.830712318E0,-2.596212626E-1,4.479363918E0
1.178552916E0,8.816953659E0,-2.650051117E-1,4.508078098E0
1.180934843E0,8.816953659E0,-2.596212626E-1,4.532006264E0
1.183316770E0,8.816953659E0,-2.548356056E-1,4.560719967E0
1.185698697E0,8.816354752E0,-2.404786795E-1,4.560719967E0
1.188080624E0,8.811569214E0,-2.309073806E-1,4.565505505E0
1.190462551E0,8.801998138E0,-2.410768867E-1,4.527220249E0
1.192844478E0,8.793025017E0,-2.650051117E-1,4.512863636E0
1.195226405E0,8.773882866E0,-2.602194548E-1,4.498506546E0
1.197608332E0,8.759525299E0,-2.895315289E-1,4.456034184E0
1.199990259E0,8.726624489E0,-3.044866920E-1,4.432105541E0
1.202372134E0,8.693124771E0,-3.332005441E-1,4.412963390E0
1.204754061E0,8.654839516E0,-3.433700502E-1,4.403391838E0
1.207135988E0,8.612366676E0,-3.678964674E-1,4.398606300E0
1.209517916E0,8.583653450E0,-3.631108403E-1,4.427320004E0
1.211899843E0,8.545966148E0,-3.870390654E-1,4.466203690E0
1.214281770E0,8.545966148E0,-4.157529473E-1,4.533202648E0
1.216663697E0,8.565108299E0,-4.295116663E-1,4.557130814E0
1.219045624E0,8.584849358E0,-4.725824594E-1,4.590630054E0
1.221427551E0,8.637491226E0,-4.959124923E-1,4.581058979E0
1.223809478E0,8.666205406E0,-5.144568682E-1,4.537988186E0
1.226191405E0,8.704490662E0,-5.288137794E-1,4.466203690E0
1.228573332E0,8.714061737E0,-5.335994363E-1,4.399204254E0
1.230955207E0,8.757132530E0,-5.383850932E-1,4.327419758E0
1.233337134E0,8.757132530E0,-5.527420044E-1,4.255635262E0
1.235719061E0,8.742775917E0,-5.485545993E-1,4.217350006E0
1.238100988E0,8.748159409E0,-5.581258535E-1,4.208376884E0
1.240482916E0,8.723632812E0,-5.347958803E-1,4.179064751E0
1.242864843E0,8.718847275E0,-5.347958803E-1,4.116851330E0
1.245246770E0,8.733204842E0,-5.443671346E-1,4.083351612E0
1.247628697E0,8.728418350E0,-5.204389095E-1,4.078566074E0
1.250010624E0,8.727222443E0,-4.492524564E-1,4.068994999E0
1.252392499E0,8.684151649E0,-4.067798555E-1,4.063611031E0
1.254774426E0,8.688339233E0,-3.349951804E-1,4.092324734E0
1.257156353E0,8.678169250E0,-3.014956415E-1,4.125824451E0
1.259538280E0,8.687741280E0,-2.913261652E-1,4.168895245E0
1.261920207E0,8.716454506E0,-3.002992272E-1,4.226323128E0
1.264302134E0,8.687741280E0,-2.955136001E-1,4.312464714E0
1.266684061E0,8.697312355E0,-3.044866920E-1,4.374678135E0
1.269065988E0,8.669196129E0,-3.140579760E-1,4.446462631E0
1.271447916E0,8.640482903E0,-3.236292601E-1,4.489533424E0
1.273829843E0,8.621339798E0,-3.379862010E-1,4.523033142E0
1.276211770E0,8.612366676E0,-3.619144261E-1,4.556532383E0
1.278593645E0,8.602795601E0,-3.619144261E-1,4.599603176E0
1.280975572E0,8.598608017E0,-3.954139352E-1,4.619344234E0
1.283357499E0,8.612964630E0,-4.145565331E-1,4.628915310E0
1.285739426E0,8.612964630E0,-4.289134443E-1,4.633700848E0
1.288121353E0,8.608179092E0,-4.432703853E-1,4.619344234E0
1.290503280E0,8.623134613E0,-4.474578202E-1,4.614558697E0
1.292885207E0,8.632705688E0,-4.570291340E-1,4.609772682E0
1.295267134E0,8.636893272E0,-4.474578202E-1,4.576273441E0
1.297649061E0,8.646464348E0,-4.331009090E-1,4.561916351E0
1.300030988E0,8.656036377E0,-4.145565331E-1,4.518845558E0
1.302412863E0,8.684151649E0,-3.804588020E-1,4.499104977E0
1.304794843E0,8.703293800E0,-3.661018610E-1,4.475176334E0
1.307176718E0,8.731410027E0,-3.373879790E-1,4.456034184E0
1.309558645E0,8.745766640E0,-3.134597540E-1,4.432105541E0
1.311940572E0,8.797810555E0,-2.841476798E-1,4.412364960E0
1.314322499E0,8.816354752E0,-2.650051117E-1,4.383651257E0
1.316704426E0,8.864211082E0,-2.596212626E-1,4.383651257E0
1.319086353E0,8.897710800E0,-2.452643216E-1,4.383651257E0
1.321468280E0,8.921041489E0,-2.159522474E-1,4.388436794E0
1.323850207E0,8.944969177E0,-2.207378894E-1,4.388436794E0
1.326232134E0,8.983254433E0,-2.201396823E-1,4.421936035E0
1.328614009E0,8.988039970E0,-2.105683982E-1,4.426722050E0
1.330995936E0,9.021539688E0,-2.291127741E-1,4.441078663E0
1.333377863E0,9.031110764E0,-2.386840582E-1,4.445864677E0
1.335759791E0,9.055637360E0,-2.620140910E-1,4.460221291E0
1.338141718E0,9.055637360E0,-2.572284341E-1,4.469792843E0
1.340523645E0,9.055637360E0,-2.907279432E-1,4.479363918E0
1.342905572E0,9.050851822E0,-3.050848842E-1,4.484149456E0
1.345287499E0,9.050851822E0,-3.050848842E-1,4.503292084E0
1.347669426E0,9.051449776E0,-3.290131092E-1,4.503292084E0
1.350051353E0,9.032307625E0,-3.337987661E-1,4.517649174E0
1.352433280E0,9.018548965E0,-3.625126183E-1,4.503890514E0
1.354815155E0,9.003593445E0,-3.529413342E-1,4.518247128E0
1.357197082E0,8.970691681E0,-3.774677813E-1,4.537389755E0
1.359579009E0,8.975478172E0,-4.013960063E-1,4.523033142E0
1.361960936E0,8.980263710E0,-4.061816335E-1,4.499104977E0
1.364342863E0,8.956933022E0,-4.205385745E-1,4.494318962E0
1.366724791E0,8.933005333E0,-4.115654826E-1,4.479962349E0
1.369106718E0,8.909076691E0,-4.217349887E-1,4.456034184E0
1.371488645E0,8.889934540E0,-4.217349887E-1,4.446462631E0
1.373870572E0,8.856434822E0,-4.366901219E-1,4.403391838E0
1.376252499E0,8.818149567E0,-4.325026870E-1,4.374678135E0
1.378634374E0,8.790034294E0,-4.420739710E-1,4.356133461E0
1.381016301E0,8.775676727E0,-4.474578202E-1,4.346562386E0
1.383398228E0,8.755936623E0,-4.331009090E-1,4.336990833E0
1.385780155E0,8.736793518E0,-4.289134443E-1,4.327419758E0
1.388162082E0,8.708678246E0,-4.289134443E-1,4.308277130E0
1.390544009E0,8.708079338E0,-4.241278172E-1,4.298706055E0
1.392925936E0,8.693722725E0,-4.151547253E-1,4.313062668E0
1.395307863E0,8.660223007E0,-4.103690982E-1,4.317848682E0
1.397689791E0,8.674580574E0,-4.151547253E-1,4.317848682E0
1.400071718E0,8.646464348E0,-4.247260094E-1,4.341776848E0
1.402453645E0,8.636295319E0,-4.103690982E-1,4.356133461E0
1.404835520E0,8.627322197E0,-4.295116663E-1,4.380061626E0
1.407217447E0,8.622536659E0,-4.295116663E-1,4.394418716E0
1.409599374E0,8.608179092E0,-4.199403822E-1,4.413561344E0
1.411981301E0,8.622536659E0,-4.151547253E-1,4.413561344E0
1.414363228E0,8.622536659E0,-4.103690982E-1,4.427918434E0
1.416745155E0,8.607581139E0,-3.960121572E-1,4.432703972E0
1.419127082E0,8.622536659E0,-4.055834413E-1,4.442275047E0
1.421509009E0,8.636893272E0,-4.049852192E-1,4.461417675E0
1.423890936E0,8.632107735E0,-4.103690982E-1,4.475774765E0
1.426272863E0,8.646464348E0,-4.049852192E-1,4.499702930E0
1.428654791E0,8.669795036E0,-4.001995921E-1,4.494917393E0
1.431036666E0,8.688937187E0,-3.810569942E-1,4.489533424E0
1.433418593E0,8.708079338E0,-3.661018610E-1,4.508676052E0
1.435800520E0,8.717651367E0,-3.804588020E-1,4.494318962E0
1.438182447E0,8.717651367E0,-3.804588020E-1,4.484747887E0
1.440564374E0,8.732007980E0,-3.613162339E-1,4.465605259E0
1.442946301E0,8.751151085E0,-3.708875179E-1,4.479962349E0
1.445328228E0,8.755936623E0,-3.900300860E-1,4.465605259E0
1.447710155E0,8.770293236E0,-3.846462369E-1,4.446462631E0
1.450092082E0,8.784649849E0,-3.846462369E-1,4.427320004E0
1.452474009E0,8.779864311E0,-3.942175210E-1,4.446462631E0
1.454855884E0,8.770293236E0,-3.852444589E-1,4.432105541E0
1.457237811E0,8.770293236E0,-4.139583111E-1,4.427320004E0
1.459619738E0,8.775676727E0,-4.372883439E-1,4.451846600E0
1.462001666E0,8.751749039E0,-4.331009090E-1,4.466203690E0
1.464383593E0,8.737391472E0,-4.522434771E-1,4.466203690E0
1.466765520E0,8.737391472E0,-4.570291340E-1,4.470989227E0
1.469147447E0,8.733204842E0,-4.713860750E-1,4.485345840E0
1.471529374E0,8.727820396E0,-4.666004181E-1,4.504488468E0
1.473911301E0,8.723034859E0,-4.618147612E-1,4.509274483E0
1.476293228E0,8.703892708E0,-4.522434771E-1,4.518845558E0
1.478675103E0,8.708678246E0,-4.618147612E-1,4.504488468E0
1.481057030E0,8.690134048E0,-4.713860750E-1,4.523631096E0
1.483438957E0,8.685347557E0,-4.666004181E-1,4.514060020E0
1.485820884E0,8.680562019E0,-4.905286431E-1,4.514060020E0
1.488202811E0,8.656634331E0,-5.006981492E-1,4.499702930E0
1.490584738E0,8.675776482E0,-5.006981492E-1,4.490131855E0
1.492966666E0,8.670990944E0,-4.863412082E-1,4.480560303E0
1.495348593E0,8.656634331E0,-4.767699242E-1,4.470989227E0
1.497730520E0,8.656634331E0,-4.624129832E-1,4.447061062E0
1.500112447E0,8.651848793E0,-4.671986103E-1,4.447061062E0
1.502494322E0,8.647063255E0,-4.725824594E-1,4.437489510E0
1.504876249E0,8.651848793E0,-4.815555513E-1,4.437489510E0
1.507258176E0,8.661419868E0,-4.767699242E-1,4.442275047E0
1.509640103E0,8.642276764E0,-4.869394004E-1,4.418346882E0
1.512022030E0,8.651848793E0,-4.959124923E-1,4.437489510E0
1.514403957E0,8.661419868E0,-4.911268353E-1,4.437489510E0
1.516785884E0,8.656634331E0,-5.006981492E-1,4.447061062E0
1.519167811E0,8.666205406E0,-4.911268353E-1,4.456632137E0
1.521549738E0,8.661419868E0,-4.815555513E-1,4.456632137E0
1.523931666E0,8.694919586E0,-4.857429862E-1,4.475774765E0
1.526313593E0,8.694919586E0,-4.857429862E-1,4.480560303E0
1.528695468E0,8.699705124E0,-4.953143001E-1,4.494917393E0
1.531077395E0,8.704490662E0,-5.096712112E-1,4.514060020E0
1.533459322E0,8.709276199E0,-5.096712112E-1,4.509274483E0
1.535841249E0,8.714659691E0,-5.383850932E-1,4.514657974E0
1.538223176E0,8.719446182E0,-5.282155871E-1,4.537988186E0
1.540605103E0,8.729017258E0,-5.473581553E-1,4.557728767E0
1.542987030E0,8.733802795E0,-5.425725579E-1,4.543372154E0
1.545368957E0,8.743373871E0,-5.473581553E-1,4.538586140E0
1.547750884E0,8.752944946E0,-5.377869010E-1,4.547559261E0
1.550132811E0,8.762516975E0,-5.425725579E-1,4.543372154E0
1.552514738E0,8.761918068E0,-5.282155871E-1,4.528416634E0
1.554896666E0,8.772088051E0,-5.419743061E-1,4.523631096E0
1.557278541E0,8.767302513E0,-5.521438122E-1,4.519443989E0
1.559660468E0,8.766703606E0,-5.186443329E-1,4.518845558E0
1.562042395E0,8.771489143E0,-5.138586760E-1,4.490131855E0
1.564424322E0,8.776275635E0,-5.138586760E-1,4.490131855E0
1.566806249E0,8.771489143E0,-4.947160780E-1,4.494917393E0
1.569188176E0,8.757132530E0,-4.995017350E-1,4.475774765E0
1.571570103E0,8.742775917E0,-5.042873621E-1,4.480560303E0
1.573952030E0,8.742775917E0,-4.947160780E-1,4.485345840E0
1.576333957E0,8.756534576E0,-4.707878530E-1,4.470989227E0
1.578715832E0,8.728418350E0,-4.857429862E-1,4.480560303E0
1.581097759E0,8.714061737E0,-4.713860750E-1,4.470989227E0
1.583479686E0,8.718249321E0,-4.666004181E-1,4.480560303E0
1.585861613E0,8.713463783E0,-4.618147612E-1,4.470989227E0
1.588243541E0,8.704490662E0,-4.666004181E-1,4.480560303E0
1.590625468E0,8.699107170E0,-4.618147612E-1,4.480560303E0
1.593007395E0,8.680562019E0,-4.719842672E-1,4.475774765E0
1.595389322E0,8.680562019E0,-4.719842672E-1,4.466203690E0
1.597771249E0,8.680562019E0,-4.911268353E-1,4.490131855E0
1.600153176E0,8.694919586E0,-5.000999570E-1,4.480560303E0
1.602535103E0,8.694919586E0,-5.144568682E-1,4.485345840E0
1.604916978E0,8.685347557E0,-5.144568682E-1,4.480560303E0
1.607298905E0,8.690134048E0,-5.192425251E-1,4.485345840E0
1.609680832E0,8.685347557E0,-5.096712112E-1,4.485345840E0
1.612062759E0,8.694919586E0,-5.144568682E-1,4.470989227E0
1.614444686E0,8.699705124E0,-5.006981492E-1,4.437489510E0
1.616826613E0,8.709276199E0,-4.809573591E-1,4.437489510E0
1.619208541E0,8.699107170E0,-4.624129832E-1,4.442275047E0
1.621590468E0,8.703892708E0,-4.624129832E-1,4.447061062E0
1.623972395E0,8.708678246E0,-4.570291340E-1,4.470989227E0
1.626354322E0,8.703892708E0,-4.570291340E-1,4.466203690E0
1.628736249E0,8.718249321E0,-4.378865361E-1,4.461417675E0
1.631118176E0,8.713463783E0,-4.426721931E-1,4.475774765E0
1.633500051E0,8.703892708E0,-4.618147612E-1,4.494917393E0
1.635881978E0,8.723034859E0,-4.660021961E-1,4.514060020E0
1.638263905E0,8.718249321E0,-4.618147612E-1,4.514060020E0
1.640645832E0,8.718847275E0,-4.755735099E-1,4.528416634E0
1.643027759E0,8.714061737E0,-4.761717021E-1,4.523631096E0
1.645409686E0,8.704490662E0,-4.666004181E-1,4.537988186E0
1.647791613E0,8.699705124E0,-4.666004181E-1,4.528416634E0
1.650173541E0,8.694320679E0,-4.522434771E-1,4.537988186E0
1.652555468E0,8.694320679E0,-4.522434771E-1,4.547559261E0
1.654937343E0,8.694919586E0,-4.761717021E-1,4.518845558E0
1.657319270E0,8.699107170E0,-4.618147612E-1,4.514060020E0
1.659701197E0,8.694320679E0,-4.474578202E-1,4.509274483E0
1.662083124E0,8.694320679E0,-4.618147612E-1,4.504488468E0
1.664465051E0,8.708678246E0,-4.570291340E-1,4.485345840E0
1.666846978E0,8.703892708E0,-4.378865361E-1,4.480560303E0
1.669228905E0,8.679964066E0,-4.145565331E-1,4.490131855E0
1.671610832E0,8.698508263E0,-4.091726840E-1,4.470989227E0
1.673992759E0,8.684749603E0,-4.097708762E-1,4.466203690E0
1.676374686E0,8.679366112E0,-3.954139352E-1,4.460819721E0
1.678756613E0,8.669795036E0,-3.954139352E-1,4.460819721E0
1.681138488E0,8.679366112E0,-3.954139352E-1,4.451248169E0
1.683520416E0,8.674580574E0,-4.049852192E-1,4.442275047E0
1.685902343E0,8.675178528E0,-4.097708762E-1,4.442275047E0
1.688284270E0,8.656036377E0,-4.097708762E-1,4.447061062E0
1.690666197E0,8.665607452E0,-4.432703853E-1,4.456632137E0
1.693048124E0,8.689535141E0,-4.432703853E-1,4.442275047E0
1.695430051E0,8.689535141E0,-4.432703853E-1,4.447061062E0
1.697811978E0,8.703892708E0,-4.241278172E-1,4.432703972E0
1.700193905E0,8.703892708E0,-4.187439680E-1,4.456632137E0
1.702575832E0,8.699107170E0,-4.139583111E-1,4.466203690E0
1.704957759E0,8.708678246E0,-4.331009090E-1,4.466203690E0
1.707339634E0,8.713463783E0,-4.283152521E-1,4.470989227E0
1.709721561E0,8.718249321E0,-4.187439680E-1,4.485345840E0
1.712103488E0,8.713463783E0,-4.139583111E-1,4.485345840E0
1.714485416E0,8.717651367E0,-4.091726840E-1,4.480560303E0
1.716867343E0,8.723034859E0,-4.331009090E-1,4.485345840E0
1.719249270E0,8.713463783E0,-4.378865361E-1,4.470989227E0
1.721631197E0,8.718249321E0,-4.283152521E-1,4.475774765E0
1.724013124E0,8.713463783E0,-4.426721931E-1,4.461417675E0
1.726395051E0,8.718249321E0,-4.426721931E-1,4.485345840E0
1.728776978E0,8.699107170E0,-4.474578202E-1,4.456632137E0
1.731158905E0,8.694320679E0,-4.671986103E-1,4.437489510E0
1.733540780E0,8.680562019E0,-4.719842672E-1,4.442275047E0
1.735922707E0,8.685347557E0,-4.815555513E-1,4.437489510E0
1.738304634E0,8.666205406E0,-5.054838061E-1,4.442275047E0
1.740686561E0,8.651848793E0,-5.102694035E-1,4.437489510E0
1.743068488E0,8.656634331E0,-5.198407173E-1,4.423132420E0
1.745450416E0,8.647063255E0,-5.150550604E-1,4.423132420E0
1.747832343E0,8.647661209E0,-5.443671346E-1,4.404588223E0
1.750214270E0,8.638090134E0,-5.443671346E-1,4.390231133E0
1.752596197E0,8.642875671E0,-5.347958803E-1,4.385445595E0
1.754978124E0,8.662017822E0,-5.635097623E-1,4.380660057E0
1.757360051E0,8.666803360E0,-5.826523304E-1,4.371088982E0
1.759741926E0,8.681160927E0,-5.874379873E-1,4.356731892E0
1.762123853E0,8.695517540E0,-5.874379873E-1,4.337589264E0
1.764505780E0,8.715258598E0,-6.065805554E-1,4.342374802E0
1.766887707E0,8.719446182E0,-5.970092416E-1,4.332803726E0
1.769269634E0,8.715258598E0,-6.065805554E-1,4.313661098E0
1.771651561E0,8.710473061E0,-6.209374666E-1,4.308875561E0
1.774033488E0,8.724829674E0,-6.161518097E-1,4.308875561E0
1.776415416E0,8.729615211E0,-6.251249313E-1,4.323232174E0
1.778797343E0,8.705686569E0,-6.448656917E-1,4.323232174E0
1.781179270E0,8.715856552E0,-6.544370055E-1,4.332803726E0
1.783561197E0,8.701499939E0,-6.687939167E-1,4.347160339E0
1.785943072E0,8.706285477E0,-6.735795736E-1,4.342973232E0
1.788324999E0,8.696713448E0,-6.831508875E-1,4.362115860E0
1.790706926E0,8.682356834E0,-6.927221417E-1,4.357329845E0
1.793088853E0,8.692526817E0,-7.214360237E-1,4.366901398E0
1.795470780E0,8.678169250E0,-7.214360237E-1,4.390829563E0
1.797852707E0,8.682954788E0,-7.495517135E-1,4.405186653E0
1.800234634E0,8.678768158E0,-7.639086246E-1,4.424329281E0
1.802616561E0,8.678768158E0,-7.734799385E-1,4.443471432E0
1.804998488E0,8.688339233E0,-7.878368497E-1,4.462614059E0
1.807380416E0,8.693124771E0,-8.015955687E-1,4.491926193E0
1.809762291E0,8.678768158E0,-7.830511928E-1,4.491328239E0
1.812144218E0,8.703293800E0,-8.111668825E-1,4.520640373E0
1.814526145E0,8.698508263E0,-8.111668825E-1,4.520640373E0
1.816908072E0,8.707481384E0,-8.015955687E-1,4.549354076E0
1.819289999E0,8.703293800E0,-8.255237937E-1,4.539782524E0
1.821671926E0,8.732007980E0,-8.153542876E-1,4.530211449E0
1.824053853E0,8.717651367E0,-8.303094506E-1,4.511068821E0
1.826435780E0,8.708079338E0,-8.446664214E-1,4.482355118E0
1.828817707E0,8.732007980E0,-8.542376757E-1,4.453640938E0
1.831199634E0,8.732007980E0,-8.638089895E-1,4.444069862E0
1.833581509E0,8.727820396E0,-8.781659007E-1,4.429712772E0
1.835963436E0,8.723034859E0,-8.835497499E-1,4.377070904E0
1.838345363E0,8.712865829E0,-8.644071817E-1,4.353142738E0
1.840727291E0,8.718249321E0,-8.835497499E-1,4.334000111E0
1.843109218E0,8.699107170E0,-8.883354068E-1,4.310071945E0
1.845491145E0,8.694320679E0,-8.985049129E-1,4.305285931E0
1.847873072E0,8.694320679E0,-9.032905698E-1,4.295714855E0
1.850254999E0,8.675178528E0,-9.224331379E-1,4.286143780E0
1.852636926E0,8.675776482E0,-9.415757060E-1,4.272384644E0
1.855018853E0,8.666205406E0,-9.559326172E-1,4.281956196E0
1.857400780E0,8.637491226E0,-9.708877802E-1,4.267599106E0
1.859782655E0,8.638090134E0,-9.900303483E-1,4.272384644E0
1.862164582E0,8.633303642E0,-1.004387259E0,4.262813568E0
1.864546509E0,8.614161491E0,-1.004387259E0,4.272384644E0
1.866928436E0,8.614161491E0,-1.028315544E0,4.277170658E0
1.869310363E0,8.609973907E0,-1.057029366E0,4.287340164E0
1.871692291E0,8.595617294E0,-1.061815023E0,4.292125702E0
1.874074218E0,8.586046219E0,-1.061815023E0,4.296911240E0
1.876456145E0,8.605188370E0,-1.080957651E0,4.292125702E0
1.878838072E0,8.610571861E0,-1.095314622E0,4.292125702E0
1.881219999E0,8.614759445E0,-1.080957651E0,4.292125702E0
1.883601926E0,8.638688087E0,-1.075573802E0,4.287340164E0
1.885983801E0,8.648259163E0,-1.061216831E0,4.301696777E0
1.888365728E0,8.681758881E0,-1.070788145E0,4.282554150E0
1.890747655E0,8.696115494E0,-1.089332461E0,4.263411522E0
1.893129582E0,8.724829674E0,-1.079761267E0,4.258625984E0
1.895511509E0,8.734400749E0,-1.084546804E0,4.249054909E0
1.897893436E0,8.772686005E0,-1.098305583E0,4.234697819E0
1.900275363E0,8.791828156E0,-1.122233868E0,4.225126743E0
1.902657291E0,8.810971260E0,-1.121635556E0,4.239483356E0
1.905039218E0,8.811569214E0,-1.140778184E0,4.244269371E0
1.907421145E0,8.820542336E0,-1.107278705E0,4.263411522E0
1.909803020E0,8.840283394E0,-1.135992527E0,4.272983074E0
1.912184947E0,8.854640007E0,-1.144965649E0,4.282554150E0
1.914566874E0,8.878568649E0,-1.144965649E0,4.301696777E0
1.916948801E0,8.901898384E0,-1.130010486E0,4.320839405E0
1.919330728E0,8.925827026E0,-1.110269666E0,4.354339123E0
1.921712655E0,8.954540253E0,-1.129412293E0,4.373481750E0
1.924094582E0,8.978468895E0,-1.104885817E0,4.401597023E0
1.926476509E0,8.997013092E0,-1.089930773E0,4.444668293E0
1.928858436E0,8.992227554E0,-1.075573802E0,4.468596458E0
1.931240363E0,9.001798630E0,-1.089930773E0,4.473381996E0
1.933622238E0,8.992227554E0,-1.070788145E0,4.473381996E0
1.936004166E0,8.973084450E0,-1.047458172E0,4.463810444E0
1.938386093E0,8.944371223E0,-1.037886858E0,4.487739086E0
1.940768020E0,8.895915985E0,-1.004985452E0,4.473381996E0
1.943149947E0,8.843274117E0,-9.912267923E-1,4.478167534E0
1.945531874E0,8.790632248E0,-9.631111026E-1,4.468596458E0
1.947913801E0,8.723632812E0,-9.595218897E-1,4.463810444E0
1.950295728E0,8.670990944E0,-9.553344250E-1,4.449453831E0
1.952677655E0,8.614161491E0,-9.649057388E-1,4.487739086E0
1.955059582E0,8.566305161E0,-9.798609018E-1,4.506881237E0
1.957441509E0,8.523234367E0,-9.804590940E-1,4.540380955E0
1.959823436E0,8.494520187E0,-9.852447510E-1,4.602594376E0
1.962205311E0,8.504091263E0,-9.798609018E-1,4.664807796E0
1.964587238E0,8.532805443E0,-9.888339639E-1,4.693521500E0
1.966969166E0,8.571090698E0,-9.936196208E-1,4.683950424E0
1.969351093E0,8.585447311E0,-9.984052777E-1,4.621737003E0
1.971733020E0,8.600402832E0,-1.017547846E0,4.521238327E0
1.974114947E0,8.595019341E0,-1.018146038E0,4.401597023E0
1.976496874E0,8.609375954E0,-1.028315544E0,4.277170658E0
1.978878801E0,8.580661774E0,-1.033699393E0,4.200600147E0
1.981260728E0,8.566305161E0,-1.034297585E0,4.167100430E0
1.983642655E0,8.557332039E0,-1.039083242E0,4.119244099E0
1.986024582E0,8.547760963E0,-1.048654556E0,4.129413605E0
1.988406457E0,8.528617859E0,-1.063011408E0,4.143770695E0
1.990788384E0,8.514261246E0,-1.058225870E0,4.177269936E0
1.993170311E0,8.514261246E0,-1.067797065E0,4.186841488E0
1.995552238E0,8.519046783E0,-1.053440213E0,4.191627026E0
1.997934166E0,8.533403397E0,-1.043868899E0,4.196412563E0
2.000316093E0,8.538188934E0,-1.039083242E0,4.205984116E0
2.002698020E0,8.518448830E0,-1.000798106E0,4.195814610E0
2.005079947E0,8.504091263E0,-9.774680734E-1,4.214957237E0
2.007461874E0,8.499305725E0,-9.726824164E-1,4.210171223E0
2.009843801E0,8.522636414E0,-9.337990284E-1,4.224528313E0
2.012225728E0,8.527421951E0,-9.146564603E-1,4.234099865E0
2.014607603E0,8.550751686E0,-9.050851464E-1,4.238286972E0
2.016989530E0,8.579465866E0,-8.805587292E-1,4.257429600E0
2.019371457E0,8.612964630E0,-8.703892231E-1,4.257429600E0
2.021753384E0,8.636295319E0,-8.608179688E-1,4.271786690E0
2.024135311E0,8.626724243E0,-8.464609981E-1,4.286143780E0
2.026517238E0,8.669795036E0,-8.602197170E-1,4.267001152E0
2.028899166E0,8.708079338E0,-8.410771489E-1,4.262215137E0
2.031281093E0,8.712266922E0,-8.267202377E-1,4.267001152E0
2.033663020E0,8.736195564E0,-7.974081635E-1,4.247260094E0
2.036044947E0,8.755337715E0,-7.926225066E-1,4.242474556E0
2.038426822E0,8.755337715E0,-7.974081635E-1,4.228117466E0
2.040808749E0,8.778668404E0,-7.734799385E-1,4.223331928E0
2.043190676E0,8.793025017E0,-7.543373108E-1,4.208974838E0
2.045572603E0,8.821739197E0,-7.441678643E-1,4.194618225E0
2.047954530E0,8.849854469E0,-7.345965505E-1,4.185046673E0
2.050336457E0,8.873783112E0,-7.393822074E-1,4.156332970E0
2.052718384E0,8.912068367E0,-7.244270444E-1,4.137190342E0
2.055100311E0,8.921639442E0,-7.244270444E-1,4.122833252E0
2.057482238E0,8.926424980E0,-7.148557901E-1,4.103092670E0
2.059864166E0,8.949754715E0,-7.052844763E-1,4.074378967E0
2.062246093E0,8.964112282E0,-6.813562512E-1,4.055236340E0
2.064627968E0,8.973683357E0,-7.004988194E-1,4.002593994E0
2.067009895E0,9.011968613E0,-6.909275651E-1,3.954737663E0
2.069391822E0,9.016754150E0,-6.861419082E-1,3.906282902E0
2.071773749E0,9.026325226E0,-6.909275651E-1,3.872783422E0
2.074155676E0,9.020941734E0,-6.819544435E-1,3.834498405E0
2.076537603E0,9.035298347E0,-6.717849374E-1,3.829712629E0
2.078919530E0,9.035298347E0,-6.580262184E-1,3.796213150E0
2.081301457E0,9.044869423E0,-6.771687865E-1,3.791427374E0
2.083683384E0,9.034700394E0,-6.197410822E-1,3.776472330E0
2.086065311E0,9.039485931E0,-5.862415433E-1,3.781257868E0
2.088447238E0,9.005986214E0,-5.820540786E-1,3.762115479E0
2.090829113E0,9.010173798E0,-5.676971674E-1,3.742972851E0
2.093211041E0,9.000602722E0,-5.240281820E-1,3.738187075E0
2.095592968E0,8.995218277E0,-4.863412082E-1,3.718446493E0
2.097974895E0,9.023334503E0,-4.570291340E-1,3.708875179E0
2.100356822E0,9.013762474E0,-4.283152521E-1,3.737588882E0
2.102738749E0,8.989236832E0,-3.954139352E-1,3.756731510E0
2.105120676E0,8.979664803E0,-3.571287692E-1,3.770490170E0
2.107502603E0,8.979664803E0,-3.475574851E-1,3.765704632E0
2.109884530E0,8.979066849E0,-3.236292601E-1,3.756133318E0
2.112266457E0,8.983852386E0,-3.188436031E-1,3.746562004E0
2.114648332E0,8.974281311E0,-2.949153781E-1,3.751347780E0
2.117030259E0,8.973683357E0,-2.805584669E-1,3.751347780E0
2.119412186E0,8.983254433E0,-2.709871531E-1,3.727419376E0
2.121794113E0,8.992825508E0,-2.709871531E-1,3.732205153E0
2.124176041E0,9.002396584E0,-2.709871531E-1,3.751347780E0
2.126557968E0,9.020941734E0,-2.422732860E-1,3.722633839E0
2.128939895E0,9.040083885E0,-2.273181528E-1,3.745963812E0
2.131321822E0,9.083154678E0,-2.075773627E-1,3.765106440E0
2.133703749E0,9.120841980E0,-1.932204217E-1,3.745963812E0
2.136085676E0,9.178269386E0,-1.878365725E-1,3.731606960E0
2.138467603E0,9.235098839E0,-1.633101404E-1,3.712464333E0
2.140849530E0,9.297312737E0,-1.483550072E-1,3.697509289E0
2.143231405E0,9.373882294E0,-1.573280841E-1,3.697509289E0
2.145613332E0,9.440283775E0,-1.274178028E-1,3.711866140E0
2.147995259E0,9.497711182E0,-1.268195957E-1,3.731008768E0
2.150377186E0,9.555138588E0,-1.070788130E-1,3.745365620E0
2.152759113E0,9.607781410E0,-1.112662554E-1,3.764508247E0
2.155141041E0,9.665208817E0,-1.202393398E-1,3.798007727E0
2.157522968E0,9.736993790E0,-1.190429255E-1,3.812364578E0
2.159904895E0,9.808777809E0,-1.280160099E-1,3.836292982E0
2.162286822E0,9.870991707E0,-1.124626622E-1,3.878765583E0
2.164668749E0,9.909276962E0,-1.172483116E-1,3.873979807E0
2.167050676E0,9.966106415E0,-1.214357466E-1,3.850051641E0
2.169432551E0,9.981060982E0,-1.405783296E-1,3.816552162E0
2.171814478E0,1.001456070E1,-1.549352705E-1,3.730410576E0
2.174196405E0,1.000498962E1,-1.555334777E-1,3.649054527E0
2.176578332E0,9.995418549E0,-1.794617027E-1,3.587439299E0
2.178960259E0,9.961918831E0,-1.513460279E-1,3.500699520E0
2.181342186E0,9.933204651E0,-1.573280841E-1,3.352344513E0
2.183724113E0,9.851250648E0,-1.304088384E-1,3.242274761E0
2.186106041E0,9.779465675E0,-1.124626622E-1,3.108276606E0
2.188487968E0,9.702896118E0,-9.930214286E-2,2.983849764E0
2.190869895E0,9.601799011E0,-7.238288224E-2,2.845066071E0
2.193251770E0,9.476774216E0,-4.067798331E-2,2.743969440E0
2.195633697E0,9.361918449E0,-1.854437590E-2,2.629113913E0
2.198015624E0,9.218349457E0,7.776673418E-3,2.576471806E0
2.200397551E0,9.074181557E0,5.862415582E-2,2.509472847E0
2.202779478E0,8.925827026E0,1.142572835E-1,2.499901533E0
2.205161405E0,8.787042618E0,1.609173268E-1,2.504088879E0
2.207543332E0,8.628518105E0,2.356930375E-1,2.508874655E0
2.209925259E0,8.484351158E0,3.008974493E-1,2.542374134E0
2.212307186E0,8.353941917E0,3.858426511E-1,2.575275421E0
2.214689113E0,8.224729538E0,4.468596280E-1,2.603989124E0
2.217071041E0,8.123034477E0,5.365904570E-1,2.651845694E0
2.219452916E0,8.008178711E0,5.790630579E-1,2.694318295E0
2.221834843E0,7.911868095E0,6.592226624E-1,2.727817774E0
2.224216770E0,7.815557003E0,7.202396393E-1,2.756531715E0
2.226598697E0,7.752745152E0,7.866404653E-1,2.746362209E0
2.228980624E0,7.661220074E0,8.668000102E-1,2.775076151E0
2.231362551E0,7.588837147E0,9.379864931E-1,2.818146944E0
2.233744478E0,7.540382385E0,9.996016622E-1,2.861217737E0
2.236126405E0,7.502097130E0,1.028315544E0,2.909074068E0
2.238508332E0,7.440482140E0,1.013360381E0,2.947359324E0
2.240890259E0,7.392027378E0,1.036690354E0,2.952144861E0
2.243272186E0,7.339983463E0,1.012762189E0,3.014358282E0
2.245654061E0,7.316653252E0,9.649057388E-1,3.062813044E0
2.248035988E0,7.298109055E0,9.218349457E-1,3.134597778E0
2.250417916E0,7.274180889E0,8.458628058E-1,3.192623615E0
2.252799843E0,7.265805721E0,7.788637877E-1,3.283550978E0
2.255181770E0,7.247261524E0,7.124629617E-1,3.389433384E0
2.257563697E0,7.224529743E0,6.269195080E-1,3.504288673E0
2.259945624E0,7.277770042E0,5.659025311E-1,3.624528170E0
2.262327551E0,7.321439266E0,5.324030519E-1,3.710669756E0
2.264709478E0,7.389036179E0,4.857429862E-1,3.801596880E0
2.267091405E0,7.451848030E0,4.247260094E-1,3.921836376E0
2.269473280E0,7.562515736E0,3.553341627E-1,4.037290096E0
2.271855207E0,7.673183918E0,2.949153781E-1,4.167100430E0
2.274237134E0,7.836493969E0,2.015953064E-1,4.281956196E0
2.276619061E0,8.009973526E0,9.391828626E-2,4.445266247E0
2.279000988E0,8.192426682E0,-1.316052489E-2,4.598406792E0
2.281382916E0,8.380263329E0,-1.441675574E-1,4.766502857E0
2.283764843E0,8.563912392E0,-2.656033039E-1,4.901099205E0
2.286146770E0,8.770891190E0,-3.966103494E-1,5.035695076E0
2.288528697E0,8.972486496E0,-5.036891699E-1,5.194219589E0
2.290910624E0,9.141180992E0,-6.209374666E-1,5.328815937E0
2.293292551E0,9.328418732E0,-7.334001660E-1,5.443671703E0
2.295674478E0,9.487542152E0,-8.410771489E-1,5.549553871E0
2.298056353E0,9.656833649E0,-9.720842242E-1,5.703292847E0
2.300438280E0,9.811170578E0,-1.084546804E0,5.818746567E0
2.302820207E0,9.979267120E0,-1.202393413E0,5.828317642E0
2.305202134E0,1.013300610E1,-1.276570916E0,5.934200287E0
2.307584061E0,1.025384331E1,-1.399203062E0,5.967699528E0
2.309965988E0,1.039322472E1,-1.502692580E0,5.992226124E0
2.312347916E0,1.050389290E1,-1.587637782E0,5.977869034E0
2.314729843E0,1.063908768E1,-1.687538147E0,5.954539299E0
2.317111770E0,1.070728302E1,-1.772483349E0,5.959922791E0
2.319493697E0,1.079342461E1,-1.814955950E0,5.950351715E0
2.321875572E0,1.083230782E1,-1.862214208E0,5.945566177E0
2.324257499E0,1.083230782E1,-1.862214208E0,5.940780640E0
2.326639426E0,1.084726334E1,-1.924427629E0,5.898307800E0
2.329021353E0,1.083350468E1,-1.963310957E0,5.783452511E0
2.331403280E0,1.083888817E1,-2.035095692E0,5.673382282E0
2.333785207E0,1.084427261E1,-2.097907305E0,5.606981754E0
2.336167186E0,1.085384369E1,-2.126621008E0,5.554339409E0
2.338596770E0,1.084965611E1,-2.155334949E0,5.501697540E0
2.341026353E0,1.078684425E1,-2.123031855E0,5.477769375E0
2.343455988E0,1.065224838E1,-2.076970100E0,5.362913609E0
2.345885468E0,1.059003448E1,-2.078166485E0,5.243272781E0
2.348314999E0,1.051286602E1,-2.041675806E0,5.109274387E0
2.350744530E0,1.043150997E1,-2.018944025E0,4.974678040E0
2.353174061E0,1.032144070E1,-1.987239242E0,4.907081127E0
2.355603593E0,1.019581699E1,-1.902294040E0,4.868795872E0
2.358033124E0,1.004686451E1,-1.804188251E0,4.777270317E0
2.360462655E0,9.926026344E0,-1.701296926E0,4.595416069E0
2.362892186E0,9.805189133E0,-1.583450437E0,4.436891556E0
2.365321718E0,9.670592308E0,-1.490130305E0,4.278367043E0
2.367751249E0,9.565308571E0,-1.467996716E0,4.115654945E0
2.370180780E0,9.440283775E0,-1.450648785E0,4.010370731E0
2.372610259E0,9.296115875E0,-1.399801254E0,3.948157310E0
2.375039791E0,9.166305542E0,-1.325025558E0,3.899702787E0
2.377469322E0,9.046066284E0,-1.226321578E0,3.856033802E0
2.379898853E0,8.949754715E0,-1.150947690E0,3.793820381E0
2.382328384E0,8.863015175E0,-1.076171994E0,3.702294827E0
2.384757916E0,8.785846710E0,-1.024128079E0,3.692723513E0
2.387187447E0,8.679964066E0,-9.583254457E-1,3.697509289E0
2.389616978E0,8.588438988E0,-8.781659007E-1,3.701696634E0
2.392046509E0,8.507082939E0,-8.362914920E-1,3.658625841E0
2.394476041E0,8.434700012E0,-8.183453679E-1,3.663411379E0
2.396905572E0,8.376673698E0,-7.567301393E-1,3.662813187E0
2.399335051E0,8.299505234E0,-6.999006271E-1,3.672384501E0
2.401764582E0,8.261219978E0,-6.861419082E-1,3.681955814E0
2.404194113E0,8.222336769E0,-6.628118753E-1,3.696312666E0
2.406623645E0,8.179265976E0,-6.245267391E-1,3.720241070E0
2.409053176E0,8.160123825E0,-6.101697683E-1,3.763311863E0
2.411482707E0,8.126026154E0,-5.676971674E-1,3.820141315E0
2.413912238E0,8.092526436E0,-5.676971674E-1,3.853640795E0
2.416341770E0,8.078168869E0,-5.527420044E-1,3.887140274E0
2.418771301E0,8.030312538E0,-5.240281820E-1,3.940380573E0
2.421200832E0,7.992027760E0,-4.911268353E-1,3.983451605E0
2.423630311E0,7.972286701E0,-4.384847581E-1,3.983451605E0
2.426059895E0,7.957331657E0,-4.199403822E-1,3.988237143E0
2.428489374E0,7.976474285E0,-4.049852192E-1,3.982853174E0
2.430918905E0,8.009973526E0,-3.810569942E-1,3.949353695E0
2.433348436E0,8.028517723E0,-3.427718580E-1,3.968496323E0
2.435777968E0,8.070990562E0,-2.991028428E-1,3.953541279E0
2.438207499E0,8.094321251E0,-2.751746178E-1,3.963112593E0
2.440637030E0,8.113463402E0,-2.315055877E-1,3.967898130E0
2.443066561E0,8.151150703E0,-1.980060786E-1,3.982254982E0
2.445496093E0,8.150551796E0,-1.692921966E-1,3.986442566E0
2.447925624E0,8.198408127E0,-1.495514214E-1,3.976871252E0
2.450355155E0,8.207980156E0,-1.399801224E-1,3.981656790E0
2.452784634E0,8.216953278E0,-1.202393398E-1,4.015156269E0
2.455214166E0,8.236095428E0,-1.154536903E-1,3.996013880E0
2.457643697E0,8.274380684E0,-9.571290761E-2,4.043870449E0
2.460027082E0,8.297710419E0,-6.221338734E-2,4.071985722E0
2.462409009E0,8.354539871E0,-2.811566554E-2,4.095914364E0
2.464790936E0,8.388039589E0,5.982056726E-3,4.110270977E0
2.467172863E0,8.431110382E0,4.965107143E-2,4.114458561E0
2.469554791E0,8.487939835E0,6.939185411E-2,4.124029636E0
2.471936718E0,8.516654015E0,8.853443712E-2,4.133601189E0
2.474318645E0,8.540582657E0,1.034895778E-1,4.104887009E0
2.476700572E0,8.578269005E0,1.274178028E-1,4.066003799E0
2.479082447E0,8.577671051E0,1.609173268E-1,4.066003799E0
2.481464374E0,8.582456589E0,1.896311939E-1,4.042075634E0
2.483846301E0,8.567501068E0,2.225325108E-1,4.046861172E0
2.486228228E0,8.572287560E0,2.560320199E-1,4.046263218E0
2.488610155E0,8.562117577E0,3.086741269E-1,4.022335052E0
2.490992082E0,8.590232849E0,3.708875179E-1,4.031906128E0
2.493374009E0,8.598608017E0,4.618147612E-1,4.007379532E0
2.495755936E0,8.617152214E0,4.905286431E-1,4.002593994E0
2.498137863E0,8.631509781E0,5.150550604E-1,4.016352654E0
2.500519791E0,8.650053978E0,5.389832854E-1,4.006781578E0
2.502901666E0,8.683553696E0,5.635097623E-1,3.963710785E0
2.505283593E0,8.682954788E0,6.161518097E-1,3.953541279E0
2.507665520E0,8.682356834E0,6.729813814E-1,3.939184189E0
2.510047447E0,8.696115494E0,7.112665176E-1,3.909872293E0
2.512429374E0,8.691329956E0,7.208378315E-1,3.919443607E0
2.514811301E0,8.687142372E0,6.873382926E-1,3.909872293E0
2.517193228E0,8.667402267E0,7.016952634E-1,3.909872293E0
2.519575155E0,8.676973343E0,6.969096065E-1,3.963112593E0
2.521957082E0,8.672785759E0,6.873382926E-1,3.958326817E0
2.524339009E0,8.663214684E0,6.538388133E-1,3.967898130E0
2.526720936E0,8.639286041E0,6.538388133E-1,3.963112593E0
2.529102863E0,8.620143890E0,6.586244106E-1,3.972683907E0
2.531484738E0,8.610571861E0,6.675975323E-1,3.948755503E0
2.533866666E0,8.596215248E0,6.771687865E-1,3.948755503E0
2.536248593E0,8.605786324E0,6.532405615E-1,3.958326817E0
2.538630520E0,8.606385231E0,6.484549642E-1,3.958326817E0
2.541012447E0,8.620741844E0,6.490531564E-1,3.987040758E0
2.543394374E0,8.630312920E0,6.490531564E-1,4.025325775E0
2.545776301E0,8.601598740E0,6.394818425E-1,4.101896286E0
2.548158228E0,8.615956306E0,6.161518097E-1,4.155136585E0
2.550540155E0,8.635098457E0,6.358926296E-1,4.183252335E0
2.552922082E0,8.625527382E0,6.592226624E-1,4.202394962E0
2.555304009E0,8.644071579E0,6.885347366E-1,4.202394962E0
2.557685884E0,8.648857117E0,6.885347366E-1,4.216751575E0
2.560067811E0,8.663214684E0,6.837490797E-1,4.245465755E0
2.562449738E0,8.682954788E0,6.604190469E-1,4.298107624E0
2.564831666E0,8.711071014E0,6.753742099E-1,4.298107624E0
2.567213593E0,8.730213165E0,6.610172391E-1,4.317250252E0
2.569595520E0,8.759525299E0,6.137589812E-1,4.375276089E0
2.571977447E0,8.788837433E0,5.665007830E-1,4.418346882E0
2.574359374E0,8.827720642E0,5.090730190E-1,4.456632137E0
2.576741301E0,8.870791435E0,4.815555513E-1,4.490131855E0
2.579123228E0,8.904889107E0,4.534398913E-1,4.519443989E0
2.581505103E0,8.928817749E0,4.247260094E-1,4.548157692E0
2.583887030E0,8.948558807E0,3.966103494E-1,4.605585575E0
2.586268957E0,8.968298912E0,3.302095234E-1,4.605585575E0
2.588650884E0,8.997013092E0,3.110669553E-1,4.620540619E0
2.591032811E0,9.016754150E0,2.685943544E-1,4.630111694E0
2.593414738E0,9.031110764E0,2.638086975E-1,4.615755081E0
2.595796666E0,9.050253868E0,2.542374134E-1,4.582255363E0
2.598178593E0,9.074181557E0,2.494517565E-1,4.510470867E0
2.600560520E0,9.083154678E0,2.590230405E-1,4.472185612E0
2.602942447E0,9.097511292E0,2.632105052E-1,4.371686935E0
2.605324374E0,9.121439934E0,2.536391914E-1,4.266402721E0
2.607706249E0,9.169296265E0,2.392822653E-1,4.175475597E0
2.610088176E0,9.198608398E0,1.866401732E-1,4.060619831E0
2.612470103E0,9.193822861E0,1.531406492E-1,4.003192425E0
2.614852030E0,9.208778381E0,9.092725813E-2,3.960719585E0
2.617233957E0,9.203991890E0,9.032905847E-2,3.912265062E0
2.619615884E0,9.214161873E0,2.871387079E-2,3.912265062E0
2.621997811E0,9.234500885E0,-4.307080805E-2,3.927220106E0
2.624379738E0,9.259027481E0,-9.990034252E-2,3.994817495E0
2.626761666E0,9.230911255E0,-1.519442350E-1,4.086342812E0
2.629143593E0,9.226723671E0,-2.093719840E-1,4.162913322E0
2.631525520E0,9.208179474E0,-2.667997181E-1,4.225724697E0
2.633907447E0,9.208778381E0,-3.236292601E-1,4.297509670E0
2.636289374E0,9.195018768E0,-3.667000830E-1,4.345366001E0
2.638671249E0,9.185447693E0,-3.852444589E-1,4.412963390E0
2.641053176E0,9.190233231E0,-3.852444589E-1,4.451248169E0
2.643435103E0,9.190233231E0,-3.804588020E-1,4.484747887E0
2.645817030E0,9.204590797E0,-3.607180119E-1,4.503292084E0
2.648198957E0,9.203991890E0,-3.176472187E-1,4.551148891E0
2.650580884E0,9.222537041E0,-2.500499785E-1,4.603790760E0
2.652962811E0,9.226723671E0,-1.830509305E-1,4.641477585E0
2.655344738E0,9.240483284E0,-1.304088384E-1,4.708476543E0
2.657726666E0,9.292527199E0,-6.759724021E-2,4.727021217E0
2.660108593E0,9.311071396E0,-3.828516230E-2,4.746163845E0
2.662490468E0,9.349356651E0,-4.187439568E-3,4.770092010E0
2.664872395E0,9.396614075E0,1.016949583E-2,4.740779877E0
2.667254322E0,9.444471359E0,2.033899166E-2,4.716851711E0
2.669636249E0,9.496515274E0,4.486542568E-2,4.707280159E0
2.672018176E0,9.534799576E0,3.529413417E-2,4.683351994E0
2.674400103E0,9.621540070E0,6.041877344E-2,4.668995380E0
2.676782030E0,9.673583984E0,7.956135273E-2,4.644468784E0
2.679163957E0,9.740582466E0,8.973085135E-2,4.634897232E0
2.681545884E0,9.798010826E0,7.118647546E-2,4.615755081E0
2.683927811E0,9.878767967E0,8.195417374E-2,4.610969067E0
2.686309686E0,9.969695091E0,7.298108935E-2,4.591826439E0
2.688691613E0,1.002712345E1,4.965107143E-2,4.577469826E0
2.691073541E0,1.009472084E1,2.213360928E-2,4.610969067E0
2.693455468E0,1.015214825E1,1.794617064E-2,4.644468784E0
2.695837395E0,1.020479012E1,9.571290575E-3,4.697110653E0
2.698219322E0,1.028614616E1,-1.794617064E-2,4.754538536E0
2.700601249E0,1.036271667E1,-2.153540403E-2,4.831109047E0
2.702983176E0,1.047757244E1,-2.512463741E-2,4.931607246E0
2.705365103E0,1.058704376E1,-1.375873014E-2,5.027320385E0
2.707747030E0,1.073121166E1,-4.067798331E-2,5.099703312E0
2.710128905E0,1.086042404E1,-6.281159073E-2,5.114060402E0
2.712510884E0,1.100339508E1,-2.811566554E-2,5.056034088E0
2.714892759E0,1.112303638E1,-2.751746029E-2,4.911866665E0
2.717274686E0,1.126062298E1,1.615155302E-2,4.773082733E0
2.719656613E0,1.139402294E1,6.041877344E-2,4.638486862E0
2.722038541E0,1.155135155E1,8.494520187E-2,4.480560303E0
2.724420468E0,1.170329571E1,1.100698411E-1,4.322035789E0
2.726802395E0,1.186122227E1,1.537388563E-1,4.182653904E0
2.729184322E0,1.204247856E1,1.597209126E-1,4.034298897E0
2.731566249E0,1.220937729E1,1.950150430E-1,3.948157310E0
2.733948176E0,1.237986660E1,2.871387303E-1,3.808177233E0
2.736330103E0,1.257547951E1,3.026920557E-1,3.673580885E0
2.738711978E0,1.279023552E1,3.284149170E-1,3.539582968E0
2.741093905E0,1.298166084E1,3.678964674E-1,3.395415306E0
2.743475832E0,1.321017551E1,4.127618968E-1,3.260818958E0
2.745857759E0,1.342971706E1,4.432703853E-1,3.179463148E0
2.748226405E0,1.363430309E1,5.030909777E-1,3.164507866E0
2.750607759E0,1.388196087E1,5.485545993E-1,3.159124136E0
2.753036718E0,1.411167145E1,5.850451589E-1,3.130410194E0
2.755465676E0,1.435992718E1,6.017948985E-1,3.101098061E0
2.757895311E0,1.484746456E1,5.653043389E-1,3.340380430E0
2.760311301E0,1.507238960E1,5.533402562E-1,3.488735437E0
2.762754322E0,1.528355598E1,5.084748268E-1,3.617947817E0
2.765183853E0,1.548515129E1,4.444667995E-1,3.771088600E0
2.767599843E0,1.567179203E1,3.804588020E-1,3.934398651E0
2.770042916E0,1.585962868E1,2.877369225E-1,4.145565033E0
2.772472447E0,1.606182289E1,1.429711580E-1,4.284348965E0
2.774888436E0,1.620718575E1,-4.127619043E-2,4.424329281E0
2.777331509E0,1.634776497E1,-2.063809484E-1,4.587639332E0
2.779761041E0,1.646979904E1,-4.384847581E-1,4.765306473E0
2.782177030E0,1.657747459E1,-6.861419082E-1,4.847858906E0
2.784620103E0,1.665643883E1,-9.092726111E-1,4.997410297E0
2.787049634E0,1.665344810E1,-1.080359459E0,5.146961689E0
2.789479166E0,1.668455315E1,-1.284945726E0,5.210371494E0
2.791908645E0,1.665344810E1,-1.485942841E0,5.220541000E0
2.794338176E0,1.658824348E1,-1.654636860E0,5.173880577E0
2.796767707E0,1.644586945E1,-1.771286964E0,5.131408215E0
2.799197238E0,1.625085449E1,-1.913061738E0,4.911268711E0
2.801626770E0,1.597388554E1,-1.960319996E0,4.610371113E0
2.804056301E0,1.572144318E1,-2.051247120E0,4.218546391E0
2.806485832E0,1.542592907E1,-2.142174482E0,3.806980848E0
2.808915363E0,1.509631824E1,-2.219342947E0,3.443870068E0
2.811331353E0,1.471885014E1,-2.248655081E0,3.080759048E0
2.813774426E0,1.432223988E1,-2.206780672E0,2.716451883E0
2.816203905E0,1.391007614E1,-2.165504456E0,2.343171597E0
2.818619947E0,1.347936821E1,-2.114058733E0,1.998605132E0
2.821062968E0,1.305763340E1,-2.029711723E0,1.667797327E0
2.823492499E0,1.264008522E1,-1.935195327E0,1.347159147E0
2.825908488E0,1.219442272E1,-1.792822361E0,1.083350420E0
2.828351561E0,1.177149105E1,-1.635494232E0,8.530412912E-1
2.830781093E0,1.137787151E1,-1.445264935E0,6.466603279E-1
2.833197082E0,1.099801064E1,-1.249651670E0,4.348955154E-1
2.835640155E0,1.064207840E1,-1.048654556E0,2.333002090E-1
2.838069686E0,1.031007481E1,-8.572286963E-1,2.691925503E-2
2.840485676E0,1.002652550E1,-6.747759581E-1,-1.842473447E-1
2.842928697E0,9.751948357E0,-4.965106845E-1,-3.379862010E-1
2.845358228E0,9.472586632E0,-3.278166950E-1,-4.534398913E-1
2.847774218E0,9.265607834E0,-1.639083475E-1,-6.125625968E-1
2.850217291E0,9.067601204E0,-8.973085321E-3,-7.088736892E-1
2.852646822E0,8.899505615E0,1.082752272E-1,-8.045865893E-1
2.855062811E0,8.740383148E0,2.117647976E-1,-8.434699774E-1
2.857505884E0,8.629714966E0,2.865405083E-1,-8.817551732E-1
2.859935416E0,8.533403397E0,3.714857101E-1,-9.254241586E-1
2.862351405E0,8.427521706E0,4.516452849E-1,-9.349954724E-1
2.864794478E0,8.325826645E0,5.222335458E-1,-9.643075466E-1
2.867224009E0,8.277371407E0,5.934200287E-1,-9.882357717E-1
2.869653488E0,8.214560509E0,6.454638839E-1,-1.003190875E0
2.872083020E0,8.176275253E0,6.735795736E-1,-9.888339639E-1
2.874481561E0,8.151748657E0,7.214360237E-1,-9.553344250E-1
2.876863488E0,8.166105270E0,7.501499057E-1,-9.888339639E-1
2.879245416E0,8.203792572E0,7.645068169E-1,-1.046261668E0
2.881627343E0,8.232506752E0,7.651050687E-1,-1.065404296E0
2.884009270E0,8.309076309E0,7.459624410E-1,-1.127617717E0
2.886391197E0,8.394619942E0,7.710871100E-1,-1.133001566E0
2.888773124E0,8.486145973E0,7.674978375E-1,-1.128215909E0
2.891155051E0,8.591429710E0,7.447660565E-1,-1.123430252E0
2.893536978E0,8.711668968E0,7.076773047E-1,-1.113858938E0
2.895918853E0,8.878568649E0,6.855437160E-1,-1.104287624E0
2.898300780E0,9.046664238E0,6.065805554E-1,-1.055832982E0
2.900682707E0,9.172885895E0,4.594219327E-1,-1.007378340E0
2.903064634E0,9.326624870E0,3.469592929E-1,-9.260223508E-1
2.905446561E0,9.509077072E0,2.440679073E-1,-8.440681696E-1
2.907828488E0,9.673583984E0,1.268195957E-1,-6.622136831E-1
2.910210416E0,9.775279045E0,2.392822690E-2,-4.169493318E-1
2.912592343E0,9.881160736E0,-3.529413417E-2,-1.196411327E-1
2.914974270E0,9.958329201E0,-8.075776696E-2,1.818545163E-1
2.917356197E0,1.006899738E1,-1.262213886E-1,4.642075896E-1
2.919738124E0,1.017009449E1,-1.668993831E-1,7.136593461E-1
2.922120051E0,1.029452133E1,-2.171486616E-1,9.487541914E-1
2.924501926E0,1.036690426E1,-2.440679073E-1,1.178465128E0
2.926870624E0,1.042971611E1,-2.853440940E-1,1.360319614E0
2.929265780E0,1.050628567E1,-3.080759048E-1,1.465603828E0
2.931647707E0,1.054935646E1,-3.308077157E-1,1.566102386E0
2.934029634E0,1.059362411E1,-4.067798555E-1,1.648056626E0
2.936411561E0,1.061815071E1,-4.827519655E-1,1.696511269E0
2.938793488E0,1.059003448E1,-5.353940725E-1,1.754537225E0
2.941175416E0,1.050927734E1,-5.940182209E-1,1.774278045E0
2.943557343E0,1.042373371E1,-6.233302951E-1,1.783849239E0
2.945939270E0,1.032861900E1,-6.628118753E-1,1.697707653E0
2.948321197E0,1.018564796E1,-6.891329288E-1,1.616351724E0
2.950703072E0,1.003729248E1,-6.813562512E-1,1.511067510E0
2.953084999E0,9.874580383E0,-6.550351977E-1,1.444068432E0
2.955466926E0,9.725627899E0,-5.994020700E-1,1.405783296E0
2.957848853E0,9.582656860E0,-5.868397355E-1,1.396211982E0
2.960230780E0,9.433703423E0,-5.491527915E-1,1.391426325E0
2.962612707E0,9.327820778E0,-5.174478889E-1,1.362712502E0
2.964994634E0,9.180064201E0,-5.192425251E-1,1.329213023E0
2.967376561E0,9.069993973E0,-5.252245665E-1,1.262213945E0
2.969758488E0,8.988637924E0,-5.216353536E-1,1.209571838E0
2.972140416E0,8.974281311E0,-5.365904570E-1,1.156929731E0
2.974522343E0,8.950352669E0,-5.174478889E-1,1.142572761E0
2.976904218E0,8.950352669E0,-5.078766346E-1,1.171286702E0
2.979286145E0,8.955139160E0,-4.887340367E-1,1.200000525E0
2.981668072E0,8.940183640E0,-4.265206456E-1,1.242473125E0
2.984049999E0,8.930013657E0,-3.738785386E-1,1.280758262E0
2.986431926E0,8.924630165E0,-3.020938635E-1,1.284945726E0
2.988813853E0,8.928817749E0,-2.685943544E-1,1.261017561E0
2.991195780E0,8.937790871E0,-2.398804724E-1,1.232303619E0
2.993577707E0,8.956933022E0,-1.968096644E-1,1.194018483E0
2.995959634E0,8.965906143E0,-1.734796464E-1,1.135992527E0
2.998341561E0,8.975478172E0,-1.639083475E-1,1.116850019E0
3.000723488E0,8.985049248E0,-1.543370634E-1,1.083350420E0
3.003105363E0,9.013164520E0,-1.256231815E-1,1.078564763E0
3.005487291E0,9.017352104E0,-7.776673883E-2,1.073779106E0
3.007869218E0,9.031708717E0,-5.802594870E-2,1.068395257E0
3.010251145E0,9.035896301E0,-2.931207791E-2,1.068395257E0
3.012633072E0,9.050253868E0,-1.016949583E-2,1.082752228E0
3.015014999E0,9.059824944E0,-1.016949583E-2,1.111466169E0
3.017396926E0,9.059824944E0,-2.452643216E-2,1.121037364E0
3.019778853E0,9.060422897E0,-6.221338734E-2,1.130608678E0
3.022160780E0,9.051449776E0,-1.052841991E-1,1.198205948E0
3.024542707E0,9.042476654E0,-1.531406492E-1,1.255633712E0
3.026924634E0,9.033503532E0,-2.338984162E-1,1.351944804E0
3.029306509E0,9.010771751E0,-3.152543902E-1,1.409372568E0
3.031688436E0,8.992227554E0,-3.535395563E-1,1.457827210E0
3.034070363E0,8.925827026E0,-3.918247223E-1,1.510469317E0
3.036452291E0,8.849854469E0,-4.737788737E-1,1.544566989E0
3.038834218E0,8.779266357E0,-5.461617708E-1,1.549950838E0
3.041216145E0,8.727222443E0,-5.856433511E-1,1.588235974E0
3.043598072E0,8.651249886E0,-6.340979934E-1,1.641476393E0
3.045979999E0,8.613563538E0,-6.867401004E-1,1.660618901E0
3.048361926E0,8.552546501E0,-7.686942816E-1,1.656431437E0
3.050743853E0,8.495717049E0,-8.123632669E-1,1.680359721E0
3.053125780E0,8.453244209E0,-8.554341197E-1,1.715055585E0
3.055507707E0,8.385646820E0,-8.943174481E-1,1.748555183E0
3.057889634E0,8.343173981E0,-9.044869542E-1,1.782054663E0
3.060271509E0,8.252246857E0,-8.955138922E-1,1.834696770E0
3.062653436E0,8.175676346E0,-8.961120844E-1,1.882553220E0
3.065035363E0,8.085348129E0,-9.020941257E-1,1.868196249E0
3.067417291E0,7.995018482E0,-9.553344250E-1,1.864008784E0
3.069799218E0,7.928617954E0,-9.942178130E-1,1.844866276E0
3.072181145E0,7.895716667E0,-1.042672515E0,1.788036704E0
3.074563072E0,7.814958572E0,-1.096511006E0,1.735394597E0
3.076944999E0,7.743772507E0,-1.121037364E0,1.712064624E0
3.079326926E0,7.643871784E0,-1.189831018E0,1.644467354E0
3.081708853E0,7.548757076E0,-1.243669510E0,1.573280931E0
3.084090728E0,7.463213921E0,-1.306481123E0,1.530210137E0
3.086472655E0,7.349554539E0,-1.375274777E0,1.487737536E0
3.088854582E0,7.258627415E0,-1.404586911E0,1.468594909E0
3.091236509E0,7.187440872E0,-1.444068432E0,1.426122308E0
3.093618436E0,7.110870838E0,-1.478764415E0,1.378265858E0
3.096000363E0,7.054041386E0,-1.498505235E0,1.335195065E0
3.098382291E0,6.978068829E0,-1.537388563E0,1.297508121E0
3.100764218E0,6.954140663E0,-1.533201098E0,1.249651670E0
3.103146145E0,6.906284332E0,-1.533799291E0,1.206580877E0
3.105528072E0,6.867999077E0,-1.524826288E0,1.177866936E0
3.107909999E0,6.820142746E0,-1.526022673E0,1.130010486E0
3.110291926E0,6.820142746E0,-1.521237016E0,1.125224829E0
3.112673801E0,6.796214581E0,-1.506880045E0,1.106082320E0
3.115055728E0,6.796214581E0,-1.506880045E0,1.096511006E0
3.117437655E0,6.800402164E0,-1.502094388E0,1.115653515E0
3.119819582E0,6.809973240E0,-1.492523074E0,1.130010486E0
3.122201509E0,6.823731899E0,-1.444666624E0,1.162911773E0
3.124583436E0,6.856633186E0,-1.381855130E0,1.196411371E0
3.126965363E0,6.889534473E0,-1.299900889E0,1.243669510E0
3.129347291E0,6.932007313E0,-1.237089276E0,1.296311617E0
3.131729218E0,6.949953556E0,-1.169492126E0,1.367498159E0
3.134111145E0,6.982854843E0,-1.087537885E0,1.467398524E0
3.136493020E0,7.015157700E0,-9.816554785E-1,1.543968797E0
3.138874947E0,7.067201614E0,-9.044869542E-1,1.634297848E0
3.141256874E0,7.133004189E0,-8.171489239E-1,1.730010748E0
3.143638801E0,7.199405193E0,-7.399803996E-1,1.806581140E0
3.146020728E0,7.270591736E0,-6.861419082E-1,1.887338877E0
3.148402655E0,7.347161770E0,-6.323033571E-1,1.992623091E0
3.150784582E0,7.412964344E0,-5.491527915E-1,2.092523336E0
3.153166509E0,7.502695560E0,-4.522434771E-1,2.192423820E0
3.155548436E0,7.588238716E0,-3.792623878E-1,2.258824587E0
3.157930363E0,7.630113125E0,-2.877369225E-1,2.301895380E0
3.160312291E0,7.667799950E0,-2.440679073E-1,2.310868502E0
3.162694166E0,7.681559086E0,-1.770688742E-1,2.320439816E0
3.165076093E0,7.671389580E0,-1.393819153E-1,2.291127682E0
3.167458020E0,7.633104324E0,-1.351944804E-1,2.219342947E0
3.169839947E0,7.604390144E0,-1.022931710E-1,2.133201361E0
3.172221874E0,7.627720356E0,-8.793623000E-2,2.099701881E0
3.174603801E0,7.637291908E0,-1.022931710E-1,2.066202402E0
3.176985728E0,7.627720356E0,-9.810572863E-2,2.008774519E0
3.179367655E0,7.656434059E0,-7.896314561E-2,1.965703845E0
3.181749582E0,7.694121361E0,-4.486542568E-2,2.008176327E0
3.184131509E0,7.741977692E0,-2.991028316E-2,2.056032896E0
3.186513436E0,7.813164234E0,-1.435693540E-2,2.060818434E0
3.188895363E0,7.880163193E0,-3.290131316E-2,2.027318954E0
3.191277238E0,7.913662910E0,-3.768695518E-2,1.998605132E0
3.193659166E0,7.990232944E0,-5.563312769E-2,1.998605132E0
3.196041093E0,8.057829857E0,-7.896314561E-2,2.032104731E0
3.198423020E0,8.138587952E0,-4.905286431E-2,2.056032896E0
3.200804947E0,8.224131584E0,-3.409772366E-2,2.070389748E0
3.203186874E0,8.300702095E0,-4.725824669E-2,2.099103689E0
3.205568801E0,8.358727455E0,-6.520441920E-2,2.161317110E0
3.207950728E0,8.406583786E0,-1.124626622E-1,2.180459738E0
3.210332655E0,8.460422516E0,-1.645065546E-1,2.199602127E0
3.212714582E0,8.518448830E0,-2.404786795E-1,2.233700037E0
3.215096509E0,8.542975426E0,-2.973082066E-1,2.271985054E0
3.217478384E0,8.601000786E0,-3.631108403E-1,2.334796667E0
3.219860311E0,8.640482903E0,-4.773681164E-1,2.364108801E0
3.222242238E0,8.656634331E0,-6.257231236E-1,2.407777786E0
3.224624166E0,8.672187805E0,-7.830511928E-1,2.394019127E0
3.227006093E0,8.659625053E0,-9.266205430E-1,2.365903378E0
3.229388020E0,8.632705688E0,-1.089332461E0,2.328216314E0
3.231769947E0,8.595617294E0,-1.223928809E0,2.280958176E0
3.234151874E0,8.568099976E0,-1.338784218E0,2.281556368E0
3.236533801E0,8.521439552E0,-1.435095429E0,2.277369022E0
3.238915728E0,8.493324280E0,-1.507478237E0,2.239681959E0
3.241297655E0,8.456234932E0,-1.588834286E0,2.187039852E0
3.243679530E0,8.442476273E0,-1.666002750E0,2.111067772E0
3.246061457E0,8.408976555E0,-1.734198213E0,2.044068813E0
3.248443384E0,8.405387878E0,-1.805982947E0,1.968096614E0
3.250825311E0,8.425726891E0,-1.916052699E0,1.892124534E0
3.253207238E0,8.455636978E0,-2.016551256E0,1.844268084E0
3.255589166E0,8.490332603E0,-2.126022816E0,1.811366796E0
3.257971093E0,8.519644737E0,-2.207378864E0,1.778465390E0
3.260353020E0,8.563314438E0,-2.288136721E0,1.773679733E0
3.262734947E0,8.621937752E0,-2.368296146E0,1.788634896E0
3.265116874E0,8.679366112E0,-2.415554523E0,1.855633974E0
3.267498801E0,8.779864311E0,-2.428116798E0,1.965703845E0
3.269880728E0,8.899505615E0,-2.431107759E0,2.080559254E0
3.272262603E0,9.004789352E0,-2.434098721E0,2.214557409E0
3.274644530E0,9.095717430E0,-2.427518606E0,2.377269268E0
3.277026457E0,9.233304024E0,-2.349153519E0,2.539382935E0
3.279408384E0,9.371489525E0,-2.274976015E0,2.715853691E0
3.281790311E0,9.513862610E0,-2.200798512E0,2.883949518E0
3.284172238E0,9.671191216E0,-2.097907305E0,3.093919754E0
3.286554166E0,9.833304405E0,-2.033301115E0,3.323032379E0
3.288936093E0,9.975677490E0,-1.948953986E0,3.604787350E0
3.291318020E0,1.015214825E1,-1.869392633E0,3.886542082E0
3.293699947E0,1.029930687E1,-1.794616938E0,4.188635826E0
3.296081822E0,1.041296577E1,-1.681556106E0,4.494318962E0
3.298450520E0,1.056012440E1,-1.578066587E0,4.776073933E0
3.300845676E0,1.065523911E1,-1.480558991E0,5.024329185E0
3.303227603E0,1.075035381E1,-1.406979680E0,5.249254704E0
3.305596249E0,1.086461163E1,-1.323829174E0,5.402395248E0
3.307991457E0,1.095972633E1,-1.274178028E0,5.516652584E0
3.310373384E0,1.107817078E1,-1.219741344E0,5.626722336E0
3.312742030E0,1.115892887E1,-1.165902853E0,5.688337803E0
3.315137238E0,1.119242764E1,-1.122832060E0,5.717051506E0
3.317519166E0,1.125284672E1,-1.002592683E0,5.697310925E0
3.319901093E0,1.129053402E1,-9.541380405E-1,5.711069584E0
3.322283020E0,1.131864929E1,-8.679963946E-1,5.687141418E0
3.324664895E0,1.132223892E1,-8.015955687E-1,5.648257732E0
3.327046822E0,1.133181000E1,-7.633104324E-1,5.566901684E0
3.329428749E0,1.133599758E1,-7.208378315E-1,5.494519234E0
3.331810676E0,1.133539867E1,-7.070791125E-1,5.394020557E0
3.334192603E0,1.132044411E1,-6.263213158E-1,5.283950806E0
3.336574530E0,1.128156090E1,-5.796613097E-1,5.182853699E0
3.338956457E0,1.119063377E1,-5.665007830E-1,5.072783947E0
3.341338384E0,1.111884880E1,-5.527420044E-1,4.986044407E0
3.343720311E0,1.103809071E1,-6.023930907E-1,4.900500774E0
3.346102238E0,1.091844940E1,-6.089733839E-1,4.843072891E0
3.348484166E0,1.079821014E1,-5.000999570E-1,4.770689964E0
3.350866093E0,1.071087265E1,-3.912265003E-1,4.713262558E0
3.353248020E0,1.062293625E1,-2.919243574E-1,4.645665169E0
3.355629895E0,1.057926750E1,-2.117647976E-1,4.601995945E0
3.358011822E0,1.055055332E1,-1.878365725E-1,4.587639332E0
3.360393749E0,1.053619671E1,-1.788634956E-1,4.573282242E0
3.362775676E0,1.056969547E1,-1.926222295E-1,4.573282242E0
3.365157603E0,1.056969547E1,-2.213360965E-1,4.621138573E0
3.367539530E0,1.059422207E1,-2.685943544E-1,4.655236244E0
3.369921457E0,1.063250732E1,-2.721835673E-1,4.755734921E0
3.372303384E0,1.068096161E1,-2.524427772E-1,4.861019135E0
3.374685311E0,1.071924686E1,-2.608176768E-1,4.932804108E0
3.377067238E0,1.076710415E1,-2.554338276E-1,5.037489891E0
3.379449113E0,1.088674450E1,-2.632105052E-1,5.109872818E0
3.381831041E0,1.102971554E1,-2.327020019E-1,5.200799942E0
3.384212968E0,1.119242764E1,-2.542374134E-1,5.291727066E0
3.386594895E0,1.138385391E1,-2.709871531E-1,5.406582832E0
3.388976822E0,1.153579807E1,-2.303091735E-1,5.492125988E0
3.391358749E0,1.168893814E1,-2.333002090E-1,5.516054630E0
3.393740676E0,1.185224915E1,-2.416750938E-1,5.458626747E0
3.396122603E0,1.202393341E1,-2.309073806E-1,5.310271740E0
3.398504530E0,1.220040417E1,-2.207378894E-1,5.051248550E0
3.400886457E0,1.239063358E1,-2.201396823E-1,4.677370071E0
3.403268384E0,1.256770229E1,-2.685943544E-1,4.189234257E0
3.405637030E0,1.271067429E1,-2.985046208E-1,3.537788391E0
3.408032186E0,1.284885979E1,-3.290131092E-1,2.809772015E0
3.410414113E0,1.296909904E1,-4.073780477E-1,2.048854351E0
3.412782759E0,1.306062412E1,-5.150550604E-1,1.277767301E0
3.415177968E0,1.315693569E1,-6.233302951E-1,5.066801906E-1
3.417559895E0,1.321436310E1,-7.172485590E-1,-3.302095234E-1
3.419928541E0,1.324786282E1,-8.117650747E-1,-1.101296663E0
3.422323749E0,1.336331654E1,-9.134600163E-1,-1.790429592E0
3.424705676E0,1.350329685E1,-1.101296663E0,-2.368894339E0
3.427074322E0,1.366301727E1,-1.301695466E0,-2.674577475E0
3.429469530E0,1.387119293E1,-1.576870084E0,-2.764308453E0
3.431851405E0,1.417567921E1,-1.889133453E0,-2.605185747E0
3.434220103E0,1.452383518E1,-2.227119684E0,-2.192423820E0
3.436615259E0,1.490967751E1,-2.578864574E0,-1.640279889E0
3.438997186E0,1.533500195E1,-2.949153900E0,-9.780662656E-1
3.441365832E0,1.583151245E1,-3.337389469E0,-3.445664644E-1
3.443761041E0,1.630947876E1,-3.687339783E0,3.840480447E-1
3.446142968E0,1.674317741E1,-3.985246181E0,1.237687469E0
3.448511613E0,1.710927963E1,-4.182055950E0,2.244467735E0
3.450906822E0,1.736949921E1,-4.331607342E0,3.442075491E0
3.453288749E0,1.752862167E1,-4.304687977E0,4.768297195E0
3.455657395E0,1.764706612E1,-4.119244099E0,6.271588326E0
3.458052603E0,1.769671822E1,-3.729812384E0,7.615158081E0
3.460434530E0,1.758545113E1,-3.102294445E0,8.286943436E0
3.462803176E0,1.730967903E1,-2.382653236E0,8.331808090E0
3.465198332E0,1.690588951E1,-1.716252089E0,7.702496052E0
3.467580259E0,1.642194176E1,-1.210170031E0,6.608377934E0
3.469948905E0,1.591466331E1,-8.003991842E-1,5.452644825E0
3.472344113E0,1.539960861E1,-4.606183469E-1,4.498506546E0
3.474726041E0,1.482174206E1,-1.405783296E-1,3.817150354E0
3.477094686E0,1.425464249E1,1.758724600E-1,3.256631613E0
3.479489895E0,1.368156147E1,4.779663086E-1,2.742773056E0
3.481871822E0,1.310070419E1,7.178468108E-1,2.129612207E0
3.484240468E0,1.252463150E1,8.997012973E-1,1.525424480E0
3.486635624E0,1.199282742E1,1.029511929E0,9.128618240E-1
3.489017551E0,1.144606686E1,1.140778184E0,3.134597540E-1
3.491386197E0,1.093400288E1,1.213759303E0,-2.464607358E-1
3.493781405E0,1.042612648E1,1.268195987E0,-7.393822074E-1
3.496163332E0,9.909276962E0,1.322632670E0,-1.146162033E0
3.498531978E0,9.387042999E0,1.363310695E0,-1.505085468E0
3.500927186E0,8.876175880E0,1.351346612E0,-1.768295884E0
3.503309113E0,8.378468513E0,1.354935765E0,-1.959721804E0
3.505677759E0,7.925028801E0,1.330409408E0,-2.059622049E0
3.508072968E0,7.618747234E0,1.374676585E0,-2.117049932E0
3.510454895E0,7.336992264E0,1.395015597E0,-2.164308071E0
3.512823541E0,7.101897717E0,1.387238979E0,-2.226521492E0
3.515218697E0,6.915257454E0,1.442872047E0,-2.193022013E0
3.517600624E0,6.747759819E0,1.460818172E0,-2.078166485E0
3.519969270E0,6.628716946E0,1.450648785E0,-1.881955028E0
3.522364478E0,6.553342819E0,1.374676585E0,-1.689931035E0
3.524746405E0,6.559325218E0,1.250848055E0,-1.526022673E0
3.527115051E0,6.609574318E0,1.061216831E0,-1.366899967E0
3.529510259E0,6.698108673E0,8.237292171E-1,-1.232303619E0
3.531892186E0,6.829713821E0,5.431707501E-1,-1.101894855E0
3.534274113E0,7.004988194E0,2.398804724E-1,-9.906286001E-1
3.536656041E0,7.214360237E0,-8.255238086E-2,-9.026923180E-1
3.539037968E0,7.461419106E0,-3.942175210E-1,-7.962117195E-1
3.541406613E0,7.722237110E0,-6.592226624E-1,-6.711867452E-1
3.543801770E0,7.973483086E0,-9.044869542E-1,-5.018945336E-1
3.546183697E0,8.224131584E0,-1.134796143E0,-3.146561682E-1
3.548552343E0,8.499904633E0,-1.355534077E0,-9.810572863E-2
3.550947551E0,8.716454506E0,-1.518844128E0,1.657029688E-1
3.553329478E0,8.952746391E0,-1.692921996E0,4.390829504E-1
3.555698124E0,9.169296265E0,-1.851446509E0,7.657032609E-1
3.558093332E0,9.367302895E0,-2.000399828E0,1.077368379E0
3.560475259E0,9.530612946E0,-2.093121529E0,1.393221021E0
3.562843905E0,9.709476471E0,-2.170888424E0,1.719841242E0
3.565239113E0,9.857831001E0,-2.191825628E0,2.002194405E0
3.567621041E0,1.001575756E1,-2.231905222E0,2.298904419E0
3.569989686E0,1.010249710E1,-2.239083767E0,2.600399971E0
3.572384843E0,1.020718288E1,-2.222334146E0,2.825923443E0
3.574766770E0,1.028375340E1,-2.197209358E0,2.983849764E0
3.577135416E0,1.032622623E1,-2.138585329E0,3.155534744E0
3.579530624E0,1.033460140E1,-2.042274237E0,3.245863914E0
3.581912551E0,1.032383347E1,-1.904088616E0,3.235694408E0
3.584294478E0,1.032682419E1,-1.765304923E0,3.163311481E0
3.586676405E0,1.033938694E1,-1.612164259E0,3.062214851E0
3.589058332E0,1.033340454E1,-1.469791293E0,2.965903759E0
3.591440259E0,1.032682419E1,-1.322034478E0,2.831307411E0
3.593822186E0,1.031605625E1,-1.198804140E0,2.691327333E0
3.596204113E0,1.027119160E1,-1.066002488E0,2.551945448E0
3.598585988E0,1.023170948E1,-9.571290612E-1,2.422134638E0
3.600967916E0,1.015454102E1,-8.482556343E-1,2.325823545E0
3.603349843E0,1.005763149E1,-7.591229677E-1,2.206182480E0
3.605731770E0,9.946963310E0,-6.604190469E-1,2.095514536E0
3.608113697E0,9.812367439E0,-5.910272002E-1,1.999801517E0
3.610495624E0,9.634700775E0,-5.066801906E-1,1.922633052E0
3.612877551E0,9.427721024E0,-4.564309120E-1,1.826920033E0
3.615259478E0,9.179466248E0,-4.313062727E-1,1.745564103E0
3.617641405E0,8.954540253E0,-4.336991012E-1,1.649851203E0
3.620023332E0,8.758927345E0,-4.654040039E-1,1.554138303E0
3.622405259E0,8.539385796E0,-4.630111754E-1,1.448854089E0
3.624787186E0,8.324031830E0,-5.042873621E-1,1.363310695E0
3.627169061E0,8.109275818E0,-5.306084156E-1,1.320239902E0
3.629550988E0,7.889734268E0,-5.234299302E-1,1.272981644E0
3.631932916E0,7.674380302E0,-5.210371017E-1,1.253839016E0
3.634301561E0,7.497909546E0,-5.186443329E-1,1.201196909E0
3.636696770E0,7.363911629E0,-5.108676553E-1,1.143769264E0
3.639078697E0,7.234699249E0,-5.264210105E-1,1.149153113E0
3.641460624E0,7.120441914E0,-5.617151260E-1,1.144367456E0
3.643842551E0,7.010372162E0,-5.479564071E-1,1.153938770E0
3.646224478E0,6.934400082E0,-5.784648657E-1,1.139581800E0
3.648606405E0,6.905686378E0,-5.928218365E-1,1.130608678E0
3.650988332E0,6.876972198E0,-5.982056856E-1,1.111466169E0
3.653370207E0,6.896713257E0,-6.269195080E-1,1.058824062E0
3.655752186E0,6.905686378E0,-6.173482537E-1,1.010967612E0
3.658134061E0,6.915257454E0,-5.886343718E-1,9.720842242E-1
3.660515988E0,6.905686378E0,-5.892325640E-1,9.385846853E-1
3.662897916E0,6.890730858E0,-5.407779217E-1,9.098708034E-1
3.665279843E0,6.890132904E0,-5.126622319E-1,8.620143533E-1
3.667661770E0,6.880561352E0,-4.791627228E-1,8.285148144E-1
3.670043697E0,6.889534473E0,-4.600201547E-1,8.518448472E-1
3.672425624E0,6.856035233E0,-4.462614357E-1,8.279166222E-1
3.674807551E0,6.812964439E0,-4.277170599E-1,8.135597110E-1
3.677189478E0,6.740581512E0,-3.379862010E-1,7.609176040E-1
3.679571405E0,6.677769661E0,-2.955136001E-1,7.076773047E-1
3.681953332E0,6.644270420E0,-2.673979402E-1,6.454638839E-1
3.684335207E0,6.585646152E0,-1.872383654E-1,5.491527915E-1
3.686717134E0,6.580262184E0,-9.750752151E-2,4.145565331E-1
3.689099061E0,6.546164513E0,-8.853443712E-2,3.427718580E-1
3.691480988E0,6.546762943E0,-1.316052526E-1,3.523431420E-1
3.693862916E0,6.580262184E0,-1.501496136E-1,3.427718580E-1
3.696244843E0,6.565905571E0,-1.453639716E-1,4.336991012E-1
3.698626770E0,6.570092678E0,-8.255238086E-2,5.198407173E-1
3.701008697E0,6.579065800E0,1.316052489E-2,5.820540786E-1
3.703390624E0,6.587440968E0,1.286142170E-1,6.771687865E-1
3.705772551E0,6.577271461E0,1.668993831E-1,7.824530005E-1
3.708154478E0,6.611369133E0,1.585244983E-1,9.020941257E-1
3.710536353E0,6.658627033E0,1.782652885E-1,9.164510965E-1
3.712918280E0,6.711269379E0,1.692921966E-1,9.930213690E-1
3.715300207E0,6.735795975E0,1.226321608E-1,1.079162955E0
3.717682134E0,6.788437843E0,1.088734269E-1,1.093519926E0
3.720064061E0,6.812366009E0,8.494520187E-2,1.093519926E0
3.722445988E0,6.860820770E0,6.161518395E-2,1.108475089E0
3.724827916E0,6.942176819E0,4.845465720E-2,1.108475089E0
3.727209843E0,6.990033150E0,2.991028316E-2,1.118046403E0
3.729591770E0,7.047461033E0,1.615155302E-2,1.094118118E0
3.731973697E0,7.129415035E0,-4.546362907E-2,1.113260746E0
3.734355624E0,7.191628456E0,-6.340979785E-2,1.122832060E0
3.736737551E0,7.268796921E0,-1.148554832E-1,1.208973646E0
3.739119426E0,7.345965385E0,-1.471585929E-1,1.295713425E0
3.741501353E0,7.433303356E0,-2.410768867E-1,1.391426325E0
3.743883280E0,7.495516777E0,-2.877369225E-1,1.549352646E0
3.746265207E0,7.539186001E0,-3.493520916E-1,1.607378602E0
3.748647134E0,7.588238716E0,-4.348955154E-1,1.602592945E0
3.751029061E0,7.612166882E0,-4.486542344E-1,1.617548108E0
3.753410988E0,7.645666599E0,-4.815555513E-1,1.627119422E0
3.755792916E0,7.664809227E0,-4.767699242E-1,1.665404558E0
3.758174843E0,7.703692436E0,-5.138586760E-1,1.728216171E0
3.760556770E0,7.780262947E0,-5.318048596E-1,1.790429592E0
3.762938697E0,7.862216949E0,-5.790630579E-1,1.886142492E0
3.765320624E0,7.910073280E0,-6.209374666E-1,1.987239242E0
3.767702499E0,7.968697548E0,-6.915257573E-1,2.121237278E0
3.770084426E0,8.017151833E0,-7.668996453E-1,2.284547329E0
3.772466353E0,8.041678429E0,-8.039883971E-1,2.404188633E0
3.774848280E0,8.079963684E0,-8.273184299E-1,2.519043922E0
3.777230207E0,8.128418922E0,-8.548358679E-1,2.614757061E0
3.779612134E0,8.161917686E0,-8.584251404E-1,2.710469961E0
3.781994061E0,8.180462837E0,-8.344969153E-1,2.791825771E0
3.784375988E0,8.199604988E0,-7.956135273E-1,2.840280533E0
3.786757916E0,8.204390526E0,-7.908278704E-1,2.868994236E0
3.789139843E0,8.194221497E0,-7.716853023E-1,2.907279491E0
3.791521770E0,8.175078392E0,-7.525427341E-1,2.959323406E0
3.793903697E0,8.122436523E0,-7.052844763E-1,2.968894720E0
3.796285624E0,8.069794655E0,-7.148557901E-1,2.997608662E0
3.798667499E0,8.026124954E0,-6.825526357E-1,2.954537868E0
3.801049426E0,7.959126472E0,-6.687939167E-1,2.959323406E0
3.803431353E0,7.906484127E0,-6.311069727E-1,2.911466837E0
3.805813280E0,7.872386456E0,-6.029912829E-1,2.830111027E0
3.808195207E0,7.824530125E0,-5.754738450E-1,2.762513638E0
3.810577134E0,7.819146156E0,-5.276173949E-1,2.656631231E0
3.812959061E0,7.871190071E0,-4.695914388E-1,2.642274380E0
3.815340988E0,7.918448448E0,-4.169493318E-1,2.646461725E0
3.817722916E0,7.969893932E0,-3.541377485E-1,2.636890650E0
3.820104843E0,8.036294937E0,-2.817548811E-1,2.669791937E0
3.822486770E0,8.088338852E0,-2.422732860E-1,2.741576433E0
3.824868645E0,8.121239662E0,-1.651047617E-1,2.822932482E0
3.827250572E0,8.168498039E0,-9.272187948E-2,2.913261652E0
3.829632499E0,8.210970879E0,-3.948157281E-2,3.018545866E0
3.832014426E0,8.252845764E0,6.221338734E-2,3.113660574E0
3.834396353E0,8.285746574E0,1.393819153E-1,3.233301640E0
3.836778280E0,8.356932640E0,1.932204217E-1,3.337987661E0
3.839160207E0,8.428119659E0,2.566302419E-1,3.400201082E0
3.841542134E0,8.528019905E0,3.152543902E-1,3.452244759E0
3.843924061E0,8.608778000E0,3.637090325E-1,3.518645763E0
3.846305988E0,8.723034859E0,3.894318938E-1,3.561716557E0
3.848687916E0,8.842078209E0,4.480560422E-1,3.628117323E0
3.851069843E0,8.937192917E0,4.785645306E-1,3.714258909E0
3.853451770E0,9.017950058E0,5.132604837E-1,3.819543123E0
3.855833697E0,9.089735031E0,5.192425251E-1,3.978067636E0
3.858215572E0,9.156734467E0,5.162515044E-1,4.150351048E0
3.860597499E0,9.233304024E0,5.270192027E-1,4.303491592E0
3.862979426E0,9.285946846E0,5.335994363E-1,4.465605259E0
3.865361353E0,9.305686951E0,5.102694035E-1,4.604987144E0
3.867743280E0,9.324830055E0,4.965106845E-1,4.705485821E0
3.870125207E0,9.339784622E0,4.540380836E-1,4.805984497E0
3.872507134E0,9.330811501E0,4.115654826E-1,4.901697159E0
3.874889061E0,9.335597992E0,3.978067636E-1,4.983651161E0
3.877270988E0,9.307481766E0,3.547359705E-1,5.045864582E0
3.879652916E0,9.269794464E0,2.829512656E-1,5.114060402E0
3.882034843E0,9.223134995E0,2.105683982E-1,5.123631477E0
3.884416770E0,9.166305542E0,1.483550072E-1,5.124229908E0
3.886798645E0,9.095118523E0,1.040877849E-1,5.095515728E0
3.889180572E0,9.029315948E0,2.213360928E-2,5.053043365E0
3.891562499E0,8.981459618E0,1.136590727E-2,4.990231514E0
3.893944426E0,8.934201241E0,-3.708875179E-2,4.942375183E0
3.896326353E0,8.895915985E0,-5.682953820E-2,4.880760193E0
3.898708280E0,8.863015175E0,-7.178468257E-2,4.823332310E0
3.901090207E0,8.848658562E0,-1.004985496E-1,4.770689964E0
3.903472134E0,8.853444099E0,-1.244267747E-1,4.751547337E0
3.905854061E0,8.863613129E0,-1.387837082E-1,4.741976261E0
3.908235988E0,8.849256516E0,-1.489532143E-1,4.713262558E0
3.910617916E0,8.867800713E0,-1.292124242E-1,4.708476543E0
3.912999791E0,8.930013657E0,-1.381855011E-1,4.689334393E0
3.915381718E0,8.968298912E0,-1.094716340E-1,4.655834675E0
3.917763645E0,9.025128365E0,-8.973085135E-2,4.651049137E0
3.920145572E0,9.115457535E0,-5.024927482E-2,4.660022259E0
3.922527499E0,9.230313301E0,-4.426721856E-2,4.660022259E0
3.924909426E0,9.349356651E0,-3.828516230E-2,4.683950424E0
3.927291353E0,9.477970123E0,-8.374879137E-3,4.692923546E0
3.929673280E0,9.621540070E0,2.213360928E-2,4.702494621E0
3.932055207E0,9.755537987E0,2.333002165E-2,4.726422787E0
3.934437134E0,9.850652695E0,4.366901144E-2,4.735395908E0
3.936819061E0,9.979267120E0,9.332008660E-2,4.764110088E0
3.939200988E0,1.009890842E1,8.494520187E-2,4.792823792E0
3.941582916E0,1.025623608E1,1.202393398E-1,4.840082169E0
3.943964791E0,1.039920712E1,1.555334777E-1,4.887938499E0
3.946346718E0,1.054696369E1,1.908276081E-1,4.925625324E0
3.948728645E0,1.071924686E1,2.075773627E-1,5.016552448E0
3.951110572E0,1.087238789E1,1.950150430E-1,5.093721390E0
3.953492499E0,1.102074242E1,1.776670814E-1,5.127220631E0
3.955874426E0,1.119721317E1,1.555334777E-1,5.127220631E0
3.958256353E0,1.138445187E1,1.004985496E-1,5.127220631E0
3.960638280E0,1.158544922E1,5.503492057E-2,5.103292465E0
3.963020207E0,1.178166008E1,1.375873014E-2,5.035695076E0
3.965402134E0,1.196411324E1,-1.854437590E-2,4.906482697E0
3.967784061E0,1.216511059E1,-8.853443712E-2,4.719842434E0
3.970152707E0,1.237089348E1,-1.262213886E-1,4.461417675E0
3.972547863E0,1.257667542E1,-1.824527234E-1,4.179064751E0
3.974929791E0,1.279621696E1,-2.153540403E-1,3.800400496E0
3.977298436E0,1.302114296E1,-2.482553422E-1,3.331407309E0
3.979693645E0,1.320239925E1,-2.434697002E-1,2.871387243E0
3.982075572E0,1.339262867E1,-1.866401732E-1,2.377269268E0
3.984444218E0,1.355892944E1,-1.680957973E-1,1.869990945E0
3.986839426E0,1.377308750E1,-1.393819153E-1,1.375872970E0
3.989221353E0,1.401536083E1,-3.828516230E-2,9.780662656E-1
3.991589999E0,1.423430347E1,9.631111473E-2,6.227321029E-1
3.993985207E0,1.447597885E1,2.267199457E-1,3.822534084E-1
3.996367134E0,1.477567959E1,3.726821244E-1,2.135594189E-1
3.998735780E0,1.508854103E1,5.868397355E-1,1.836491376E-1
4.001130936E0,1.543609905E1,7.531409264E-1,2.398804724E-1
4.003512863E0,1.586860180E1,9.541380405E-1,3.248256743E-1
4.005881509E0,1.628734589E1,1.150947690E0,5.581258535E-1
4.008276718E0,1.669711685E1,1.281356573E0,8.309076428E-1
4.010658645E0,1.716012764E1,1.325623751E0,1.136590719E0
4.013027291E0,1.759562111E1,1.332802176E0,1.585843205E0
4.015422499E0,1.799761581E1,1.325025558E0,2.093719721E0
4.017804426E0,1.829970932E1,1.220937729E0,2.658426046E0
4.020173072E0,1.851267052E1,1.006181955E0,3.267997503E0
4.022568280E0,1.862692833E1,6.855437160E-1,3.910470486E0
4.024950207E0,1.864128494E1,2.919243574E-1,4.607379913E0
4.027318853E0,1.862273979E1,-1.836491376E-1,5.179264545E0
4.029714009E0,1.854796410E1,-7.369893789E-1,5.684748173E0
4.032095936E0,1.838585091E1,-1.262812138E0,6.069993019E0
4.034464582E0,1.808136368E1,-1.819741607E0,6.322435856E0
4.036859791E0,1.764228058E1,-2.277967215E0,6.363113403E0
4.039241718E0,1.706262016E1,-2.634497643E0,6.096911907E0
4.041610363E0,1.635733604E1,-2.846262455E0,5.538187981E0
4.044005572E0,1.558385563E1,-2.986840963E0,4.811367989E0
4.046387499E0,1.477627850E1,-3.070589542E0,4.037290096E0
4.048756145E0,1.401655674E1,-3.183052301E0,3.276970625E0
4.051151353E0,1.328554916E1,-3.189034462E0,2.587837696E0
4.053533280E0,1.254317665E1,-3.119044304E0,1.980060697E0
4.055901926E0,1.185464191E1,-3.099901676E0,1.439282775E0
4.058297082E0,1.122413254E1,-3.157329559E0,9.469595551E-1
4.060679009E0,1.066002464E1,-3.208176851E0,5.353940725E-1
4.063047655E0,1.008634567E1,-3.163311481E0,1.764706671E-1
4.065442863E0,9.530612946E0,-3.089732170E0,-1.292124242E-1
4.067824791E0,9.037691116E0,-3.038884640E0,-3.541377485E-1
4.070193436E0,8.577671051E0,-2.901297569E0,-5.754738450E-1
4.072588645E0,8.140980721E0,-2.781656265E0,-6.903293133E-1
4.074970572E0,7.734200954E0,-2.709871531E0,-7.477570772E-1
4.077339218E0,7.360322475E0,-2.603989124E0,-7.716853023E-1
4.079734426E0,7.038487911E0,-2.483151674E0,-7.483552694E-1
4.082116353E0,6.745367050E0,-2.314457655E0,-6.813562512E-1
4.084484999E0,6.500102520E0,-2.134995937E0,-5.862415433E-1
4.086880155E0,6.350551128E0,-1.954337835E0,-5.006981492E-1
4.089262082E0,6.233303070E0,-1.744965911E0,-4.199403822E-1
4.091630780E0,6.193223000E0,-1.520040631E0,-3.206382394E-1
4.094025936E0,6.171089649E0,-1.309472203E0,-2.255235314E-1
4.096407863E0,6.203392506E0,-1.112662554E0,-1.214357466E-1
4.098776509E0,6.267998695E0,-9.014959335E-1,7.178467698E-3
4.101171718E0,6.323632240E0,-7.136593461E-1,1.495514214E-1
4.103553645E0,6.388238430E0,-5.204389095E-1,2.829512656E-1
4.105935572E0,6.477370739E0,-3.379862010E-1,3.631108403E-1
4.108317499E0,6.566503525E0,-1.692921966E-1,3.912265003E-1
4.110699426E0,6.660421848E0,-1.076770201E-2,3.708875179E-1
4.113081353E0,6.735197544E0,1.333998591E-1,3.559323549E-1
4.115463228E0,6.838088989E0,3.206382394E-1,3.164508045E-1
4.117845155E0,6.965506554E0,4.648058116E-1,2.297109663E-1
4.120227082E0,7.092924595E0,6.197410822E-1,1.860419661E-1
4.122609009E0,7.267600536E0,7.938188910E-1,1.800599098E-1
4.124990936E0,7.462615490E0,9.439685345E-1,2.368894368E-1
4.127372863E0,7.680960655E0,1.080957651E0,3.984049559E-1
4.129754791E0,7.919046402E0,1.189831018E0,6.185446382E-1
4.132136718E0,8.223533630E0,1.309472203E0,9.433703423E-1
4.134518645E0,8.582456589E0,1.353141189E0,1.311266780E0
4.136900572E0,8.955139160E0,1.353739381E0,1.689931035E0
4.139282499E0,9.318847656E0,1.326221943E0,2.039283037E0
4.141651145E0,9.664610863E0,1.226321578E0,2.355135679E0
4.144046353E0,9.938589096E0,1.058225870E0,2.580659151E0
4.146428228E0,1.017966557E1,8.512466550E-1,2.724826813E0
4.148796926E0,1.039322472E1,5.425725579E-1,2.822334290E0
4.151192082E0,1.052542877E1,2.578266263E-1,2.928814888E0
4.153574009E0,1.068156052E1,-7.178467698E-3,3.044866800E0
4.155942655E0,1.080838013E1,-2.255235314E-1,3.156133175E0
4.158337863E0,1.087238789E1,-4.247260094E-1,3.271586657E0
4.160719791E0,1.089811039E1,-5.964110494E-1,3.425325632E0
4.163101718E0,1.080419254E1,-7.304090858E-1,3.608376503E0
4.165483645E0,1.063250732E1,-8.075776696E-1,3.781257868E0
4.167865572E0,1.045125103E1,-8.333004713E-1,3.891327858E0
4.170247499E0,1.029392338E1,-8.303094506E-1,3.886542082E0
4.172629426E0,1.019820976E1,-8.075776696E-1,3.833899975E0
4.175011301E0,1.010189915E1,-7.471588850E-1,3.752544165E0
4.177393228E0,1.002951622E1,-6.957131624E-1,3.594617844E0
4.179775155E0,9.942776680E0,-6.544370055E-1,3.460021496E0
4.182157082E0,9.823733330E0,-6.610172391E-1,3.349951744E0
4.184539009E0,9.699306488E0,-6.771687865E-1,3.211766243E0
4.186920936E0,9.623334885E0,-7.172485590E-1,3.058625460E0
4.189302863E0,9.590433121E0,-7.513462901E-1,2.915056229E0
4.191684791E0,9.536594391E0,-7.286145091E-1,2.785245657E0
4.194066718E0,9.517452240E0,-7.010970116E-1,2.675175667E0
4.196448645E0,9.512067795E0,-6.723831892E-1,2.593819857E0
4.198830572E0,9.501898766E0,-6.059823632E-1,2.497508526E0
4.201212499E0,9.443872452E0,-5.491527915E-1,2.392224550E0
4.203594374E0,9.366703987E0,-4.935196638E-1,2.258226395E0
4.205976301E0,9.270991325E0,-4.713860750E-1,2.094916344E0
4.208358228E0,9.218349457E0,-4.821537733E-1,1.928016901E0
4.210740155E0,9.170493126E0,-4.833501875E-1,1.770090580E0
4.213122082E0,9.107083321E0,-4.079762697E-1,1.726421595E0
4.215504009E0,9.044271469E0,-3.320041299E-1,1.740778446E0
4.217885936E0,8.996415138E0,-2.799602449E-1,1.749751568E0
4.220267863E0,8.982057571E0,-2.799602449E-1,1.759322882E0
4.222649791E0,8.925228119E0,-3.720839322E-1,1.702493310E0
4.225031718E0,8.853444099E0,-3.487538993E-1,1.697707653E0
4.227413645E0,8.762516975E0,-2.877369225E-1,1.712064624E0
4.229795572E0,8.676374435E0,-3.032902777E-1,1.630110383E0
4.232177499E0,8.614759445E0,-3.379862010E-1,1.491326690E0
4.234559426E0,8.509475708E0,-3.493520916E-1,1.376471281E0
4.236941301E0,8.379665375E0,-3.122633696E-1,1.362114310E0
4.239323228E0,8.302495956E0,-2.847459018E-1,1.323829174E0
4.241705155E0,8.212167740E0,-3.002992272E-1,1.256830096E0
4.244087082E0,8.102695465E0,-3.643072546E-1,1.195214868E0
4.246469009E0,7.993224144E0,-3.894318938E-1,1.137787223E0
4.248850936E0,7.887341499E0,-3.044866920E-1,1.123430252E0
4.251232863E0,7.810173035E0,-2.386840582E-1,1.061216831E0
4.253614791E0,7.738388538E0,-2.542374134E-1,1.032503009E0
4.255996718E0,7.676773071E0,-2.596212626E-1,1.008574724E0
4.258378645E0,7.600800991E0,-3.032902777E-1,1.008574724E0
4.260760572E0,7.505686283E0,-3.762713671E-1,1.037886858E0
4.263142499E0,7.390830994E0,-3.583251834E-1,1.057029366E0
4.265524374E0,7.275377274E0,-2.973082066E-1,1.095314622E0
4.267906301E0,7.189235687E0,-2.691925466E-1,1.124028444E0
4.270288228E0,7.098906517E0,-3.134597540E-1,1.104885817E0
4.272670155E0,6.975078106E0,-3.481557071E-1,1.100698471E0
4.275052082E0,6.842276573E0,-4.402793646E-1,1.081555843E0
4.277434009E0,6.713662148E0,-4.701896608E-1,1.091725349E0
4.279815936E0,6.570691109E0,-5.198407173E-1,1.130608678E0
4.282197863E0,6.422934055E0,-5.742774606E-1,1.106680512E0
4.284579791E0,6.318248272E0,-6.089733839E-1,1.097707391E0
4.286961718E0,6.208776474E0,-6.388836503E-1,1.116850019E0
4.289343645E0,6.084948063E0,-7.118647099E-1,1.117448211E0
4.291725520E0,5.989833355E0,-7.752745152E-1,1.088734269E0
4.294107499E0,5.885147095E0,-8.243274093E-1,1.070189953E0
4.296489374E0,5.776273727E0,-8.733802438E-1,1.060618639E0
4.298871301E0,5.676373482E0,-9.266205430E-1,1.056431174E0
4.301253228E0,5.624329567E0,-9.846464992E-1,1.032503009E0
4.303635155E0,5.600999832E0,-1.037886858E0,1.023529887E0
4.306017082E0,5.577669621E0,-1.085743308E0,1.042672515E0
4.308399009E0,5.544768333E0,-1.147956610E0,1.071984529E0
4.310780936E0,5.540580750E0,-1.186241865E0,1.119840980E0
4.313162863E0,5.541179180E0,-1.223928809E0,1.158126116E0
4.315544791E0,5.541179180E0,-1.228714466E0,1.244866014E0
4.317926718E0,5.555535793E0,-1.247258782E0,1.268794179E0
4.320308645E0,5.589035511E0,-1.271187067E0,1.240080357E0
4.322690520E0,5.613562107E0,-1.289731383E0,1.268794179E0
4.325072447E0,5.632704735E0,-1.284347534E0,1.283151150E0
4.327454374E0,5.660820007E0,-1.246062398E0,1.277767301E0
4.329836301E0,5.694319725E0,-1.236491084E0,1.258624673E0
4.332218228E0,5.760122299E0,-1.183250785E0,1.239482164E0
4.334600155E0,5.803193092E0,-1.177866936E0,1.186840057E0
4.336982082E0,5.845665932E0,-1.144367456E0,1.138385415E0
4.339364009E0,5.859424591E0,-1.106082320E0,1.109671474E0
4.341745936E0,5.873183250E0,-1.034297585E0,1.066002488E0
4.344127863E0,5.934798241E0,-9.523434043E-1,1.085145116E0
4.346509791E0,6.010770321E0,-9.182456732E-1,1.118046403E0
4.348891718E0,6.163312912E0,-8.781659007E-1,1.156331539E0
4.351273645E0,6.321238995E0,-8.524430394E-1,1.136590719E0
4.353655572E0,6.497111797E0,-7.932206988E-1,1.136590719E0
4.356037447E0,6.677769661E0,-7.052844763E-1,1.140778184E0
4.358419374E0,6.839285374E0,-6.269195080E-1,1.173679471E0
4.360801301E0,7.030112743E0,-5.766702294E-1,1.220937729E0
4.363183228E0,7.244270325E0,-5.401797295E-1,1.259222865E0
4.365565155E0,7.450651646E0,-5.330012441E-1,1.325623751E0
4.367947082E0,7.627122402E0,-5.114658475E-1,1.406979680E0
4.370329009E0,7.784450054E0,-5.048855543E-1,1.483550072E0
4.372710936E0,7.899305820E0,-5.126622319E-1,1.574477315E0
4.375092863E0,8.042875290E0,-5.300102234E-1,1.651047587E0
4.377474791E0,8.167302132E0,-5.766702294E-1,1.704287887E0
4.379856718E0,8.287541389E0,-6.466603279E-1,1.790429592E0
4.382238645E0,8.427521706E0,-7.022934556E-1,1.876571178E0
4.384620572E0,8.523832321E0,-7.722834945E-1,1.953739643E0
4.387002447E0,8.653642654E0,-8.327022791E-1,2.068595171E0
4.389384374E0,8.739784241E0,-8.739784956E-1,2.183450699E0
4.391766301E0,8.816354752E0,-8.823533654E-1,2.255235434E0
4.394148228E0,8.845068932E0,-8.626125455E-1,2.303091764E0
4.396530155E0,8.878568649E0,-8.620143533E-1,2.331805706E0
4.398912082E0,8.940781593E0,-8.662018180E-1,2.370090723E0
4.401294009E0,8.955737114E0,-8.991031051E-1,2.398804665E0
4.403675936E0,8.984451294E0,-9.421738982E-1,2.389831543E0
4.406057863E0,8.994620323E0,-9.756734371E-1,2.399402857E0
4.408439791E0,9.004191399E0,-1.003789067E0,2.404188633E0
4.410821718E0,8.994620323E0,-1.018146038E0,2.408974171E0
4.413203593E0,9.019146919E0,-1.032503009E0,2.380260229E0
4.415585520E0,9.019146919E0,-1.037288666E0,2.361117840E0
4.417967447E0,9.038289070E0,-1.051645517E0,2.327618122E0
4.420349374E0,9.023932457E0,-1.051645517E0,2.341975212E0
4.422731301E0,9.005388260E0,-1.099501967E0,2.395215511E0
4.425113228E0,9.005986214E0,-1.137787223E0,2.447857618E0
4.427495155E0,9.020342827E0,-1.161117196E0,2.428714991E0
4.429877082E0,9.039485931E0,-1.190429211E0,2.361716032E0
4.432259009E0,9.049654961E0,-1.204187989E0,2.343171597E0
4.434640936E0,9.054440498E0,-1.213759303E0,2.352742910E0
4.437022863E0,9.030512810E0,-1.208973646E0,2.386242390E0
4.439404791E0,9.040083885E0,-1.213759303E0,2.400599241E0
4.441786666E0,9.092725754E0,-1.222732425E0,2.386242390E0
4.444168645E0,9.159725189E0,-1.250848055E0,2.414956331E0
4.446550520E0,9.203393936E0,-1.298106313E0,2.448455811E0
4.448932447E0,9.270393372E0,-1.306481123E0,2.481955290E0
4.451314374E0,9.332606316E0,-1.348355532E0,2.534597397E0
4.453696301E0,9.409774780E0,-1.385444283E0,2.625524759E0
4.456078228E0,9.530014038E0,-1.465005636E0,2.707478762E0
4.458460155E0,9.669994354E0,-1.525424480E0,2.784049034E0
4.460842082E0,9.785448074E0,-1.585843205E0,2.904886723E0
4.463224009E0,9.895518303E0,-1.640878081E0,3.091526747E0
4.465605936E0,9.991828918E0,-1.692323804E0,3.273381472E0
4.467987863E0,1.006002426E1,-1.762313843E0,3.455834150E0
4.470369791E0,1.016052341E1,-1.813161373E0,3.551547050E0
4.472751666E0,1.023769188E1,-1.874178290E0,3.652045488E0
4.475133593E0,1.030528927E1,-1.930409670E0,3.733999729E0
4.477515520E0,1.035852909E1,-1.991426587E0,3.839283943E0
4.479897447E0,1.041655540E1,-2.047657967E0,3.911666870E0
4.482279374E0,1.045005512E1,-2.066202402E0,4.012763500E0
4.484661301E0,1.050329494E1,-2.094317913E0,4.041477680E0
4.487043228E0,1.058465099E1,-2.107478619E0,4.007977962E0
4.489425155E0,1.063190937E1,-2.093121529E0,3.964907169E0
4.491807082E0,1.068514919E1,-2.097309113E0,4.031906128E0
4.494189009E0,1.069890785E1,-2.053640127E0,4.069592953E0
4.496570936E0,1.072223854E1,-1.981855392E0,4.098307133E0
4.498952863E0,1.072642612E1,-1.895115495E0,4.169493675E0
4.501334791E0,1.068694401E1,-1.799402595E0,4.259822369E0
4.503716718E0,1.066660500E1,-1.669592023E0,4.354937077E0
4.506098593E0,1.063609695E1,-1.555334687E0,4.407579422E0
4.508480520E0,1.063968563E1,-1.430907965E0,4.473979950E0
4.510862447E0,1.066301632E1,-1.334596872E0,4.506881237E0
4.513244374E0,1.067198944E1,-1.238883972E0,4.530211449E0
4.515626301E0,1.070907784E1,-1.156929731E0,4.558327198E0
4.518008228E0,1.074197865E1,-1.099501967E0,4.563112736E0
4.520390155E0,1.078445148E1,-1.036690354E0,4.567300320E0
4.522772082E0,1.081256771E1,-9.792626500E-1,4.543372154E0
4.525154009E0,1.083529949E1,-8.931210637E-1,4.518845558E0
4.527535936E0,1.086820030E1,-8.261220455E-1,4.461417675E0
4.529917863E0,1.088614655E1,-7.543373108E-1,4.441677094E0
4.532299791E0,1.091904831E1,-6.634100676E-1,4.383651257E0
4.534681666E0,1.095613670E1,-5.868397355E-1,4.350151539E0
4.537063593E0,1.096032429E1,-4.953143001E-1,4.335196495E0
4.539445572E0,1.095972633E1,-4.426721931E-1,4.320241451E0
4.541827447E0,1.092084217E1,-3.954139352E-1,4.329812527E0
4.544209374E0,1.089691448E1,-3.720839322E-1,4.348955154E0
4.546591301E0,1.093878841E1,-3.092723191E-1,4.295714855E0
4.548973228E0,1.098664474E1,-2.805584669E-1,4.276572227E0
4.551355155E0,1.102851963E1,-2.273181528E-1,4.252644062E0
4.553737082E0,1.105723381E1,-1.986042857E-1,4.194618225E0
4.556119009E0,1.108534908E1,-1.603191197E-1,4.165904045E0
4.558500936E0,1.112782192E1,-1.262213886E-1,4.156332970E0
4.560882863E0,1.119900799E1,-8.315058798E-2,4.088735580E0
4.563264791E0,1.126481056E1,1.734796353E-2,3.963710785E0
4.565646666E0,1.132642555E1,7.956135273E-2,3.829114437E0
4.568028645E0,1.139222908E1,1.465603858E-1,3.680161238E0
4.570410520E0,1.144487095E1,1.465603858E-1,3.531806231E0
4.572792447E0,1.152024460E1,1.938186288E-1,3.277568817E0
4.575174374E0,1.161057377E1,2.506481707E-1,2.990430117E0
4.577556301E0,1.170568848E1,2.171486616E-1,2.726621389E0
4.579938228E0,1.182174015E1,1.501496136E-1,2.391626120E0
4.582320155E0,1.194556904E1,1.304088384E-1,2.032702923E0
4.584688801E0,1.210289669E1,1.597209126E-1,1.701895118E0
4.587084009E0,1.228953743E1,1.220339537E-1,1.423729420E0
4.589465936E0,1.247079372E1,8.913264424E-2,1.174875975E0
4.591834582E0,1.264367485E1,2.333002165E-2,9.643075466E-1
4.594229791E0,1.283031464E1,-7.118647546E-2,7.734799385E-1
4.596611666E0,1.305703449E1,-2.081755698E-1,5.772684813E-1
4.598980363E0,1.328794193E1,-4.115654826E-1,4.151547253E-1
4.601375520E0,1.353380489E1,-6.065805554E-1,2.243271172E-1
4.603757447E0,1.374616814E1,-8.147560954E-1,8.614161611E-2
4.606126093E0,1.394955826E1,-1.090528965E0,-6.101697683E-2
4.608521301E0,1.413440323E1,-1.366301775E0,-2.321037948E-1
4.610903228E0,1.433719540E1,-1.628315806E0,-4.516452849E-1
4.613271874E0,1.455494213E1,-1.909472466E0,-6.711867452E-1
4.615667082E0,1.477807236E1,-2.246860504E0,-7.609176040E-1
4.618049009E0,1.499701595E1,-2.593221426E0,-8.069794178E-1
4.620417655E0,1.521595955E1,-2.949752092E0,-7.292127013E-1
4.622812863E0,1.543011665E1,-3.299702406E0,-5.401797295E-1
4.625194791E0,1.566700649E1,-3.583251953E0,-3.098705411E-1
4.627563436E0,1.593859196E1,-3.893122435E0,1.274178028E-1
4.629958593E0,1.624367714E1,-4.245465755E0,8.949156404E-1
4.632340520E0,1.649193192E1,-4.612165451E0,1.662413478E0
4.634709166E0,1.670130348E1,-4.917848587E0,2.248056889E0
4.637104374E0,1.681376648E1,-5.168497086E0,2.675175667E0
4.639486301E0,1.679641914E1,-5.286343575E0,2.977867842E0
4.641854947E0,1.659542084E1,-5.239683151E0,3.193221807E0
4.644250155E0,1.616710663E1,-4.951348305E0,3.402593851E0
4.646632082E0,1.557847214E1,-4.398606300E0,3.463012457E0
4.649000728E0,1.502632809E1,-3.764508247E0,3.269193888E0
4.651395936E0,1.455195045E1,-3.188436270E0,2.941377163E0
4.653777863E0,1.416969776E1,-2.705684185E0,2.627917528E0
4.656146509E0,1.381555939E1,-2.290529490E0,2.401197433E0
4.658541666E0,1.344826126E1,-1.903490424E0,2.203191519E0
4.660923593E0,1.306241894E1,-1.530210137E0,2.034497499E0
4.663292238E0,1.265623760E1,-1.157527924E0,1.947159410E0
4.665687447E0,1.224706459E1,-8.231309652E-1,1.893320918E0
4.668069374E0,1.183789158E1,-5.120640397E-1,1.758126378E0
4.670438020E0,1.147119141E1,-2.350948304E-1,1.540977836E0
4.672833228E0,1.108594704E1,1.734796353E-2,1.210170031E0
4.675215155E0,1.072044373E1,2.506481707E-1,8.548358679E-1
4.677583801E0,1.037767220E1,4.695914388E-1,4.803591371E-1
4.679979009E0,1.003131104E1,6.795616150E-1,8.733802289E-2
4.682360936E0,9.733404160E0,8.464609981E-1,-3.104687333E-1
4.684729582E0,9.449256897E0,9.948160052E-1,-6.945167780E-1
4.687124791E0,9.180064201E0,1.119242787E0,-1.082752228E0
4.689506666E0,8.911469460E0,1.214955688E0,-1.427318692E0
4.691875363E0,8.647661209E0,1.287338614E0,-1.724626899E0
4.694270520E0,8.392825127E0,1.359721422E0,-1.931007862E0
4.696652447E0,8.177471161E0,1.380658627E0,-2.117049932E0
4.699021093E0,7.976474285E0,1.387238979E0,-2.255833626E0
4.701416301E0,7.780860901E0,1.399203062E0,-2.270190477E0
4.703798228E0,7.628318787E0,1.374078393E0,-2.236690998E0
4.706166874E0,7.485347271E0,1.334596872E0,-2.140379906E0
4.708562082E0,7.400402069E0,1.277169108E0,-1.986641049E0
4.710944009E0,7.343572617E0,1.205982566E0,-1.804786444E0
4.713312655E0,7.354340553E0,1.111466169E0,-1.583450437E0
4.715707863E0,7.417750359E0,1.003190875E0,-1.329213023E0
4.718089791E0,7.505088329E0,9.050851464E-1,-1.079761267E0
4.720471718E0,7.640282631E0,7.734799385E-1,-8.356932998E-1
4.722853593E0,7.852645874E0,5.910272002E-1,-5.665007830E-1
4.725235520E0,8.088936806E0,3.978067636E-1,-3.403790295E-1
4.727617447E0,8.306683540E0,1.627119333E-1,-9.092725813E-2
4.729999374E0,8.553742409E0,-1.058823988E-1,1.495514214E-1
4.732381301E0,8.752944946E0,-3.990031779E-1,3.708875179E-1
4.734763228E0,8.946763992E0,-6.879364848E-1,5.491527915E-1
4.737145155E0,9.141180992E0,-9.672985673E-1,6.897311211E-1
4.739527082E0,9.320044518E0,-1.165902853E0,7.908278704E-1
4.741895728E0,9.474979401E0,-1.359721422E0,8.542376757E-1
4.744290936E0,9.668199539E0,-1.529611826E0,8.931210637E-1
4.746672863E0,9.856036186E0,-1.660618901E0,9.553344250E-1
4.749041509E0,1.004387283E1,-1.797608018E0,1.051645517E0
4.751436666E0,1.017846966E1,-1.886142492E0,1.181456208E0
4.753818593E0,1.028973579E1,-1.984846354E0,1.310668588E0
4.756200520E0,1.036271667E1,-2.083550215E0,1.454836130E0
4.758582447E0,1.042552853E1,-2.149353027E0,1.613360643E0
4.760964374E0,1.045962620E1,-2.224726915E0,1.714457393E0
4.763346301E0,1.049372387E1,-2.300698996E0,1.810768485E0
4.765728228E0,1.053739262E1,-2.366501570E0,1.882553220E0
4.768110155E0,1.059601688E1,-2.437688112E0,1.911865234E0
4.770492082E0,1.063490009E1,-2.513062000E0,1.969292998E0
4.772874009E0,1.065404320E1,-2.531606436E0,2.060220242E0
4.775255936E0,1.063071251E1,-2.555534601E0,2.113460541E0
4.777637863E0,1.061635590E1,-2.541177750E0,2.175075769E0
4.780019791E0,1.052004433E1,-2.498705149E0,2.237289190E0
4.782401718E0,1.037647533E1,-2.443071842E0,2.266003132E0
4.784783593E0,1.017488003E1,-2.344966173E0,2.256431818E0
4.787165520E0,9.992427826E0,-2.265404940E0,2.231905222E0
4.789547447E0,9.824331284E0,-2.172084808E0,2.179263115E0
4.791929374E0,9.684949875E0,-2.083550215E0,2.087737799E0
4.794311301E0,9.559925079E0,-2.008774519E0,1.977667928E0
4.796693228E0,9.448060036E0,-1.924427629E0,1.895713687E0
4.799075155E0,9.346963882E0,-1.835294962E0,1.785643935E0
4.801457082E0,9.231510162E0,-1.741376638E0,1.713261008E0
4.803839009E0,9.120243073E0,-1.646261930E0,1.650449395E0
4.806220936E0,8.990432739E0,-1.557727575E0,1.544566989E0
4.808602863E0,8.874381065E0,-1.435095429E0,1.419542074E0
4.810984791E0,8.715856552E0,-1.332203984E0,1.319043517E0
4.813366718E0,8.551948547E0,-1.224527001E0,1.222732425E0
4.815748593E0,8.411968231E0,-1.135992527E0,1.127019525E0
4.818130520E0,8.263014793E0,-1.089930773E0,1.021137118E0
4.820512447E0,8.109275818E0,-1.006181955E0,9.445667267E-1
4.822894374E0,7.964509964E0,-8.841479421E-1,8.291130662E-1
4.825276301E0,7.829914093E0,-8.045865893E-1,7.525427341E-1
4.827658228E0,7.700701237E0,-7.531409264E-1,7.668996453E-1
4.830040155E0,7.585845947E0,-7.166503668E-1,7.423732281E-1
4.832422082E0,7.479963779E0,-6.843472719E-1,6.897311211E-1
4.834804009E0,7.398009300E0,-6.233302951E-1,6.131607890E-1
4.837185936E0,7.335197926E0,-5.425725579E-1,5.545366406E-1
4.839567863E0,7.272386074E0,-5.000999570E-1,5.258227587E-1
4.841949791E0,7.277172089E0,-5.048855543E-1,5.647061467E-1
4.844331718E0,7.262216568E0,-4.857429862E-1,5.982056856E-1
4.846713593E0,7.285546780E0,-4.091726840E-1,6.358926296E-1
4.849095520E0,7.318448067E0,-3.176472187E-1,6.550351977E-1
4.851477447E0,7.323233604E0,-2.937189937E-1,6.693921089E-1
4.853859374E0,7.356733322E0,-2.931207716E-1,6.927221417E-1
4.856241301E0,7.351349354E0,-2.596212626E-1,6.831508875E-1
4.858623228E0,7.298707485E0,-2.177468538E-1,6.257231236E-1
4.861005155E0,7.216155052E0,-1.854437590E-1,5.635097623E-1
4.863387082E0,7.153343201E0,-1.339980662E-1,4.953143001E-1
4.865769009E0,7.091129780E0,-1.064806059E-1,4.235295951E-1
4.868150936E0,7.067201614E0,-7.836493850E-2,3.565305769E-1
4.870532863E0,7.057032108E0,-5.443671346E-2,3.469592929E-1
4.872914791E0,7.046862602E0,3.170489892E-2,3.272185028E-1
4.875296666E0,7.088737011E0,1.130608693E-1,3.128615618E-1
4.877678593E0,7.154539585E0,2.045863420E-1,3.122633696E-1
4.880060520E0,7.244270325E0,3.062812984E-1,3.403790295E-1
4.882442447E0,7.320242882E0,4.025924206E-1,3.828516304E-1
4.884824374E0,7.391428947E0,4.564309120E-1,4.354937077E-1
4.887206301E0,7.448258877E0,5.330012441E-1,4.396811724E-1
4.889588228E0,7.485347271E0,6.059823632E-1,4.582255483E-1
4.891970155E0,7.552346706E0,6.305087805E-1,4.295116663E-1
4.894352082E0,7.580461979E0,6.502495408E-1,4.390829504E-1
4.896734009E0,7.637889862E0,6.604190469E-1,4.342973232E-1
4.899115936E0,7.718647480E0,6.658028960E-1,4.193421602E-1
4.901497863E0,7.790432453E0,6.616154313E-1,4.001995921E-1
4.903879791E0,7.857431412E0,6.484549642E-1,4.576273263E-1
4.906261718E0,7.939385414E0,6.017948985E-1,5.300102234E-1
4.908643645E0,8.041080475E0,5.024927258E-1,6.119644046E-1
4.911025520E0,8.098507881E0,4.558327198E-1,7.130611539E-1
4.913407447E0,8.170890808E0,4.187439680E-1,8.039883971E-1
4.915789374E0,8.239086151E0,3.050848842E-1,9.481559992E-1
4.918171301E0,8.277970314E0,2.297109663E-1,1.067797065E0
4.920553228E0,8.283951759E0,1.393819153E-1,1.154536963E0
4.922935155E0,8.312665939E0,1.256231815E-1,1.164108157E0
4.925317082E0,8.341978073E0,6.400800496E-2,1.235892892E0
4.927699009E0,8.395217896E0,2.991028363E-3,1.336989641E0
4.930080936E0,8.458627701E0,-6.759724021E-2,1.442273855E0
4.932462863E0,8.498109818E0,-1.573280841E-1,1.548156261E0
4.934844791E0,8.513663292E0,-2.566302419E-1,1.697707653E0
4.937226718E0,8.547760963E0,-3.182454109E-1,1.769492388E0
4.939608645E0,8.581858635E0,-3.702892959E-1,1.779661894E0
4.941990520E0,8.572885513E0,-4.325026870E-1,1.770090580E0
4.944372447E0,8.568697929E0,-5.282155871E-1,1.780260086E0
