"Time (s)","Gyroscope x (rad/s)","Gyroscope y (rad/s)","Gyroscope z (rad/s)"
2.993650900E-2,-7.605048269E-2,2.611372061E-2,-8.399149403E-3
3.231843600E-2,-7.116370648E-2,3.710897267E-2,-1.084253844E-2
3.470036300E-2,-6.627693027E-2,4.443913698E-2,-1.343864016E-2
3.708229100E-2,-6.505523622E-2,5.039490014E-2,-1.466033421E-2
3.946416600E-2,-6.016845629E-2,5.650337040E-2,-1.710372418E-2
4.184609300E-2,-5.772506446E-2,5.772506446E-2,-1.954711229E-2
4.422802000E-2,-5.650337040E-2,5.650337040E-2,-2.076880634E-2
4.660994700E-2,-5.146388337E-2,5.528167635E-2,-2.076880634E-2
4.899187400E-2,-4.902049154E-2,5.421269313E-2,-1.939439960E-2
5.137380100E-2,-4.535540938E-2,5.299099907E-2,-1.817270555E-2
5.375572800E-2,-3.909422457E-2,5.176930502E-2,-1.695101149E-2
5.613765500E-2,-3.405473381E-2,4.337015375E-2,-1.450762246E-2
5.851958200E-2,-2.779355086E-2,3.726168349E-2,-1.206423342E-2
6.090150900E-2,-2.153236605E-2,3.008422814E-2,-9.468132630E-3
6.328338400E-2,-1.404948719E-2,2.290677279E-2,-1.068982668E-2
6.566531100E-2,-4.123218823E-3,1.435491070E-2,-1.068982668E-2
6.804723800E-2,5.803049076E-3,8.399149403E-3,-9.315420873E-3
7.042916600E-2,1.450762246E-2,2.443389036E-3,-5.650337320E-3
7.281109300E-2,2.321219631E-2,-2.443389036E-3,-4.428642802E-3
7.519302000E-2,3.069507517E-2,-4.734066315E-3,-3.206948051E-3
7.757494700E-2,4.062134400E-2,-7.177455351E-3,6.108472589E-4
7.995687400E-2,4.566083103E-2,-8.246437646E-3,3.054236295E-3
8.233880100E-2,4.932591692E-2,-8.246437646E-3,6.719320081E-3
8.472072800E-2,5.192201585E-2,-5.803049076E-3,9.162709117E-3
8.710260300E-2,5.314370990E-2,-5.803049076E-3,1.160609815E-2
8.948453000E-2,5.680879578E-2,-4.581354558E-3,1.527118124E-2
9.186645700E-2,5.558710173E-2,-3.359660041E-3,1.771457121E-2
9.424838400E-2,5.680879578E-2,-4.581354558E-3,1.893626526E-2
9.663031100E-2,5.436540768E-2,-5.803049076E-3,2.015795931E-2
9.901223800E-2,5.436540768E-2,-7.024743594E-3,1.893626526E-2
1.013941660E-1,5.070032179E-2,-8.246437646E-3,1.893626526E-2
1.037760930E-1,5.070032179E-2,-9.468132630E-3,1.893626526E-2
1.061580200E-1,4.825693369E-2,-1.068982668E-2,1.771457121E-2
1.085399470E-1,4.459185153E-2,-1.435491070E-2,1.771457121E-2
1.109218220E-1,4.199574888E-2,-1.679829881E-2,1.649287529E-2
1.133037490E-1,3.833066672E-2,-1.924168877E-2,1.649287529E-2
1.156856760E-1,3.466558084E-2,-2.412846684E-2,1.649287529E-2
1.180676030E-1,3.100049868E-2,-2.779355086E-2,1.649287529E-2
1.204495300E-1,2.596100792E-2,-2.901524492E-2,1.527118124E-2
1.228314570E-1,2.107422985E-2,-3.268032894E-2,1.160609815E-2
1.252133840E-1,1.863084175E-2,-3.512371704E-2,1.160609815E-2
1.275953110E-1,1.725643501E-2,-3.512371704E-2,1.282779220E-2
1.299772380E-1,1.725643501E-2,-3.634541109E-2,1.160609815E-2
1.323591660E-1,1.481304597E-2,-3.390202299E-2,1.527118124E-2
1.347410930E-1,1.603474095E-2,-3.145863488E-2,1.649287529E-2
1.371230200E-1,1.603474095E-2,-2.779355086E-2,1.527118124E-2
1.395049470E-1,1.481304597E-2,-2.412846684E-2,1.649287529E-2
1.418868220E-1,1.359135192E-2,-2.168507688E-2,1.649287529E-2
1.442687490E-1,1.359135192E-2,-2.046338283E-2,1.649287529E-2
1.466506760E-1,1.099525020E-2,-1.939439960E-2,1.771457121E-2
1.490326030E-1,1.359135192E-2,-1.572931744E-2,1.649287529E-2
1.514145300E-1,1.481304597E-2,-1.695101149E-2,1.527118124E-2
1.537964570E-1,1.359135192E-2,-1.939439960E-2,1.527118124E-2
1.561783840E-1,1.359135192E-2,-1.939439960E-2,1.649287529E-2
1.585603110E-1,1.359135192E-2,-2.061609551E-2,1.282779220E-2
1.609422380E-1,1.481304597E-2,-2.412846684E-2,1.038440317E-2
1.633241130E-1,1.359135192E-2,-2.779355086E-2,9.162709117E-3
1.657060410E-1,1.359135192E-2,-3.390202299E-2,9.162709117E-3
1.680879680E-1,1.481304597E-2,-3.878879920E-2,9.162709117E-3
1.704698950E-1,1.481304597E-2,-4.001049697E-2,7.941014133E-3
1.728518220E-1,1.481304597E-2,-4.123219103E-2,6.719320081E-3
1.752337490E-1,1.359135192E-2,-4.489727318E-2,5.497625098E-3
1.776156760E-1,1.603474095E-2,-4.123219103E-2,4.275931045E-3
1.799976030E-1,1.740914769E-2,-4.489727318E-2,6.719320081E-3
1.823795300E-1,1.740914769E-2,-4.611896724E-2,4.275931045E-3
1.847614570E-1,1.863084175E-2,-4.596625641E-2,5.497625098E-3
1.871433320E-1,1.985253580E-2,-4.474456236E-2,6.719320081E-3
1.895252590E-1,1.985253580E-2,-4.245388508E-2,5.497625098E-3
1.919071860E-1,2.107422985E-2,-4.474456236E-2,5.497625098E-3
1.942891130E-1,2.107422985E-2,-4.230117425E-2,7.941014133E-3
1.966710410E-1,1.863084175E-2,-4.001049697E-2,7.941014133E-3
1.990529680E-1,2.107422985E-2,-4.123219103E-2,7.941014133E-3
2.014348950E-1,1.985253580E-2,-4.001049697E-2,7.941014133E-3
2.038168220E-1,1.985253580E-2,-4.123219103E-2,7.941014133E-3
2.061987490E-1,1.863084175E-2,-4.245388508E-2,6.719320081E-3
2.085806760E-1,1.618745178E-2,-4.596625641E-2,7.941014133E-3
2.109626030E-1,1.359135192E-2,-4.489727318E-2,6.719320081E-3
2.133444780E-1,1.236965694E-2,-4.963133857E-2,7.941014133E-3
2.157264050E-1,8.704573847E-3,-5.207473040E-2,7.941014133E-3
2.181083320E-1,7.482878864E-3,-5.451811850E-2,9.162709117E-3
2.204902590E-1,6.261184346E-3,-5.818320066E-2,9.162709117E-3
2.228721860E-1,1.374406274E-3,-6.062658876E-2,9.162709117E-3
2.252541130E-1,3.817795310E-3,-6.062658876E-2,1.038440317E-2
2.276360410E-1,2.596100792E-3,-6.429167092E-2,7.941014133E-3
2.300179680E-1,1.374406274E-3,-6.429167092E-2,7.941014133E-3
2.323998950E-1,1.374406274E-3,-6.551336497E-2,9.162709117E-3
2.347817700E-1,1.374406274E-3,-6.795676053E-2,1.160609815E-2
2.371636970E-1,2.596100792E-3,-7.040014863E-2,1.160609815E-2
2.395456240E-1,3.817795310E-3,-7.162184268E-2,1.160609815E-2
2.419275510E-1,5.039489828E-3,-7.162184268E-2,1.038440317E-2
2.443094780E-1,5.192201585E-3,-7.269082218E-2,1.160609815E-2
2.466914050E-1,7.635590620E-3,-7.635590434E-2,1.038440317E-2
2.490733320E-1,7.635590620E-3,-7.269082218E-2,1.160609815E-2
2.514552590E-1,8.857285604E-3,-7.391251624E-2,1.282779220E-2
2.538371860E-1,1.130067464E-2,-7.146912813E-2,1.160609815E-2
2.562191130E-1,1.374406368E-2,-6.780404598E-2,1.404948719E-2
2.586010410E-1,1.496575773E-2,-6.536065787E-2,1.404948719E-2
2.609829160E-1,1.740914769E-2,-6.291726977E-2,1.404948719E-2
2.633648430E-1,2.000524849E-2,-6.169557199E-2,1.404948719E-2
2.657467700E-1,2.367033064E-2,-6.047387794E-2,1.664558798E-2
2.681286970E-1,2.489202656E-2,-5.680879578E-2,1.786728203E-2
2.705106240E-1,2.733541466E-2,-5.803048983E-2,1.786728203E-2
2.728925510E-1,3.115320951E-2,-6.047387794E-2,1.786728203E-2
2.752744780E-1,3.359659761E-2,-6.047387794E-2,1.786728203E-2
2.776564050E-1,3.481829539E-2,-6.169557199E-2,1.908897609E-2
2.800383320E-1,3.603998944E-2,-6.047387794E-2,1.908897609E-2
2.824202590E-1,3.726168349E-2,-6.047387794E-2,1.908897609E-2
2.848021340E-1,3.863608837E-2,-6.291726977E-2,1.786728203E-2
2.871841130E-1,3.985778242E-2,-6.047387794E-2,1.786728203E-2
2.895659880E-1,3.848337755E-2,-5.680879578E-2,1.786728203E-2
2.919479160E-1,3.726168349E-2,-5.558710173E-2,1.542389300E-2
2.943298430E-1,3.603998944E-2,-5.558710173E-2,1.542389300E-2
2.967117700E-1,3.603998944E-2,-5.558710173E-2,1.664558798E-2
2.990936970E-1,3.481829539E-2,-5.436540768E-2,1.664558798E-2
3.014756240E-1,3.100049868E-2,-5.192201585E-2,1.664558798E-2
3.038575510E-1,2.855710872E-2,-4.840964451E-2,1.527118124E-2
3.062394780E-1,2.489202656E-2,-4.718795046E-2,1.649287529E-2
3.086214050E-1,1.863084175E-2,-4.718795046E-2,1.771457121E-2
3.110032800E-1,1.496575773E-2,-4.596625641E-2,1.649287529E-2
3.133852070E-1,9.926267900E-3,-4.367557913E-2,1.527118124E-2
3.157671340E-1,1.221694518E-3,-4.489727318E-2,1.404948719E-2
3.181490610E-1,-4.886778072E-3,-4.489727318E-2,1.282779220E-2
3.205309880E-1,-1.236965694E-2,-4.367557913E-2,1.404948719E-2
3.229129160E-1,-1.985253580E-2,-4.382828996E-2,1.145338640E-2
3.252948430E-1,-2.596100792E-2,-4.382828996E-2,1.023169141E-2
3.276767700E-1,-3.466558084E-2,-4.382828996E-2,1.145338640E-2
3.300586970E-1,-4.337015375E-2,-4.749337584E-2,1.023169141E-2
3.324406240E-1,-4.963133857E-2,-4.764608666E-2,6.566607859E-3
3.348225510E-1,-5.833591148E-2,-4.764608666E-2,6.566607859E-3
3.372044260E-1,-6.444438547E-2,-4.642439261E-2,6.413896102E-3
3.395863530E-1,-6.948387623E-2,-4.764608666E-2,6.413896102E-3
3.419682800E-1,-7.559234649E-2,-4.657710344E-2,3.970507067E-3
3.443502070E-1,-7.941014320E-2,-4.413371533E-2,1.527118147E-3
3.467321340E-1,-8.307522535E-2,-4.413371533E-2,3.054236295E-4
3.491140610E-1,-8.567132801E-2,-4.169032723E-2,3.054236295E-4
3.514959880E-1,-8.689302206E-2,-4.062134400E-2,-3.359660041E-3
3.538779160E-1,-8.811471611E-2,-3.817795217E-2,-7.024743594E-3
3.562598430E-1,-8.567132801E-2,-3.573456407E-2,-8.246437646E-3
3.586417180E-1,-8.567132801E-2,-3.329117596E-2,-1.328592747E-2
3.610236450E-1,-8.322793990E-2,-3.573456407E-2,-1.572931744E-2
3.634055720E-1,-8.200624585E-2,-3.206948191E-2,-1.817270555E-2
3.657874990E-1,-8.215895295E-2,-3.100049868E-2,-2.428117767E-2
3.681694260E-1,-7.971556485E-2,-3.100049868E-2,-2.916795574E-2
3.705513530E-1,-7.971556485E-2,-2.855710872E-2,-3.405473381E-2
3.729332800E-1,-7.971556485E-2,-2.855710872E-2,-3.894151375E-2
3.753152070E-1,-8.093725890E-2,-2.733541466E-2,-4.260659590E-2
3.776971340E-1,-8.093725890E-2,-2.993151546E-2,-4.871506989E-2
3.800790610E-1,-8.108997345E-2,-2.626643144E-2,-5.238015205E-2
3.824609360E-1,-8.108997345E-2,-2.504473738E-2,-5.619794875E-2
3.848428630E-1,-8.353336155E-2,-2.504473738E-2,-5.864133686E-2
3.872247910E-1,-8.353336155E-2,-2.382304333E-2,-6.108472496E-2
3.896067180E-1,-8.353336155E-2,-2.260134928E-2,-6.108472496E-2
3.919886450E-1,-8.490777016E-2,-1.786728203E-2,-6.352811307E-2
3.943705720E-1,-8.490777016E-2,-1.664558798E-2,-6.352811307E-2
3.967524990E-1,-8.490777016E-2,-1.664558798E-2,-6.352811307E-2
3.991344260E-1,-8.612946421E-2,-1.420219894E-2,-6.474980712E-2
4.015163530E-1,-8.612946421E-2,-1.664558798E-2,-6.352811307E-2
4.038982800E-1,-8.612946421E-2,-1.542389300E-2,-6.108472496E-2
4.062802070E-1,-8.857285231E-2,-1.175880991E-2,-6.108472496E-2
4.086620820E-1,-9.116895497E-2,-1.053711493E-2,-6.352811307E-2
4.110440090E-1,-9.116895497E-2,-9.315420873E-3,-6.108472496E-2
4.134259360E-1,-9.239064902E-2,-8.093725890E-3,-5.986303091E-2
4.158078630E-1,-9.239064902E-2,-5.650337320E-3,-5.986303091E-2
4.181897910E-1,-9.361234307E-2,-5.650337320E-3,-5.864133686E-2
4.205717180E-1,-9.483403713E-2,-5.650337320E-3,-5.619794875E-2
4.229536450E-1,-9.605573118E-2,-5.650337320E-3,-5.375456065E-2
4.253355720E-1,-9.727742523E-2,-4.428642802E-3,-5.131116882E-2
4.277174990E-1,-9.727742523E-2,-5.650337320E-3,-5.008947477E-2
4.300994260E-1,-9.972081333E-2,-1.053711493E-2,-4.642439261E-2
4.324813530E-1,-1.021642014E-1,-1.053711493E-2,-4.398100078E-2
4.348632280E-1,-1.021642014E-1,-1.420219894E-2,-4.520269856E-2
4.372451550E-1,-1.033858955E-1,-1.664558798E-2,-4.153761268E-2
4.396270820E-1,-1.058292910E-1,-1.908897609E-2,-4.153761268E-2
4.420090090E-1,-1.058292910E-1,-2.275406010E-2,-4.275930673E-2
4.443909360E-1,-1.058292910E-1,-2.626643144E-2,-4.275930673E-2
4.467728630E-1,-1.032331884E-1,-2.870982140E-2,-4.031591862E-2
4.491547910E-1,-1.032331884E-1,-2.993151546E-2,-4.031591862E-2
4.515367180E-1,-1.020114943E-1,-2.870982140E-2,-4.153761268E-2
4.539186450E-1,-9.956810623E-2,-2.870982140E-2,-4.153761268E-2
4.563005720E-1,-9.712471068E-2,-2.626643144E-2,-4.016320780E-2
4.586824470E-1,-9.834641218E-2,-2.748812735E-2,-4.153761268E-2
4.610643740E-1,-9.590301663E-2,-2.504473738E-2,-4.016320780E-2
4.634463010E-1,-9.468132257E-2,-2.382304333E-2,-3.894151375E-2
4.658282280E-1,-9.345962852E-2,-2.015795931E-2,-3.894151375E-2
4.682101550E-1,-9.345962852E-2,-1.771457121E-2,-4.031591862E-2
4.705920820E-1,-9.223793447E-2,-1.527118124E-2,-3.909422457E-2
4.729740090E-1,-9.223793447E-2,-1.038440317E-2,-3.909422457E-2
4.753559360E-1,-9.101624042E-2,-9.315420873E-3,-3.909422457E-2
4.777378630E-1,-9.223793447E-2,-6.872031838E-3,-3.787253052E-2
4.801197910E-1,-9.101624042E-2,-3.206948051E-3,-3.787253052E-2
4.825017180E-1,-9.223793447E-2,-3.206948051E-3,-3.787253052E-2
4.848835930E-1,-9.223793447E-2,-3.206948051E-3,-3.542914242E-2
4.872655200E-1,-9.712471068E-2,-7.635590737E-4,-3.542914242E-2
4.896474470E-1,-1.009425074E-1,-1.985253533E-3,-3.420744836E-2
4.920293740E-1,-1.033858955E-1,-7.635590737E-4,-3.665083647E-2
4.944113010E-1,-1.059819981E-1,2.748812549E-3,-3.787253052E-2
4.967932280E-1,-1.084253863E-1,5.192201585E-3,-3.787253052E-2
4.991751550E-1,-1.133121699E-1,5.192201585E-3,-3.909422457E-2
5.015570820E-1,-1.159082651E-1,6.413896102E-3,-4.153761268E-2
5.039390090E-1,-1.207950488E-1,8.704573847E-3,-4.413371533E-2
5.063208840E-1,-1.246128380E-1,1.114796288E-2,-4.535540938E-2
5.087028110E-1,-1.308740228E-1,9.926267900E-3,-4.902049154E-2
5.110847380E-1,-1.357607991E-1,1.236965694E-2,-5.024218559E-2
5.134666660E-1,-1.444653720E-1,9.773556143E-3,-5.390727147E-2
5.158485930E-1,-1.519482583E-1,6.108472589E-3,-5.879404768E-2
5.182305200E-1,-1.618745178E-1,2.443389036E-3,-6.505523622E-2
5.206124470E-1,-1.718007922E-1,-5.039489828E-3,-6.994201243E-2
5.229943740E-1,-1.829487532E-1,-1.114796288E-2,-7.482878864E-2
5.253763010E-1,-1.953184158E-1,-1.847812906E-2,-8.093725890E-2
5.277582280E-1,-2.040229887E-1,-2.702999115E-2,-8.582404256E-2
5.301401550E-1,-2.163926363E-1,-3.436015919E-2,-8.964183182E-2
5.325220820E-1,-2.275405973E-1,-4.306473210E-2,-9.452861547E-2
5.349039570E-1,-2.350234836E-1,-4.795150831E-2,-1.018587798E-1
5.372858840E-1,-2.423536479E-1,-5.283828825E-2,-1.079672500E-1
5.396678110E-1,-2.498365343E-1,-5.894676223E-2,-1.104106456E-1
5.420497380E-1,-2.547233105E-1,-6.261184067E-2,-1.128540337E-1
5.444316660E-1,-2.609844804E-1,-6.505523622E-2,-1.178935245E-1
5.468135930E-1,-2.646495700E-1,-6.994201243E-2,-1.203369126E-1
5.491955200E-1,-2.670929730E-1,-7.482878864E-2,-1.215586066E-1
5.515774470E-1,-2.658712566E-1,-7.849387079E-2,-1.264453828E-1
5.539593740E-1,-2.634278834E-1,-8.582404256E-2,-1.275143623E-1
5.563413010E-1,-2.583884001E-1,-9.300149232E-2,-1.287360638E-1
5.587231760E-1,-2.521272004E-1,-1.027750522E-1,-1.299577504E-1
5.611051030E-1,-2.422009408E-1,-1.123958975E-1,-1.336228400E-1
5.634870300E-1,-2.334963679E-1,-1.183516532E-1,-1.298050433E-1
5.658689570E-1,-2.211267054E-1,-1.232384369E-1,-1.298050433E-1
5.682508840E-1,-2.086043358E-1,-1.206423342E-1,-1.273616552E-1
5.706328110E-1,-1.925695986E-1,-1.108687744E-1,-1.249182671E-1
5.730147380E-1,-1.777565479E-1,-9.743013978E-2,-1.224748790E-1
5.753966660E-1,-1.617218107E-1,-8.276980370E-2,-1.186570823E-1
5.777785930E-1,-1.444653720E-1,-6.810946763E-2,-1.162136942E-1
5.801605200E-1,-1.282779276E-1,-5.589252338E-2,-1.125486046E-1
5.825423950E-1,-1.146865711E-1,-4.611896724E-2,-1.076618284E-1
5.849243220E-1,-9.987352788E-2,-3.512371704E-2,-1.039967462E-1
5.873062490E-1,-8.994726092E-2,-2.290677279E-2,-9.666658193E-2
5.896881760E-1,-8.017370105E-2,-1.313321572E-2,-9.284878522E-2
5.920701030E-1,-6.902574003E-2,3.054236295E-4,-8.796200156E-2
5.944520300E-1,-6.276455522E-2,1.374406368E-2,-8.307522535E-2
5.968339570E-1,-5.543438718E-2,2.718270384E-2,-8.063183725E-2
5.992158840E-1,-4.932591692E-2,3.924693540E-2,-7.941014320E-2
6.015978110E-1,-3.939964995E-2,4.779879749E-2,-7.818844914E-2
6.039796860E-1,-3.069507517E-2,5.268557742E-2,-7.696675509E-2
6.063616130E-1,-1.832541823E-2,5.894676223E-2,-7.452336699E-2
6.087435410E-1,-4.734066315E-3,5.772506446E-2,-7.452336699E-2
6.111254680E-1,1.145338640E-2,5.665608495E-2,-7.314895838E-2
6.135073950E-1,2.870982140E-2,5.558710173E-2,-6.948387623E-2
6.158893220E-1,4.489727318E-2,5.192201585E-2,-7.070557028E-2
6.182712490E-1,6.352811307E-2,4.718795046E-2,-6.688777357E-2
6.206531760E-1,8.215895295E-2,4.367557913E-2,-6.322269142E-2
6.230351030E-1,9.834641218E-2,3.527642787E-2,-6.184828654E-2
6.254170300E-1,1.169772521E-1,3.054236248E-2,-5.818320066E-2
6.277989570E-1,1.319430023E-1,2.580829710E-2,-5.558710173E-2
6.301808320E-1,1.455343664E-1,2.351761982E-2,-5.558710173E-2
6.325627590E-1,1.592784226E-1,1.863084175E-2,-5.192201585E-2
6.349446860E-1,1.716480851E-1,1.511846948E-2,-4.810422286E-2
6.373266130E-1,1.829487532E-1,1.038440317E-2,-4.688252881E-2
6.397085410E-1,1.916533262E-1,5.497625098E-3,-4.443913698E-2
6.420904680E-1,2.003578991E-1,4.428642802E-3,-4.184303805E-2
6.444723950E-1,2.064663768E-1,3.206948051E-3,-3.695625812E-2
6.468543220E-1,2.127275616E-1,-3.054236295E-4,-3.695625812E-2
6.492362490E-1,2.189887464E-1,9.162708884E-4,-3.329117596E-2
6.516181760E-1,2.238755226E-1,4.581354558E-3,-3.206948191E-2
6.540001030E-1,2.276933193E-1,4.581354558E-3,-2.947338112E-2
6.563819780E-1,2.289150059E-1,3.359660041E-3,-2.825168520E-2
6.587639050E-1,2.276933193E-1,7.024743594E-3,-2.336490713E-2
6.611458320E-1,2.264716178E-1,8.246437646E-3,-1.969982497E-2
6.635277590E-1,2.276933193E-1,3.512371797E-3,-1.481304597E-2
6.659096860E-1,2.276933193E-1,1.068982761E-3,-1.114796288E-2
6.682916130E-1,2.240282297E-1,-1.527118147E-4,-9.926267900E-3
6.706735410E-1,2.191414535E-1,-3.817795310E-3,-9.926267900E-3
6.730554680E-1,2.154763639E-1,-5.039489828E-3,-7.482878864E-3
6.754373950E-1,2.104368806E-1,-1.114796288E-2,-8.704573847E-3
6.778193220E-1,2.055501044E-1,-1.236965694E-2,-8.704573847E-3
6.802012490E-1,2.006633282E-1,-1.725643501E-2,-7.482878864E-3
6.825831240E-1,1.944021434E-1,-2.092151903E-2,-6.261184346E-3
6.849650510E-1,1.907370538E-1,-2.580829710E-2,-1.374406274E-3
6.873469780E-1,1.882936656E-1,-3.054236248E-2,2.290677279E-3
6.897289050E-1,1.821851879E-1,-3.420744836E-2,5.955760833E-3
6.921108320E-1,1.747023165E-1,-3.787253052E-2,9.620844387E-3
6.944927590E-1,1.710372269E-1,-3.909422457E-2,1.328592747E-2
6.968746860E-1,1.649287641E-1,-4.520269856E-2,1.328592747E-2
6.992566130E-1,1.612636745E-1,-4.764608666E-2,1.450762246E-2
7.016385410E-1,1.550024897E-1,-5.131116882E-2,1.206423342E-2
7.040204680E-1,1.450762302E-1,-5.024218559E-2,8.399149403E-3
7.064023430E-1,1.400367320E-1,-5.024218559E-2,2.137965523E-3
7.087842700E-1,1.325538605E-1,-5.039490014E-2,-1.527118147E-3
7.111661970E-1,1.264453828E-1,-5.161659420E-2,-8.857285604E-3
7.135481240E-1,1.177408099E-1,-4.917320609E-2,-1.252236869E-2
7.159300510E-1,1.076618284E-1,-4.566083103E-2,-1.634016447E-2
7.183119780E-1,9.895725548E-2,-4.337015375E-2,-2.122694254E-2
7.206939050E-1,9.147437662E-2,-4.214845970E-2,-2.611372061E-2
7.230758320E-1,8.154810965E-2,-4.107947648E-2,-2.993151546E-2
7.254577590E-1,6.917845458E-2,-3.863608837E-2,-3.115320951E-2
7.278396860E-1,5.558710173E-2,-4.001049697E-2,-3.237490356E-2
7.302215610E-1,4.550812021E-2,-4.001049697E-2,-3.726168349E-2
7.326034880E-1,3.695625812E-2,-4.016320780E-2,-3.985778242E-2
7.349854160E-1,2.687728032E-2,-4.016320780E-2,-4.352286831E-2
7.373673430E-1,2.076880634E-2,-4.138490185E-2,-4.474456236E-2
7.397492700E-1,1.328592747E-2,-4.153761268E-2,-4.596625641E-2
7.421311970E-1,4.581354558E-3,-4.520269856E-2,-4.718795046E-2
7.445131240E-1,4.581354558E-3,-4.520269856E-2,-4.352286831E-2
7.468950510E-1,9.162708884E-4,-4.886778072E-2,-4.230117425E-2
7.492769780E-1,2.137965523E-3,-4.886778072E-2,-4.230117425E-2
7.516589050E-1,2.290677279E-3,-4.627167806E-2,-3.741439432E-2
7.540408320E-1,2.290677279E-3,-4.871506989E-2,-3.374931216E-2
7.564227070E-1,2.290677279E-3,-4.871506989E-2,-3.130592033E-2
7.588046340E-1,4.734066315E-3,-4.749337584E-2,-2.641914412E-2
7.611865610E-1,9.773556143E-3,-4.504998401E-2,-2.397575416E-2
7.635684880E-1,1.343864016E-2,-4.138490185E-2,-2.031067200E-2
7.659504160E-1,1.710372418E-2,-3.894151375E-2,-1.664558798E-2
7.683323430E-1,2.336490713E-2,-3.634541109E-2,-1.404948719E-2
7.707142700E-1,2.947338112E-2,-3.145863488E-2,-1.404948719E-2
7.730961970E-1,3.695625812E-2,-2.657185495E-2,-1.038440317E-2
7.754781240E-1,4.443913698E-2,-2.168507688E-2,-1.038440317E-2
7.778599990E-1,5.299099907E-2,-1.435491070E-2,-1.038440317E-2
7.802419260E-1,6.169557199E-2,-8.246437646E-3,-9.162709117E-3
7.826238530E-1,7.040014863E-2,-2.137965523E-3,-7.941014133E-3
7.850057800E-1,7.650861889E-2,5.192201585E-3,-1.160609815E-2
7.873877070E-1,8.261708915E-2,1.359135192E-2,-1.282779220E-2
7.897696340E-1,8.628217876E-2,2.214321308E-2,-1.282779220E-2
7.921515610E-1,8.872556686E-2,3.191677108E-2,-1.282779220E-2
7.945334880E-1,8.872556686E-2,4.031591862E-2,-1.282779220E-2
7.969154160E-1,8.994726092E-2,5.008947477E-2,-1.298050396E-2
7.992973430E-1,8.979454637E-2,5.726693198E-2,-1.298050396E-2
8.016792700E-1,9.101624042E-2,6.215370819E-2,-1.175880991E-2
8.040611970E-1,9.101624042E-2,7.070557028E-2,-1.298050396E-2
8.064430720E-1,8.979454637E-2,7.437065244E-2,-1.542389300E-2
8.088249990E-1,9.223793447E-2,7.437065244E-2,-1.664558798E-2
8.112069260E-1,9.101624042E-2,7.681404054E-2,-1.420219894E-2
8.135888530E-1,9.223793447E-2,7.559234649E-2,-1.298050396E-2
8.159707800E-1,9.345962852E-2,7.803573459E-2,-1.298050396E-2
8.183527070E-1,9.468132257E-2,7.803573459E-2,-1.420219894E-2
8.207346340E-1,9.712471068E-2,7.925742865E-2,-1.298050396E-2
8.231165610E-1,9.956810623E-2,7.559234649E-2,-1.542389300E-2
8.254984880E-1,9.834641218E-2,7.437065244E-2,-1.420219894E-2
8.278804160E-1,9.834641218E-2,7.437065244E-2,-1.420219894E-2
8.302622910E-1,9.849911928E-2,7.192726433E-2,-1.298050396E-2
8.326442180E-1,9.972081333E-2,7.070557028E-2,-1.420219894E-2
8.350261450E-1,9.834641218E-2,7.314895838E-2,-1.542389300E-2
8.374080720E-1,9.834641218E-2,7.559234649E-2,-1.420219894E-2
8.397899990E-1,9.712471068E-2,7.681404054E-2,-1.420219894E-2
8.421719260E-1,9.468132257E-2,7.803573459E-2,-1.298050396E-2
8.445538530E-1,9.468132257E-2,8.170082420E-2,-1.053711493E-2
8.469357800E-1,9.468132257E-2,8.170082420E-2,-1.053711493E-2
8.493177070E-1,9.101624042E-2,7.803573459E-2,-9.315420873E-3
8.516996340E-1,8.857285231E-2,7.803573459E-2,-9.315420873E-3
8.540815610E-1,8.597674966E-2,7.559234649E-2,-1.053711493E-2
8.564634360E-1,8.597674966E-2,7.437065244E-2,-1.298050396E-2
8.588453630E-1,8.231166750E-2,7.070557028E-2,-1.175880991E-2
8.612272910E-1,7.986827940E-2,6.826218218E-2,-1.175880991E-2
8.636092180E-1,8.231166750E-2,6.581879407E-2,-1.298050396E-2
8.659911450E-1,8.490777016E-2,6.337540597E-2,-1.175880991E-2
8.683730720E-1,8.735115826E-2,6.337540597E-2,-1.175880991E-2
8.707549990E-1,9.223793447E-2,6.337540597E-2,-1.053711493E-2
8.731369260E-1,9.361234307E-2,6.337540597E-2,-1.053711493E-2
8.755188530E-1,9.849911928E-2,6.352811307E-2,-9.315420873E-3
8.779007280E-1,1.047603041E-1,6.597150117E-2,-7.941014133E-3
8.802826550E-1,1.084253863E-1,6.719319522E-2,-4.275931045E-3
8.826645820E-1,1.133121699E-1,6.963659078E-2,-3.054236295E-3
8.850465090E-1,1.207950488E-1,7.207997888E-2,-6.108472589E-4
8.874284360E-1,1.282779276E-1,7.696675509E-2,1.832541777E-3
8.898103630E-1,1.319430023E-1,7.956285775E-2,7.941014133E-3
8.921922910E-1,1.357607991E-1,8.444963396E-2,1.282779220E-2
8.945742180E-1,1.406475753E-1,8.689302206E-2,1.649287529E-2
8.969561450E-1,1.444653720E-1,8.811471611E-2,2.153236605E-2
8.993380720E-1,1.493521482E-1,8.582404256E-2,2.641914412E-2
9.017199990E-1,1.531699449E-1,8.460234851E-2,3.130592033E-2
9.041018740E-1,1.543916464E-1,8.093725890E-2,3.374931216E-2
9.064838010E-1,1.545443535E-1,7.849387079E-2,3.863608837E-2
9.088657280E-1,1.557660550E-1,7.620319724E-2,4.107947648E-2
9.112476550E-1,1.557660550E-1,7.009471953E-2,4.489727318E-2
9.136295820E-1,1.533226669E-1,6.276455522E-2,4.856235534E-2
9.160115090E-1,1.484358907E-1,5.803048983E-2,5.222744122E-2
9.183934360E-1,1.473668963E-1,5.070032179E-2,5.589252338E-2
9.207753630E-1,1.449235082E-1,4.337015375E-2,5.833591148E-2
9.231572910E-1,1.437018216E-1,3.619270027E-2,6.200099736E-2
9.255392180E-1,1.412584335E-1,3.008422814E-2,6.322269142E-2
9.279210930E-1,1.363716573E-1,2.275406010E-2,6.688777357E-2
9.303030200E-1,1.339282542E-1,1.557660475E-2,6.826218218E-2
9.326849470E-1,1.339282542E-1,1.191152167E-2,7.070557028E-2
9.350668740E-1,1.327065676E-1,5.803049076E-3,7.437065244E-2
9.374488010E-1,1.340809762E-1,-1.374406274E-3,7.559234649E-2
9.398307280E-1,1.340809762E-1,-5.039489828E-3,7.559234649E-2
9.422126550E-1,1.353026628E-1,-7.482878864E-3,7.925742865E-2
9.445945820E-1,1.365243644E-1,-8.704573847E-3,7.925742865E-2
9.469765090E-1,1.391204596E-1,-1.221694518E-2,7.681404054E-2
9.493584360E-1,1.415638477E-1,-1.221694518E-2,7.803573459E-2
9.517403630E-1,1.440072358E-1,-1.099525020E-2,7.925742865E-2
9.541222380E-1,1.464506239E-1,-9.773556143E-3,7.681404054E-2
9.565041660E-1,1.490467340E-1,-7.330167107E-3,7.803573459E-2
9.588860930E-1,1.514901221E-1,-1.374406274E-3,7.681404054E-2
9.612680200E-1,1.527118087E-1,2.290677279E-3,7.803573459E-2
9.636499470E-1,1.537808031E-1,7.177455351E-3,7.803573459E-2
9.660318740E-1,1.550024897E-1,1.084253844E-2,7.559234649E-2
9.684138010E-1,1.525591016E-1,1.695101149E-2,7.681404054E-2
9.707957280E-1,1.525591016E-1,2.290677279E-2,7.437065244E-2
9.731776550E-1,1.511846930E-1,2.779355086E-2,7.314895838E-2
9.755595820E-1,1.487413049E-1,3.268032894E-2,7.070557028E-2
9.779414570E-1,1.461452097E-1,4.107947648E-2,6.933116168E-2
9.803233840E-1,1.424801201E-1,4.474456236E-2,6.810946763E-2
9.827053110E-1,1.398840249E-1,5.192201585E-2,6.566607952E-2
9.850872380E-1,1.349972486E-1,5.680879578E-2,6.688777357E-2
9.874691660E-1,1.311794519E-1,6.398624927E-2,6.688777357E-2
9.898510930E-1,1.285833418E-1,6.887302548E-2,6.429167092E-2
9.922330200E-1,1.249182671E-1,7.253811508E-2,6.673506647E-2
9.946149470E-1,1.186570823E-1,7.849387079E-2,6.795676053E-2
9.969968740E-1,1.149920002E-1,8.093725890E-2,6.795676053E-2
9.993788010E-1,1.087308154E-1,8.338065445E-2,6.917845458E-2
1.001760728E0,1.026223376E-1,8.444963396E-2,6.917845458E-2
1.004142603E0,9.880454093E-2,8.811471611E-2,7.040014863E-2
1.006524530E0,9.269607067E-2,9.055810422E-2,7.024743408E-2
1.008906457E0,8.765657991E-2,8.933641016E-2,7.024743408E-2
1.011288384E0,8.276980370E-2,8.933641016E-2,7.269082218E-2
1.013670311E0,8.017370105E-2,8.689302206E-2,7.024743408E-2
1.016052238E0,7.528692484E-2,8.551861346E-2,6.902574003E-2
1.018434166E0,6.902574003E-2,8.307522535E-2,6.902574003E-2
1.020816093E0,6.780404598E-2,8.063183725E-2,6.780404598E-2
1.023198020E0,6.413896382E-2,7.696675509E-2,6.902574003E-2
1.025579947E0,6.169557199E-2,7.574506104E-2,6.536065787E-2
1.027961822E0,6.413896382E-2,6.978929788E-2,6.536065787E-2
1.030343749E0,6.047387794E-2,6.856760383E-2,6.291726977E-2
1.032725676E0,6.169557199E-2,6.490252167E-2,6.291726977E-2
1.035107603E0,6.169557199E-2,6.001574174E-2,6.169557199E-2
1.037489530E0,6.291726977E-2,6.123743951E-2,5.925218388E-2
1.039871457E0,6.413896382E-2,6.001574174E-2,5.680879578E-2
1.042253384E0,6.413896382E-2,6.001574174E-2,5.436540768E-2
1.044635311E0,6.673506647E-2,5.757235363E-2,5.314370990E-2
1.047017238E0,6.917845458E-2,5.879404768E-2,5.070032179E-2
1.049399166E0,6.795676053E-2,5.512896553E-2,4.825693369E-2
1.051781093E0,6.780404598E-2,5.512896553E-2,4.459185153E-2
1.054162968E0,7.024743408E-2,5.512896553E-2,4.092676565E-2
1.056544895E0,7.024743408E-2,5.390727147E-2,3.970507160E-2
1.058926822E0,6.902574003E-2,5.512896553E-2,3.848337755E-2
1.061308749E0,6.658235192E-2,5.741964281E-2,3.603998944E-2
1.063690676E0,6.658235192E-2,5.741964281E-2,3.726168349E-2
1.066072603E0,6.780404598E-2,5.741964281E-2,3.481829539E-2
1.068454530E0,6.276455522E-2,6.108472496E-2,3.359659761E-2
1.070836457E0,6.032116711E-2,6.352811307E-2,3.359659761E-2
1.073218384E0,5.909947306E-2,6.719319522E-2,3.344388679E-2
1.075600311E0,5.909947306E-2,6.948387623E-2,3.466558084E-2
1.077982186E0,5.772506446E-2,7.192726433E-2,3.466558084E-2
1.080364113E0,5.405998230E-2,7.681404054E-2,3.588727489E-2
1.082746041E0,5.283828825E-2,7.925742865E-2,3.466558084E-2
1.085127968E0,4.779879749E-2,8.399149776E-2,3.466558084E-2
1.087509895E0,4.657710344E-2,8.643488586E-2,3.588727489E-2
1.089891822E0,4.275930673E-2,9.132166207E-2,3.588727489E-2
1.092273749E0,4.275930673E-2,9.132166207E-2,3.588727489E-2
1.094655676E0,3.909422457E-2,9.498675168E-2,3.710897267E-2
1.097037603E0,3.787253052E-2,9.620844573E-2,3.710897267E-2
1.099419530E0,3.542914242E-2,9.727742523E-2,3.833066672E-2
1.101801457E0,3.542914242E-2,9.727742523E-2,3.833066672E-2
1.104183332E0,3.405473381E-2,9.849911928E-2,3.710897267E-2
1.106565259E0,3.161134571E-2,1.009425074E-1,3.817795217E-2
1.108947186E0,3.038965166E-2,1.021642014E-1,3.817795217E-2
1.111329113E0,3.161134571E-2,1.046075895E-1,3.939964995E-2
1.113711041E0,3.038965166E-2,1.070509851E-1,3.939964995E-2
1.116092968E0,2.916795574E-2,1.058292910E-1,3.573456407E-2
1.118474895E0,2.779355086E-2,1.070509851E-1,3.573456407E-2
1.120856822E0,2.916795574E-2,1.070509851E-1,3.573456407E-2
1.123238749E0,3.038965166E-2,1.070509851E-1,3.817795217E-2
1.125620624E0,3.038965166E-2,1.058292910E-1,3.817795217E-2
1.128002603E0,2.794626169E-2,1.033858955E-1,3.939964995E-2
1.130384478E0,2.794626169E-2,9.972081333E-2,4.184303805E-2
1.132766405E0,2.672456764E-2,9.605573118E-2,4.443913698E-2
1.135148332E0,2.672456764E-2,9.009996802E-2,4.443913698E-2
1.137530259E0,2.809897438E-2,8.032641560E-2,4.688252881E-2
1.139912186E0,3.054236248E-2,7.437065244E-2,4.810422286E-2
1.142294113E0,3.191677108E-2,6.704048812E-2,4.810422286E-2
1.144676041E0,3.436015919E-2,6.337540597E-2,4.932591692E-2
1.147057968E0,3.558185324E-2,6.108472496E-2,5.054761097E-2
1.149439895E0,4.062134400E-2,5.986303091E-2,5.314370990E-2
1.151821770E0,4.550812021E-2,5.864133686E-2,5.192201585E-2
1.154203697E0,4.810422286E-2,6.108472496E-2,5.680879578E-2
1.156585624E0,5.054761097E-2,6.474980712E-2,5.803048983E-2
1.158967551E0,5.299099907E-2,6.963659078E-2,6.169557199E-2
1.161349478E0,5.299099907E-2,7.330167294E-2,6.169557199E-2
1.163731405E0,5.421269313E-2,7.085828483E-2,6.536065787E-2
1.166113332E0,5.421269313E-2,7.330167294E-2,6.658235192E-2
1.168495259E0,5.299099907E-2,7.085828483E-2,6.902574003E-2
1.170877186E0,4.932591692E-2,6.719319522E-2,6.902574003E-2
1.173259113E0,4.810422286E-2,6.245913357E-2,7.024743408E-2
1.175640988E0,4.443913698E-2,5.512896553E-2,7.146912813E-2
1.178022916E0,4.199574888E-2,5.024218559E-2,7.269082218E-2
1.180404843E0,3.833066672E-2,4.779879749E-2,7.513421029E-2
1.182786770E0,3.833066672E-2,4.291202128E-2,7.879929990E-2
1.185168697E0,3.588727489E-2,4.062134400E-2,7.879929990E-2
1.187550624E0,3.466558084E-2,3.817795217E-2,8.246438205E-2
1.189932551E0,3.588727489E-2,3.817795217E-2,8.383878320E-2
1.192314478E0,3.344388679E-2,3.329117596E-2,8.628217876E-2
1.194696405E0,3.222219273E-2,3.451287001E-2,8.872556686E-2
1.197078332E0,3.115320951E-2,2.840439789E-2,9.116895497E-2
1.199460259E0,3.115320951E-2,2.000524849E-2,9.483403713E-2
1.201842134E0,2.870982140E-2,7.788302377E-3,9.605573118E-2
1.204224061E0,2.886253223E-2,-4.275931045E-3,1.009425074E-1
1.206605988E0,3.008422814E-2,-1.511846948E-2,1.010952219E-1
1.208987916E0,3.145863488E-2,-3.084778599E-2,1.023169160E-1
1.211369843E0,3.283303976E-2,-5.024218559E-2,1.059819981E-1
1.213751770E0,3.283303976E-2,-6.245913357E-2,1.061347127E-1
1.216133697E0,3.298575059E-2,-7.207997888E-2,1.073564067E-1
1.218515624E0,3.665083647E-2,-7.574506104E-2,1.061347127E-1
1.220897551E0,4.169032723E-2,-7.207997888E-2,1.073564067E-1
1.223279478E0,4.413371533E-2,-6.230641901E-2,1.085781008E-1
1.225661405E0,4.902049154E-2,-5.146388337E-2,1.073564067E-1
1.228043332E0,5.253286287E-2,-3.680354729E-2,1.049130186E-1
1.230425207E0,5.497625470E-2,-1.985253580E-2,1.047603041E-1
1.232807134E0,5.741964281E-2,-2.901524538E-3,1.035386100E-1
1.235189061E0,5.360184610E-2,1.527118124E-2,1.010952219E-1
1.237570988E0,5.589252338E-2,3.222219273E-2,9.605573118E-2
1.239952916E0,5.573981255E-2,4.428642616E-2,9.116895497E-2
1.242334843E0,5.573981255E-2,5.894676223E-2,8.628217876E-2
1.244716770E0,5.558710173E-2,6.490252167E-2,8.368607610E-2
1.247098697E0,5.803048983E-2,6.978929788E-2,7.879929990E-2
1.249480624E0,5.925218388E-2,7.101099193E-2,7.513421029E-2
1.251862499E0,6.306997687E-2,6.612421572E-2,7.269082218E-2
1.254244426E0,6.306997687E-2,5.635065958E-2,6.780404598E-2
1.256626353E0,6.306997687E-2,4.306473210E-2,6.184828654E-2
1.259008280E0,6.688777357E-2,3.084778599E-2,5.696150661E-2
1.261390207E0,6.810946763E-2,1.511846948E-2,5.329642445E-2
1.263772134E0,7.070557028E-2,6.108472589E-4,4.963133857E-2
1.266154061E0,6.948387623E-2,-1.038440317E-2,4.718795046E-2
1.268535988E0,6.948387623E-2,-1.771457121E-2,4.718795046E-2
1.270917916E0,6.826218218E-2,-2.733541466E-2,4.596625641E-2
1.273299843E0,6.841489673E-2,-3.588727489E-2,4.489727318E-2
1.275681770E0,6.841489673E-2,-4.199574888E-2,4.367557913E-2
1.278063645E0,6.963659078E-2,-4.321744293E-2,4.123219103E-2
1.280445572E0,6.963659078E-2,-4.566083103E-2,4.001049697E-2
1.282827499E0,6.963659078E-2,-4.443913698E-2,3.756710514E-2
1.285209426E0,6.963659078E-2,-4.443913698E-2,3.756710514E-2
1.287591353E0,6.841489673E-2,-4.688252881E-2,3.512371704E-2
1.289973280E0,6.963659078E-2,-4.688252881E-2,3.268032894E-2
1.292355207E0,7.085828483E-2,-4.810422286E-2,3.023693897E-2
1.294737134E0,7.330167294E-2,-4.810422286E-2,2.901524492E-2
1.297119061E0,7.330167294E-2,-5.054761097E-2,2.412846684E-2
1.299500988E0,7.452336699E-2,-4.932591692E-2,2.412846684E-2
1.301882863E0,7.696675509E-2,-5.054761097E-2,2.046338283E-2
1.304264843E0,7.818844914E-2,-4.932591692E-2,1.908897609E-2
1.306646718E0,7.941014320E-2,-4.688252881E-2,1.664558798E-2
1.309028645E0,7.941014320E-2,-4.443913698E-2,1.420219894E-2
1.311410572E0,8.063183725E-2,-4.199574888E-2,1.175880991E-2
1.313792499E0,7.941014320E-2,-4.199574888E-2,1.053711493E-2
1.316174426E0,7.925742865E-2,-3.726168349E-2,9.315420873E-3
1.318556353E0,7.925742865E-2,-3.359659761E-2,9.315420873E-3
1.320938280E0,8.047912270E-2,-2.870982140E-2,6.872031838E-3
1.323320207E0,8.170082420E-2,-2.260134928E-2,4.428642802E-3
1.325702134E0,7.910472155E-2,-1.542389300E-2,5.650337320E-3
1.328084009E0,7.788302749E-2,-1.175880991E-2,6.872031838E-3
1.330465936E0,7.666133344E-2,-6.872031838E-3,6.719320081E-3
1.332847863E0,7.284353673E-2,-2.137965523E-3,7.941014133E-3
1.335229791E0,7.284353673E-2,5.192201585E-3,1.038440317E-2
1.337611718E0,7.162184268E-2,1.007897966E-2,1.160609815E-2
1.339993645E0,6.917845458E-2,1.969982497E-2,1.282779220E-2
1.342375572E0,7.024743408E-2,2.702999115E-2,1.404948719E-2
1.344757499E0,7.024743408E-2,3.191677108E-2,1.649287529E-2
1.347139426E0,7.024743408E-2,3.924693540E-2,1.527118124E-2
1.349521353E0,7.024743408E-2,4.642439261E-2,1.649287529E-2
1.351903280E0,7.146912813E-2,5.375456065E-2,1.893626526E-2
1.354285155E0,7.269082218E-2,5.741964281E-2,1.893626526E-2
1.356667082E0,7.131642103E-2,6.108472496E-2,1.634016447E-2
1.359049009E0,7.269082218E-2,6.230641901E-2,1.878355257E-2
1.361430936E0,7.131642103E-2,6.826218218E-2,1.878355257E-2
1.363812863E0,7.253811508E-2,7.070557028E-2,1.756185852E-2
1.366194791E0,7.253811508E-2,7.437065244E-2,1.878355257E-2
1.368576718E0,7.253811508E-2,7.437065244E-2,1.878355257E-2
1.370958645E0,7.253811508E-2,7.559234649E-2,1.511846948E-2
1.373340572E0,7.009471953E-2,7.559234649E-2,1.267508045E-2
1.375722499E0,6.887302548E-2,7.437065244E-2,1.023169141E-2
1.378104374E0,6.627693027E-2,7.437065244E-2,1.023169141E-2
1.380486301E0,6.765133142E-2,7.192726433E-2,1.023169141E-2
1.382868228E0,6.383354217E-2,6.704048812E-2,9.009997360E-3
1.385250155E0,6.261184067E-2,6.581879407E-2,6.566607859E-3
1.387632082E0,6.139015034E-2,6.581879407E-2,5.344913341E-3
1.390014009E0,6.139015034E-2,6.337540597E-2,4.123218823E-3
1.392395936E0,5.772506446E-2,6.566607952E-2,2.901524538E-3
1.394777863E0,5.635065958E-2,6.810946763E-2,2.901524538E-3
1.397159791E0,5.512896553E-2,6.566607952E-2,1.679830020E-3
1.399541718E0,5.268557742E-2,7.055285573E-2,1.679830020E-3
1.401923645E0,5.024218559E-2,7.299624383E-2,2.901524538E-3
1.404305520E0,4.642439261E-2,7.543963939E-2,1.527118147E-3
1.406687447E0,4.398100078E-2,7.773031294E-2,3.054236295E-4
1.409069374E0,4.275930673E-2,8.017370105E-2,2.748812549E-3
1.411451301E0,3.649812192E-2,8.139539510E-2,2.748812549E-3
1.413833228E0,3.023693897E-2,8.139539510E-2,3.970507067E-3
1.416215155E0,2.535016090E-2,8.017370105E-2,3.970507067E-3
1.418597082E0,2.046338283E-2,8.017370105E-2,7.635590620E-3
1.420979009E0,1.542389300E-2,7.895200700E-2,7.635590620E-3
1.423360936E0,9.315420873E-3,7.528692484E-2,7.635590620E-3
1.425742863E0,4.275931045E-3,7.284353673E-2,1.007897966E-2
1.428124791E0,-6.108472589E-4,7.146912813E-2,8.857285604E-3
1.430506666E0,-5.650337320E-3,7.146912813E-2,8.857285604E-3
1.432888593E0,-9.315420873E-3,7.146912813E-2,1.007897966E-2
1.435270520E0,-1.175880991E-2,7.146912813E-2,1.252236869E-2
1.437652447E0,-1.420219894E-2,7.024743408E-2,1.496575773E-2
1.440034374E0,-1.664558798E-2,6.902574003E-2,1.374406368E-2
1.442416301E0,-1.786728203E-2,7.024743408E-2,1.618745178E-2
1.444798228E0,-1.924168877E-2,7.269082218E-2,1.481304597E-2
1.447180155E0,-1.786728203E-2,7.269082218E-2,1.618745178E-2
1.449562082E0,-1.924168877E-2,7.269082218E-2,1.603474095E-2
1.451944009E0,-1.924168877E-2,7.269082218E-2,1.481304597E-2
1.454325884E0,-1.801999472E-2,7.269082218E-2,1.359135192E-2
1.456707811E0,-2.046338283E-2,7.146912813E-2,1.236965694E-2
1.459089738E0,-1.924168877E-2,7.024743408E-2,1.114796288E-2
1.461471666E0,-2.046338283E-2,7.024743408E-2,1.114796288E-2
1.463853593E0,-2.168507688E-2,6.780404598E-2,1.114796288E-2
1.466235520E0,-2.046338283E-2,6.658235192E-2,1.252236869E-2
1.468617447E0,-2.168507688E-2,6.413896382E-2,1.114796288E-2
1.470999374E0,-1.924168877E-2,6.536065787E-2,9.926267900E-3
1.473381301E0,-2.046338283E-2,6.780404598E-2,9.926267900E-3
1.475763228E0,-1.908897609E-2,6.536065787E-2,1.374406368E-2
1.478145103E0,-1.908897609E-2,6.169557199E-2,1.496575773E-2
1.480527030E0,-1.908897609E-2,6.536065787E-2,1.496575773E-2
1.482908957E0,-1.542389300E-2,6.536065787E-2,1.496575773E-2
1.485290884E0,-1.664558798E-2,6.658235192E-2,1.985253580E-2
1.487672811E0,-1.786728203E-2,6.551336497E-2,2.107422985E-2
1.490054738E0,-1.664558798E-2,6.551336497E-2,2.351761982E-2
1.492436666E0,-1.404948719E-2,6.673506647E-2,2.718270384E-2
1.494818593E0,-1.542389300E-2,6.551336497E-2,2.718270384E-2
1.497200520E0,-1.404948719E-2,6.306997687E-2,2.840439789E-2
1.499582447E0,-1.282779220E-2,6.062658876E-2,2.962609194E-2
1.501964322E0,-1.160609815E-2,6.306997687E-2,3.329117596E-2
1.504346249E0,-1.038440317E-2,6.062658876E-2,3.206948191E-2
1.506728176E0,-9.162709117E-3,5.940489471E-2,3.206948191E-2
1.509110103E0,-7.788302377E-3,5.833591148E-2,3.451287001E-2
1.511492030E0,-5.344913341E-3,5.467082933E-2,3.710897267E-2
1.513873957E0,-5.344913341E-3,5.222744122E-2,3.588727489E-2
1.516255884E0,-3.970507067E-3,4.734066129E-2,3.833066672E-2
1.518637811E0,-3.970507067E-3,4.382828996E-2,3.833066672E-2
1.521019738E0,-1.527118147E-3,4.138490185E-2,4.077405483E-2
1.523401666E0,-3.054236295E-4,3.771981969E-2,4.199574888E-2
1.525783593E0,-1.527118147E-4,3.405473381E-2,4.199574888E-2
1.528165468E0,-1.527118147E-4,3.161134571E-2,4.199574888E-2
1.530547395E0,2.290677279E-3,2.932066843E-2,4.321744293E-2
1.532929322E0,4.734066315E-3,2.443389036E-2,4.443913698E-2
1.535311249E0,6.108472589E-3,2.443389036E-2,4.688252881E-2
1.537693176E0,8.551862091E-3,2.565558441E-2,4.947862774E-2
1.540075103E0,9.773556143E-3,2.321219631E-2,4.825693369E-2
1.542457030E0,1.099525020E-2,2.321219631E-2,4.825693369E-2
1.544838957E0,1.221694518E-2,2.458660305E-2,5.192201585E-2
1.547220884E0,1.481304597E-2,2.825168520E-2,5.436540768E-2
1.549602811E0,1.603474095E-2,2.825168520E-2,5.436540768E-2
1.551984738E0,1.847812906E-2,3.069507517E-2,5.436540768E-2
1.554366666E0,1.969982497E-2,3.436015919E-2,5.803048983E-2
1.556748541E0,2.214321308E-2,3.680354729E-2,5.803048983E-2
1.559130468E0,2.596100792E-2,3.680354729E-2,5.925218388E-2
1.561512395E0,2.840439789E-2,4.046862945E-2,5.925218388E-2
1.563894322E0,2.962609194E-2,4.046862945E-2,6.169557199E-2
1.566276249E0,3.084778599E-2,4.169032723E-2,6.169557199E-2
1.568658176E0,3.206948191E-2,4.169032723E-2,6.291726977E-2
1.571040103E0,3.206948191E-2,4.169032723E-2,6.413896382E-2
1.573422030E0,3.329117596E-2,4.291202128E-2,6.536065787E-2
1.575803957E0,3.451287001E-2,4.413371533E-2,6.536065787E-2
1.578185832E0,3.329117596E-2,4.413371533E-2,6.780404598E-2
1.580567759E0,3.206948191E-2,4.535540938E-2,6.902574003E-2
1.582949686E0,3.329117596E-2,4.779879749E-2,7.024743408E-2
1.585331613E0,3.329117596E-2,4.902049154E-2,7.269082218E-2
1.587713541E0,3.206948191E-2,4.779879749E-2,7.635590434E-2
1.590095468E0,3.206948191E-2,4.779879749E-2,7.635590434E-2
1.592477395E0,3.084778599E-2,4.902049154E-2,7.513421029E-2
1.594859322E0,3.084778599E-2,4.779879749E-2,7.879929990E-2
1.597241249E0,3.084778599E-2,4.657710344E-2,7.757759839E-2
1.599623176E0,2.718270384E-2,4.657710344E-2,7.879929990E-2
1.602005103E0,2.840439789E-2,4.535540938E-2,8.002099395E-2
1.604386978E0,2.855710872E-2,4.291202128E-2,8.368607610E-2
1.606768905E0,2.718270384E-2,4.169032723E-2,8.490777016E-2
1.609150832E0,2.733541466E-2,3.924693540E-2,8.490777016E-2
1.611532759E0,2.855710872E-2,3.924693540E-2,8.368607610E-2
1.613914686E0,2.733541466E-2,3.695625812E-2,8.490777016E-2
1.616296613E0,2.855710872E-2,3.329117596E-2,8.368607610E-2
1.618678541E0,2.733541466E-2,3.329117596E-2,8.490777016E-2
1.621060468E0,2.733541466E-2,3.329117596E-2,8.246438205E-2
1.623442395E0,2.733541466E-2,2.962609194E-2,8.124268800E-2
1.625824322E0,2.855710872E-2,2.718270384E-2,8.002099395E-2
1.628206249E0,3.100049868E-2,2.840439789E-2,7.757759839E-2
1.630588176E0,3.100049868E-2,2.473931387E-2,7.650861889E-2
1.632970051E0,3.100049868E-2,2.596100792E-2,7.391251624E-2
1.635351978E0,3.222219273E-2,2.351761982E-2,7.146912813E-2
1.637733905E0,3.344388679E-2,2.229592577E-2,6.902574003E-2
1.640115832E0,3.588727489E-2,1.985253580E-2,6.795676053E-2
1.642497759E0,3.588727489E-2,2.107422985E-2,6.536065787E-2
1.644879686E0,3.710897267E-2,1.618745178E-2,6.306997687E-2
1.647261613E0,3.848337755E-2,1.374406368E-2,6.062658876E-2
1.649643541E0,3.726168349E-2,1.007897966E-2,5.818320066E-2
1.652025468E0,3.848337755E-2,5.192201585E-3,5.451811850E-2
1.654407343E0,3.588727489E-2,5.192201585E-3,5.436540768E-2
1.656789270E0,3.603998944E-2,1.527118147E-3,5.329642445E-2
1.659171197E0,3.466558084E-2,-1.985253533E-3,5.085303262E-2
1.661553124E0,3.222219273E-2,-3.359660041E-3,5.070032179E-2
1.663935051E0,3.100049868E-2,-8.093725890E-3,5.085303262E-2
1.666316978E0,2.855710872E-2,-9.315420873E-3,4.825693369E-2
1.668698905E0,2.611372061E-2,-1.175880991E-2,4.825693369E-2
1.671080832E0,2.367033064E-2,-1.542389300E-2,4.963133857E-2
1.673462759E0,2.122694254E-2,-2.031067200E-2,4.963133857E-2
1.675844686E0,1.618745178E-2,-2.031067200E-2,4.825693369E-2
1.678226613E0,1.252236869E-2,-2.764083818E-2,4.703523964E-2
1.680608488E0,1.007897966E-2,-2.886253223E-2,4.703523964E-2
1.682990416E0,6.261184346E-3,-3.008422814E-2,4.581354558E-2
1.685372343E0,5.039489828E-3,-3.374931216E-2,4.581354558E-2
1.687754270E0,1.374406274E-3,-3.619270027E-2,4.703523964E-2
1.690136197E0,-1.068982761E-3,-3.985778242E-2,4.581354558E-2
1.692518124E0,-2.290677279E-3,-4.352286831E-2,4.703523964E-2
1.694900051E0,-1.068982761E-3,-4.596625641E-2,4.703523964E-2
1.697281978E0,-2.290677279E-3,-4.596625641E-2,4.459185153E-2
1.699663905E0,-4.734066315E-3,-4.840964451E-2,4.337015375E-2
1.702045832E0,-5.955760833E-3,-4.963133857E-2,4.337015375E-2
1.704427759E0,-5.955760833E-3,-5.085303262E-2,4.214845970E-2
1.706809634E0,-5.955760833E-3,-5.085303262E-2,4.092676565E-2
1.709191561E0,-5.955760833E-3,-4.840964451E-2,3.970507160E-2
1.711573488E0,-5.955760833E-3,-4.718795046E-2,3.848337755E-2
1.713955416E0,-4.734066315E-3,-4.596625641E-2,3.603998944E-2
1.716337343E0,-7.330167107E-3,-4.596625641E-2,3.481829539E-2
1.718719270E0,-9.773556143E-3,-4.367557913E-2,3.726168349E-2
1.721101197E0,-9.773556143E-3,-4.474456236E-2,3.726168349E-2
1.723483124E0,-1.099525020E-2,-4.489727318E-2,3.603998944E-2
1.725865051E0,-1.343864016E-2,-4.611896724E-2,3.481829539E-2
1.728246978E0,-1.343864016E-2,-4.840964451E-2,3.603998944E-2
1.730628905E0,-1.466033421E-2,-5.085303262E-2,3.726168349E-2
1.733010780E0,-1.588202827E-2,-5.329642445E-2,3.726168349E-2
1.735392707E0,-1.466033421E-2,-5.818320066E-2,3.970507160E-2
1.737774634E0,-1.588202827E-2,-6.062658876E-2,3.970507160E-2
1.740156561E0,-1.466033421E-2,-6.429167092E-2,3.848337755E-2
1.742538488E0,-1.572931744E-2,-7.024743408E-2,3.970507160E-2
1.744920416E0,-1.450762246E-2,-7.269082218E-2,4.230117425E-2
1.747302343E0,-1.206423342E-2,-7.635590434E-2,4.230117425E-2
1.749684270E0,-9.468132630E-3,-8.002099395E-2,4.352286831E-2
1.752066197E0,-9.468132630E-3,-8.231166750E-2,4.230117425E-2
1.754448124E0,-8.246437646E-3,-8.597674966E-2,4.230117425E-2
1.756830051E0,-5.803049076E-3,-9.086353332E-2,4.352286831E-2
1.759211926E0,-1.985253533E-3,-9.575030953E-2,4.352286831E-2
1.761593853E0,4.581354442E-4,-9.926267713E-2,4.230117425E-2
1.763975780E0,3.054236295E-3,-1.017060652E-1,4.352286831E-2
1.766357707E0,7.941014133E-3,-1.029277667E-1,4.489727318E-2
1.768739634E0,1.038440317E-2,-1.065928489E-1,4.245388508E-2
1.771121561E0,1.664558798E-2,-1.076618284E-1,4.245388508E-2
1.773503488E0,1.786728203E-2,-1.113269106E-1,4.245388508E-2
1.775885416E0,2.290677279E-2,-1.149920002E-1,4.123219103E-2
1.778267343E0,2.901524492E-2,-1.162136942E-1,3.878879920E-2
1.780649270E0,3.405473381E-2,-1.160609797E-1,3.878879920E-2
1.783031197E0,3.649812192E-2,-1.172826737E-1,3.756710514E-2
1.785413072E0,4.016320780E-2,-1.197260618E-1,3.512371704E-2
1.787794999E0,4.398100078E-2,-1.209477559E-1,3.390202299E-2
1.790176926E0,4.520269856E-2,-1.258345395E-1,2.901524492E-2
1.792558853E0,4.886778072E-2,-1.270562261E-1,3.023693897E-2
1.794940780E0,4.886778072E-2,-1.294996142E-1,2.779355086E-2
1.797322707E0,4.886778072E-2,-1.342336833E-1,2.794626169E-2
1.799704634E0,4.902049154E-2,-1.366770715E-1,2.794626169E-2
1.802086561E0,4.902049154E-2,-1.415638477E-1,2.672456764E-2
1.804468488E0,5.024218559E-2,-1.440072358E-1,2.794626169E-2
1.806850416E0,5.024218559E-2,-1.452289373E-1,2.794626169E-2
1.809232291E0,4.902049154E-2,-1.476723254E-1,2.916795574E-2
1.811614218E0,4.779879749E-2,-1.476723254E-1,3.161134571E-2
1.813996145E0,4.902049154E-2,-1.464506239E-1,3.283303976E-2
1.816378072E0,5.146388337E-2,-1.452289373E-1,3.649812192E-2
1.818759999E0,5.024218559E-2,-1.427855492E-1,3.771981969E-2
1.821141926E0,5.146388337E-2,-1.415638477E-1,4.138490185E-2
1.823523853E0,5.161659420E-2,-1.403421611E-1,4.504998401E-2
1.825905780E0,5.283828825E-2,-1.378987730E-1,4.749337584E-2
1.828287707E0,5.528167635E-2,-1.353026628E-1,5.238015205E-2
1.830669634E0,5.772506446E-2,-1.340809762E-1,5.726693198E-2
1.833051509E0,6.154286116E-2,-1.365243644E-1,6.108472496E-2
1.835433436E0,6.398624927E-2,-1.353026628E-1,6.108472496E-2
1.837815363E0,6.780404598E-2,-1.351499557E-1,6.597150117E-2
1.840197291E0,7.024743408E-2,-1.363716573E-1,6.719319522E-2
1.842579218E0,7.650861889E-2,-1.388150454E-1,7.330167294E-2
1.844961145E0,8.154810965E-2,-1.435490996E-1,7.452336699E-2
1.847343072E0,8.399149776E-2,-1.459924877E-1,7.818844914E-2
1.849724999E0,8.780929446E-2,-1.472141892E-1,8.078455180E-2
1.852106926E0,9.147437662E-2,-1.531699449E-1,8.322793990E-2
1.854488853E0,9.269607067E-2,-1.543916464E-1,8.567132801E-2
1.856870780E0,9.529217333E-2,-1.568350345E-1,8.689302206E-2
1.859252655E0,9.651386738E-2,-1.592784226E-1,8.933641016E-2
1.861634582E0,1.015533581E-1,-1.615691036E-1,9.422318637E-2
1.864016509E0,1.027750522E-1,-1.627907902E-1,9.422318637E-2
1.866398436E0,1.015533581E-1,-1.664558798E-1,9.681928903E-2
1.868780363E0,1.041494608E-1,-1.676775664E-1,1.004843712E-1
1.871162291E0,1.065928489E-1,-1.699682474E-1,1.017060652E-1
1.873544218E0,1.078145429E-1,-1.748550236E-1,1.041494608E-1
1.875926145E0,1.090362370E-1,-1.748550236E-1,1.053711548E-1
1.878308072E0,1.116323397E-1,-1.772984117E-1,1.078145429E-1
1.880689999E0,1.140757278E-1,-1.795890927E-1,1.114796251E-1
1.883071926E0,1.191152185E-1,-1.808107942E-1,1.127013192E-1
1.885453801E0,1.215586066E-1,-1.820324808E-1,1.177408099E-1
1.887835728E0,1.265980899E-1,-1.808107942E-1,1.189625040E-1
1.890217655E0,1.328592747E-1,-1.843231618E-1,1.201841980E-1
1.892599582E0,1.415638477E-1,-1.831014603E-1,1.238492802E-1
1.894981509E0,1.488940120E-1,-1.805053651E-1,1.262926757E-1
1.897363436E0,1.539335102E-1,-1.780619770E-1,1.287360638E-1
1.899745363E0,1.612636745E-1,-1.780619770E-1,1.301104724E-1
1.902127291E0,1.687465608E-1,-1.768402755E-1,1.313321590E-1
1.904509218E0,1.762294322E-1,-1.756185889E-1,1.325538605E-1
1.906891145E0,1.824906170E-1,-1.742441803E-1,1.337755471E-1
1.909273020E0,1.873773932E-1,-1.718007922E-1,1.374406368E-1
1.911654947E0,1.922641695E-1,-1.705790907E-1,1.362189353E-1
1.914036874E0,1.973036677E-1,-1.705790907E-1,1.398840249E-1
1.916418801E0,1.960819662E-1,-1.681357026E-1,1.386623234E-1
1.918800728E0,1.985253543E-1,-1.632489264E-1,1.423274130E-1
1.921182655E0,2.009687424E-1,-1.620272398E-1,1.423274130E-1
1.923564582E0,2.009687424E-1,-1.595838517E-1,1.423274130E-1
1.925946509E0,2.021904439E-1,-1.571404636E-1,1.447708011E-1
1.928328436E0,2.021904439E-1,-1.510319859E-1,1.447708011E-1
1.930710363E0,2.021904439E-1,-1.475196183E-1,1.472141892E-1
1.933092238E0,2.009687424E-1,-1.438545287E-1,1.508792788E-1
1.935474166E0,2.009687424E-1,-1.414111406E-1,1.508792788E-1
1.937856093E0,2.009687424E-1,-1.377460510E-1,1.545443535E-1
1.940238020E0,1.985253543E-1,-1.365243644E-1,1.557660550E-1
1.942619947E0,1.973036677E-1,-1.353026628E-1,1.582094431E-1
1.945001874E0,1.934858710E-1,-1.389677525E-1,1.606528312E-1
1.947383801E0,1.910424829E-1,-1.438545287E-1,1.618745178E-1
1.949765728E0,1.885990947E-1,-1.485885978E-1,1.643179059E-1
1.952147655E0,1.873773932E-1,-1.546970755E-1,1.643179059E-1
1.954529582E0,1.850867122E-1,-1.632489264E-1,1.681357026E-1
1.956911509E0,1.838650256E-1,-1.716480851E-1,1.718007922E-1
1.959293436E0,1.838650256E-1,-1.789782494E-1,1.718007922E-1
1.961675311E0,1.826433241E-1,-1.801999360E-1,1.742441803E-1
1.964057238E0,1.852394342E-1,-1.765348613E-1,1.779092699E-1
1.966439166E0,1.850867122E-1,-1.655396074E-1,1.779092699E-1
1.968821093E0,1.899735034E-1,-1.498102844E-1,1.779092699E-1
1.971203020E0,1.948602796E-1,-1.328592747E-1,1.753131598E-1
1.973584947E0,2.021904439E-1,-1.206423342E-1,1.740914732E-1
1.975966874E0,2.058555335E-1,-1.108687744E-1,1.753131598E-1
1.978348801E0,2.119639963E-1,-1.047603041E-1,1.728697717E-1
1.980730728E0,2.170034945E-1,-9.880454093E-2,1.704263836E-1
1.983112655E0,2.206685692E-1,-9.880454093E-2,1.667613089E-1
1.985494582E0,2.231119573E-1,-9.636115283E-2,1.630962193E-1
1.987876457E0,2.267770469E-1,-9.636115283E-2,1.618745178E-1
1.990258384E0,2.292204350E-1,-9.880454093E-2,1.582094431E-1
1.992640311E0,2.304421216E-1,-1.010952219E-1,1.557660550E-1
1.995022238E0,2.318165302E-1,-1.059819981E-1,1.545443535E-1
1.997404166E0,2.318165302E-1,-1.096470803E-1,1.545443535E-1
1.999786093E0,2.318165302E-1,-1.157555580E-1,1.521009654E-1
2.002168020E0,2.318165302E-1,-1.265980899E-1,1.510319859E-1
2.004549947E0,2.318165302E-1,-1.363716573E-1,1.473668963E-1
2.006931874E0,2.295258641E-1,-1.485885978E-1,1.461452097E-1
2.009313801E0,2.295258641E-1,-1.582094431E-1,1.412584335E-1
2.011695728E0,2.283041626E-1,-1.679829955E-1,1.388150454E-1
2.014077603E0,2.246390730E-1,-1.765348613E-1,1.375933439E-1
2.016459530E0,2.221956849E-1,-1.861557066E-1,1.351499557E-1
2.018841457E0,2.197522968E-1,-1.934858710E-1,1.339282542E-1
2.021223384E0,2.160872221E-1,-1.983726472E-1,1.339282542E-1
2.023605311E0,2.122694254E-1,-2.044811249E-1,1.339282542E-1
2.025987238E0,2.098260373E-1,-2.081461996E-1,1.327065676E-1
2.028369166E0,2.061609477E-1,-2.118112892E-1,1.327065676E-1
2.030751093E0,2.049392611E-1,-2.166980654E-1,1.327065676E-1
2.033133020E0,2.012741715E-1,-2.191414535E-1,1.327065676E-1
2.035514947E0,1.988307834E-1,-2.228065431E-1,1.327065676E-1
2.037896822E0,2.000524700E-1,-2.275405973E-1,1.351499557E-1
2.040278749E0,2.000524700E-1,-2.287622988E-1,1.339282542E-1
2.042660676E0,2.000524700E-1,-2.312056869E-1,1.351499557E-1
2.045042603E0,2.024958730E-1,-2.348707765E-1,1.327065676E-1
2.047424530E0,2.026485801E-1,-2.385358512E-1,1.353026628E-1
2.049806457E0,2.050919682E-1,-2.373141646E-1,1.365243644E-1
2.052188384E0,2.099787444E-1,-2.347180545E-1,1.365243644E-1
2.054570311E0,2.150182426E-1,-2.299840003E-1,1.365243644E-1
2.056952238E0,2.211267054E-1,-2.226538211E-1,1.365243644E-1
2.059334166E0,2.260134816E-1,-2.153236568E-1,1.365243644E-1
2.061716093E0,2.321219593E-1,-2.031067163E-1,1.365243644E-1
2.064097968E0,2.357870489E-1,-1.947075576E-1,1.351499557E-1
2.066479895E0,2.394521236E-1,-1.837123185E-1,1.314848661E-1
2.068861822E0,2.431172132E-1,-1.728697717E-1,1.278197914E-1
2.071243749E0,2.431172132E-1,-1.643179059E-1,1.241547018E-1
2.073625676E0,2.429644912E-1,-1.594311297E-1,1.217113137E-1
2.076007603E0,2.454078794E-1,-1.522536725E-1,1.166718230E-1
2.078389530E0,2.429644912E-1,-1.449235082E-1,1.154501289E-1
2.080771457E0,2.379250079E-1,-1.389677525E-1,1.105633527E-1
2.083153384E0,2.316638231E-1,-1.330119967E-1,1.056765765E-1
2.085535311E0,2.266243398E-1,-1.317902952E-1,1.018587798E-1
2.087917238E0,2.203631550E-1,-1.293469071E-1,9.697200358E-2
2.090299113E0,2.154763639E-1,-1.282779276E-1,9.330692142E-2
2.092681041E0,2.041756958E-1,-1.294996142E-1,8.597674966E-2
2.095062968E0,1.979145110E-1,-1.272089481E-1,8.093725890E-2
2.097444895E0,1.905843467E-1,-1.320957243E-1,7.727217674E-2
2.099826822E0,1.818797737E-1,-1.369825006E-1,7.116370648E-2
2.102208749E0,1.731752008E-1,-1.420219839E-1,6.383354217E-2
2.104590676E0,1.620272398E-1,-1.444653720E-1,5.650337040E-2
2.106972603E0,1.545443535E-1,-1.470614821E-1,4.657710344E-2
2.109354530E0,1.446180940E-1,-1.495048702E-1,3.924693540E-2
2.111736457E0,1.320957243E-1,-1.533226669E-1,3.191677108E-2
2.114118332E0,1.172826737E-1,-1.594311297E-1,2.076880634E-2
2.116500259E0,1.035386100E-1,-1.632489264E-1,1.466033421E-2
2.118882186E0,8.872556686E-2,-1.681357026E-1,4.734066315E-3
2.121264113E0,7.375980914E-2,-1.731752008E-1,-3.817795310E-3
2.123646041E0,5.757235363E-2,-1.756185889E-1,-8.704573847E-3
2.126027968E0,4.275930673E-2,-1.806580722E-1,-1.740914769E-2
2.128409895E0,2.901524492E-2,-1.867665499E-1,-2.229592577E-2
2.130791822E0,1.420219894E-2,-1.930277348E-1,-2.473931387E-2
2.133173749E0,6.108472589E-4,-1.954711229E-1,-3.344388679E-2
2.135555676E0,-9.315420873E-3,-2.017323077E-1,-3.955236077E-2
2.137937603E0,-1.801999472E-2,-2.102841735E-1,-4.688252881E-2
2.140319530E0,-2.550287358E-2,-2.188360244E-1,-5.176930502E-2
2.142701405E0,-3.420744836E-2,-2.261662036E-1,-6.154286116E-2
2.145083332E0,-3.909422457E-2,-2.347180545E-1,-7.009471953E-2
2.147465259E0,-4.169032723E-2,-2.432699203E-1,-8.002099395E-2
2.149847186E0,-4.535540938E-2,-2.530434728E-1,-8.857285231E-2
2.152229113E0,-5.146388337E-2,-2.615953386E-1,-9.712471068E-2
2.154611041E0,-5.650337040E-2,-2.713688910E-1,-1.081199646E-1
2.156992968E0,-5.894676223E-2,-2.799207568E-1,-1.203369126E-1
2.159374895E0,-6.398624927E-2,-2.861819267E-1,-1.325538605E-1
2.161756822E0,-7.269082218E-2,-2.910687327E-1,-1.461452097E-1
2.164138749E0,-8.399149776E-2,-2.912214398E-1,-1.595838517E-1
2.166520676E0,-9.391776472E-2,-2.925958335E-1,-1.743968874E-1
2.168902551E0,-1.064401343E-1,-2.878617644E-1,-1.915006191E-1
2.171284478E0,-1.227803007E-1,-2.819060087E-1,-2.075353563E-1
2.173666405E0,-1.401894391E-1,-2.773246467E-1,-2.235700935E-1
2.176048332E0,-1.614163816E-1,-2.701472044E-1,-2.396048307E-1
2.178430259E0,-1.863084137E-1,-2.643441558E-1,-2.556395829E-1
2.180812186E0,-2.162399292E-1,-2.585411072E-1,-2.704526186E-1
2.183194113E0,-2.435753495E-1,-2.527380586E-1,-2.826695740E-1
2.185576041E0,-2.771719396E-1,-2.492256761E-1,-2.974826097E-1
2.187957968E0,-3.107685447E-1,-2.495311052E-1,-3.110739589E-1
2.190339895E0,-3.454341292E-1,-2.509055138E-1,-3.197785318E-1
2.192721770E0,-3.851391971E-1,-2.548760176E-1,-3.284831047E-1
2.195103697E0,-4.224008918E-1,-2.586938143E-1,-3.359659910E-1
2.197485624E0,-4.595098495E-1,-2.661767006E-1,-3.410054743E-1
2.199867551E0,-4.955498278E-1,-2.701472044E-1,-3.471139669E-1
2.202249478E0,-5.328115225E-1,-2.751866877E-1,-3.521534503E-1
2.204631405E0,-5.674771070E-1,-2.790044844E-1,-3.571929336E-1
2.207013332E0,-5.996993184E-1,-2.828222811E-1,-3.620797098E-1
2.209395259E0,-6.270347238E-1,-2.854183912E-1,-3.646758199E-1
2.211777186E0,-6.568135023E-1,-2.880144715E-1,-3.684936166E-1
2.214159113E0,-6.839962006E-1,-2.881672084E-1,-3.721587062E-1
2.216541041E0,-7.088882327E-1,-2.883199155E-1,-3.747547865E-1
2.218922916E0,-7.324058414E-1,-2.872509360E-1,-3.784198761E-1
2.221304843E0,-7.548545003E-1,-2.849602401E-1,-3.810159862E-1
2.223686770E0,-7.771504521E-1,-2.838912606E-1,-3.846810758E-1
2.226068697E0,-7.970029712E-1,-2.816005945E-1,-3.872771561E-1
2.228450624E0,-8.168554902E-1,-2.805316150E-1,-3.921639323E-1
2.230832551E0,-8.367080092E-1,-2.829749882E-1,-3.996468186E-1
2.233214478E0,-8.553388715E-1,-2.855710983E-1,-4.033119082E-1
2.235596405E0,-8.727480173E-1,-2.869454920E-1,-4.071297050E-1
2.237978332E0,-8.900044560E-1,-2.930539846E-1,-4.107947946E-1
2.240360259E0,-9.074136019E-1,-2.968717813E-1,-4.132381678E-1
2.242742186E0,-9.234483242E-1,-3.029802442E-1,-4.120164812E-1
2.245124061E0,-9.358180165E-1,-3.115321100E-1,-4.146125913E-1
2.247505988E0,-9.457442760E-1,-3.213056624E-1,-4.109475017E-1
2.249887916E0,-9.542961121E-1,-3.321481943E-1,-4.059080184E-1
2.252269843E0,-9.579612017E-1,-3.431434333E-1,-3.985778391E-1
2.254651770E0,-9.614735842E-1,-3.576510847E-1,-3.912476599E-1
2.257033697E0,-9.576557875E-1,-3.672719002E-1,-3.825430870E-1
2.259415624E0,-9.526162744E-1,-3.817795515E-1,-3.739912212E-1
2.261797551E0,-9.388722181E-1,-3.961344361E-1,-3.652866483E-1
2.264179478E0,-9.275715351E-1,-4.106420577E-1,-3.579564989E-1
2.266561405E0,-9.100096822E-1,-4.286620617E-1,-3.516952991E-1
2.268943280E0,-8.913788795E-1,-4.480564594E-1,-3.466558158E-1
2.271325207E0,-8.701519370E-1,-4.648547769E-1,-3.428380191E-1
2.273707134E0,-8.452599049E-1,-4.816530645E-1,-3.402419090E-1
2.276089061E0,-8.191461563E-1,-4.996730685E-1,-3.377985358E-1
2.278470988E0,-7.916580439E-1,-5.166240931E-1,-3.352024257E-1
2.280852916E0,-7.655443549E-1,-5.309789777E-1,-3.313846290E-1
2.283234843E0,-7.369872332E-1,-5.428904891E-1,-3.263451457E-1
2.285616770E0,-7.096518278E-1,-5.525113344E-1,-3.200839758E-1
2.287998697E0,-6.823163629E-1,-5.619794726E-1,-3.138227761E-1
2.290380624E0,-6.549809575E-1,-5.691569448E-1,-3.101576865E-1
2.292762551E0,-6.276455522E-1,-5.786250830E-1,-3.051182032E-1
2.295144478E0,-6.015318632E-1,-5.784723759E-1,-2.988570333E-1
2.297526353E0,-5.778614879E-1,-5.770979524E-1,-2.939702570E-1
2.299908280E0,-5.506787896E-1,-5.732801557E-1,-2.877090573E-1
2.302290207E0,-5.233433843E-1,-5.706840754E-1,-2.814478874E-1
2.304672134E0,-4.972296655E-1,-5.680879354E-1,-2.728960216E-1
2.307054061E0,-4.724903405E-1,-5.667135715E-1,-2.666348219E-1
2.309435988E0,-4.439332485E-1,-5.616740584E-1,-2.556395829E-1
2.311817916E0,-4.165978432E-1,-5.578562617E-1,-2.432699203E-1
2.314199843E0,-3.880407214E-1,-5.563291311E-1,-2.321219593E-1
2.316581770E0,-3.607053161E-1,-5.537330508E-1,-2.185306102E-1
2.318963697E0,-3.295520842E-1,-5.499152541E-1,-2.061609477E-1
2.321345572E0,-3.035911024E-1,-5.399889946E-1,-1.951656938E-1
2.323727499E0,-2.750339806E-1,-5.300627351E-1,-1.827960461E-1
2.326109426E0,-2.464768738E-1,-5.140279531E-1,-1.718007922E-1
2.328491353E0,-2.192941606E-1,-4.969242513E-1,-1.643179059E-1
2.330873280E0,-1.921114624E-1,-4.821111858E-1,-1.557660550E-1
2.333255207E0,-1.659977436E-1,-4.674508572E-1,-1.458397806E-1
2.335637186E0,-1.412584335E-1,-4.491254389E-1,-1.397313178E-1
2.338066770E0,-1.177408099E-1,-4.332434237E-1,-1.336228400E-1
2.340496353E0,-9.804098308E-2,-4.136963189E-1,-1.299577504E-1
2.342925988E0,-5.619794875E-2,-3.660502136E-1,-1.299577504E-1
2.345355468E0,-3.649812192E-2,-3.442124426E-1,-1.324011385E-1
2.347784999E0,-1.801999472E-2,-3.234436214E-1,-1.372879148E-1
2.350214530E0,-7.635590737E-4,-3.052709103E-1,-1.421747059E-1
2.352644061E0,1.404948719E-2,-2.881672084E-1,-1.446180940E-1
2.355073593E0,2.382304333E-2,-2.736595869E-1,-1.495048702E-1
2.357503124E0,3.359659761E-2,-2.541124523E-1,-1.543916464E-1
2.359932655E0,4.214845970E-2,-2.383831441E-1,-1.606528312E-1
2.362362186E0,5.192201585E-2,-2.238755226E-1,-1.692046970E-1
2.364791718E0,5.803048983E-2,-2.153236568E-1,-1.777565479E-1
2.367221249E0,6.169557199E-2,-2.118112892E-1,-1.838650256E-1
2.369650780E0,6.673506647E-2,-2.093679011E-1,-1.875301152E-1
2.372080259E0,7.040014863E-2,-2.104368806E-1,-1.887518018E-1
2.374509791E0,7.284353673E-2,-2.116585821E-1,-1.899735034E-1
2.376939322E0,7.162184268E-2,-2.128802687E-1,-1.899735034E-1
2.379368853E0,7.284353673E-2,-2.177670449E-1,-1.911951900E-1
2.381798384E0,7.284353673E-2,-2.238755226E-1,-1.948602796E-1
2.384227916E0,7.299624383E-2,-2.334963679E-1,-1.948602796E-1
2.386657447E0,6.933116168E-2,-2.432699203E-1,-1.960819662E-1
2.389086978E0,6.688777357E-2,-2.481566966E-1,-1.985253543E-1
2.391516509E0,6.933116168E-2,-2.579302490E-1,-2.034121305E-1
2.393946041E0,6.688777357E-2,-2.663294077E-1,-2.021904439E-1
2.396375572E0,6.444438547E-2,-2.724378705E-1,-2.058555335E-1
2.398805051E0,6.444438547E-2,-2.822114229E-1,-2.093679011E-1
2.401234582E0,6.322269142E-2,-2.932066917E-1,-2.118112892E-1
2.403664113E0,6.337540597E-2,-3.077143133E-1,-2.130329758E-1
2.406093645E0,6.093201414E-2,-3.199312389E-1,-2.166980654E-1
2.408523176E0,6.215370819E-2,-3.319954872E-1,-2.203631550E-1
2.410952707E0,6.352811307E-2,-3.452814221E-1,-2.215848416E-1
2.413382238E0,6.352811307E-2,-3.574983478E-1,-2.264716178E-1
2.415811770E0,6.352811307E-2,-3.720059693E-1,-2.275405973E-1
2.418241301E0,6.245913357E-2,-3.854446113E-1,-2.287622988E-1
2.420670832E0,6.123743951E-2,-3.975088596E-1,-2.324273884E-1
2.423100311E0,6.245913357E-2,-4.072824121E-1,-2.312056869E-1
2.425529895E0,6.123743951E-2,-4.158342779E-1,-2.348707765E-1
2.427959374E0,5.757235363E-2,-4.254551232E-1,-2.336490750E-1
2.430388905E0,5.772506446E-2,-4.388937652E-1,-2.347180545E-1
2.432818436E0,5.650337040E-2,-4.485146105E-1,-2.359397560E-1
2.435247968E0,5.405998230E-2,-4.582881629E-1,-2.334963679E-1
2.437677499E0,5.421269313E-2,-4.679090083E-1,-2.298312783E-1
2.440107030E0,5.299099907E-2,-4.764608741E-1,-2.310529798E-1
2.442536561E0,5.054761097E-2,-4.837910235E-1,-2.273878902E-1
2.444966093E0,5.054761097E-2,-4.885250926E-1,-2.237228155E-1
2.447395624E0,5.192201585E-2,-4.934118688E-1,-2.223484069E-1
2.449825155E0,5.070032179E-2,-5.005893111E-1,-2.174616307E-1
2.452254634E0,4.825693369E-2,-5.030327439E-1,-2.125748396E-1
2.454684166E0,4.581354558E-2,-5.005893111E-1,-2.076880634E-1
2.457113697E0,4.581354558E-2,-5.030327439E-1,-2.040229887E-1
2.459497082E0,4.337015375E-2,-4.993676245E-1,-1.979145110E-1
2.461879009E0,4.214845970E-2,-4.957025647E-1,-1.918060333E-1
2.464260936E0,3.970507160E-2,-4.895940721E-1,-1.881409585E-1
2.466642863E0,3.848337755E-2,-4.859289825E-1,-1.832541823E-1
2.469024791E0,3.710897267E-2,-4.799732268E-1,-1.795890927E-1
2.471406718E0,3.710897267E-2,-4.738647640E-1,-1.759240031E-1
2.473788645E0,3.588727489E-2,-4.616478086E-1,-1.722589284E-1
2.476170572E0,3.466558084E-2,-4.579827189E-1,-1.685938388E-1
2.478552447E0,3.466558084E-2,-4.495835900E-1,-1.637070626E-1
2.480934374E0,3.466558084E-2,-4.434750974E-1,-1.600419879E-1
2.483316301E0,3.206948191E-2,-4.349232614E-1,-1.563768983E-1
2.485698228E0,3.451287001E-2,-4.214846194E-1,-1.490467340E-1
2.488080155E0,3.451287001E-2,-4.130854607E-1,-1.441599578E-1
2.490462082E0,3.451287001E-2,-3.996468186E-1,-1.406475753E-1
2.492844009E0,3.817795217E-2,-3.875826001E-1,-1.394258887E-1
2.495225936E0,3.924693540E-2,-3.741439581E-1,-1.382041872E-1
2.497607863E0,3.924693540E-2,-3.655920923E-1,-1.320957243E-1
2.499989791E0,3.802524135E-2,-3.498627543E-1,-1.259872466E-1
2.502371666E0,3.802524135E-2,-3.352024257E-1,-1.211004704E-1
2.504753593E0,3.787253052E-2,-3.219164908E-1,-1.162136942E-1
2.507135520E0,3.665083647E-2,-3.121429384E-1,-1.113269106E-1
2.509517447E0,3.787253052E-2,-3.035911024E-1,-1.090362370E-1
2.511899374E0,3.665083647E-2,-2.939702570E-1,-1.053711548E-1
2.514281301E0,3.787253052E-2,-2.878617644E-1,-1.029277667E-1
2.516663228E0,3.665083647E-2,-2.805316150E-1,-9.804098308E-2
2.519045155E0,3.405473381E-2,-2.733541429E-1,-9.681928903E-2
2.521427082E0,3.283303976E-2,-2.684673667E-1,-9.559759498E-2
2.523809009E0,2.779355086E-2,-2.611372173E-1,-9.315420687E-2
2.526190936E0,2.290677279E-2,-2.576248348E-1,-9.193251282E-2
2.528572863E0,1.542389300E-2,-2.539597452E-1,-8.948912472E-2
2.530954738E0,6.719320081E-3,-2.515163720E-1,-8.842013776E-2
2.533336666E0,-4.428642802E-3,-2.504473627E-1,-9.086353332E-2
2.535718593E0,-1.435491070E-2,-2.492256761E-1,-9.330692142E-2
2.538100520E0,-2.550287358E-2,-2.506000996E-1,-9.575030953E-2
2.540482447E0,-3.542914242E-2,-2.506000996E-1,-9.834641218E-2
2.542864374E0,-4.795150831E-2,-2.519744933E-1,-1.020114943E-1
2.545246301E0,-6.154286116E-2,-2.507528067E-1,-1.044548824E-1
2.547628228E0,-7.406523079E-2,-2.472404242E-1,-1.070509851E-1
2.550010155E0,-8.521319181E-2,-2.449497581E-1,-1.119377613E-1
2.552392082E0,-9.758284688E-2,-2.388412803E-1,-1.143811494E-1
2.554774009E0,-1.137702987E-1,-2.377723008E-1,-1.194206402E-1
2.557155884E0,-1.275143623E-1,-2.342599183E-1,-1.267508119E-1
2.559537811E0,-1.398840249E-1,-2.295258641E-1,-1.305686086E-1
2.561919738E0,-1.511846930E-1,-2.260134816E-1,-1.354553849E-1
2.564301666E0,-1.659977436E-1,-2.200577259E-1,-1.392731816E-1
2.566683593E0,-1.809635013E-1,-2.151709497E-1,-1.453816444E-1
2.569065520E0,-1.934858710E-1,-2.104368806E-1,-1.478250325E-1
2.571447447E0,-2.046338320E-1,-2.057028115E-1,-1.516428292E-1
2.573829374E0,-2.170034945E-1,-2.020377368E-1,-1.504211426E-1
2.576211301E0,-2.258607745E-1,-1.960819662E-1,-1.540862173E-1
2.578593228E0,-2.357870489E-1,-1.937913001E-1,-1.542389393E-1
2.580975103E0,-2.418955117E-1,-1.913478971E-1,-1.566823274E-1
2.583357030E0,-2.506000996E-1,-1.878355294E-1,-1.579040140E-1
2.585738957E0,-2.531961799E-1,-1.866138428E-1,-1.591257155E-1
2.588120884E0,-2.580829561E-1,-1.878355294E-1,-1.591257155E-1
2.590502811E0,-2.605263591E-1,-1.866138428E-1,-1.603474021E-1
2.592884738E0,-2.606790662E-1,-1.817270666E-1,-1.603474021E-1
2.595266666E0,-2.580829561E-1,-1.792836636E-1,-1.603474021E-1
2.597648593E0,-2.594573796E-1,-1.794363856E-1,-1.641651988E-1
2.600030520E0,-2.544178963E-1,-1.805053651E-1,-1.666085869E-1
2.602412447E0,-2.483094037E-1,-1.768402755E-1,-1.702736765E-1
2.604794374E0,-2.422009408E-1,-1.745496094E-1,-1.751604527E-1
2.607176249E0,-2.359397560E-1,-1.768402755E-1,-1.798945218E-1
2.609558176E0,-2.310529798E-1,-1.805053651E-1,-1.823379099E-1
2.611940103E0,-2.247917950E-1,-1.866138428E-1,-1.872246861E-1
2.614322030E0,-2.185306102E-1,-1.901262105E-1,-1.872246861E-1
2.616703957E0,-2.124221325E-1,-1.950129867E-1,-1.896680743E-1
2.619085884E0,-2.037175596E-1,-1.986780763E-1,-1.896680743E-1
2.621467811E0,-1.911951900E-1,-2.009687424E-1,-1.858502775E-1
2.623849738E0,-1.824906170E-1,-2.057028115E-1,-1.809635013E-1
2.626231666E0,-1.737860441E-1,-2.057028115E-1,-1.785201132E-1
2.628613593E0,-1.687465608E-1,-2.043284029E-1,-1.724116355E-1
2.630995520E0,-1.626380831E-1,-2.018850148E-1,-1.673721522E-1
2.633377447E0,-1.551551968E-1,-1.969982386E-1,-1.600419879E-1
2.635759374E0,-1.527118087E-1,-1.921114624E-1,-1.514901221E-1
2.638141249E0,-1.488940120E-1,-1.884463727E-1,-1.466033459E-1
2.640523176E0,-1.488940120E-1,-1.835595965E-1,-1.392731816E-1
2.642905103E0,-1.488940120E-1,-1.786728203E-1,-1.356080920E-1
2.645287030E0,-1.488940120E-1,-1.737860441E-1,-1.307213157E-1
2.647668957E0,-1.513374150E-1,-1.701209545E-1,-1.294996142E-1
2.650050884E0,-1.551551968E-1,-1.688992679E-1,-1.270562261E-1
2.652432811E0,-1.575985998E-1,-1.664558798E-1,-1.270562261E-1
2.654814738E0,-1.650814712E-1,-1.666085869E-1,-1.258345395E-1
2.657196666E0,-1.699682474E-1,-1.653869003E-1,-1.258345395E-1
2.659578593E0,-1.724116355E-1,-1.653869003E-1,-1.258345395E-1
2.661960468E0,-1.737860441E-1,-1.653869003E-1,-1.270562261E-1
2.664342395E0,-1.762294322E-1,-1.666085869E-1,-1.258345395E-1
2.666724322E0,-1.798945218E-1,-1.727170646E-1,-1.246128380E-1
2.669106249E0,-1.811162084E-1,-1.786728203E-1,-1.221694499E-1
2.671488176E0,-1.785201132E-1,-1.811162084E-1,-1.185043678E-1
2.673870103E0,-1.797417998E-1,-1.860029846E-1,-1.123958975E-1
2.676252030E0,-1.809635013E-1,-1.895153672E-1,-1.111742035E-1
2.678633957E0,-1.797417998E-1,-1.919587553E-1,-1.099525094E-1
2.681015884E0,-1.797417998E-1,-1.919587553E-1,-1.075091213E-1
2.683397811E0,-1.797417998E-1,-1.895153672E-1,-1.062874198E-1
2.685779686E0,-1.771457046E-1,-1.882936656E-1,-1.050657257E-1
2.688161613E0,-1.759240031E-1,-1.870719790E-1,-1.026223376E-1
2.690543541E0,-1.722589284E-1,-1.858502775E-1,-9.880454093E-2
2.692925468E0,-1.708845198E-1,-1.870719790E-1,-9.758284688E-2
2.695307395E0,-1.672194302E-1,-1.858502775E-1,-9.636115283E-2
2.697689322E0,-1.635543555E-1,-1.856975704E-1,-9.025268257E-2
2.700071249E0,-1.609582454E-1,-1.869192570E-1,-8.536590636E-2
2.702453176E0,-1.572931707E-1,-1.881409585E-1,-8.170082420E-2
2.704835103E0,-1.546970755E-1,-1.795890927E-1,-7.803573459E-2
2.707217030E0,-1.522536725E-1,-1.685938388E-1,-7.070557028E-2
2.709598905E0,-1.473668963E-1,-1.516428292E-1,-6.337540597E-2
2.711980884E0,-1.437018216E-1,-1.320957243E-1,-5.604523420E-2
2.714362759E0,-1.400367320E-1,-1.149920002E-1,-4.627167806E-2
2.716744686E0,-1.363716573E-1,-1.041494608E-1,-3.771981969E-2
2.719126613E0,-1.351499557E-1,-9.681928903E-2,-3.038965166E-2
2.721508541E0,-1.363716573E-1,-8.948912472E-2,-2.550287358E-2
2.723890468E0,-1.388150454E-1,-8.948912472E-2,-2.061609551E-2
2.726272395E0,-1.400367320E-1,-8.948912472E-2,-1.695101149E-2
2.728654322E0,-1.473668963E-1,-9.544488788E-2,-1.084253844E-2
2.731036249E0,-1.534753740E-1,-1.015533581E-1,-5.955760833E-3
2.733418176E0,-1.609582454E-1,-1.088835225E-1,-2.290677279E-3
2.735800103E0,-1.695101112E-1,-1.186570823E-1,-1.068982761E-3
2.738181978E0,-1.780619770E-1,-1.294996142E-1,6.413896102E-3
2.740563905E0,-1.879882365E-1,-1.441599578E-1,1.130067464E-2
2.742945832E0,-1.977618039E-1,-1.586675793E-1,1.618745178E-2
2.745327759E0,-2.050919682E-1,-1.768402755E-1,2.229592577E-2
2.747696405E0,-2.160872221E-1,-1.927223057E-1,2.596100792E-2
2.750077759E0,-2.185306102E-1,-2.108950168E-1,2.855710872E-2
2.752506718E0,-2.220429778E-1,-2.229592502E-1,3.100049868E-2
2.754935676E0,-2.232646793E-1,-2.339545041E-1,2.977880463E-2
2.757365311E0,-2.082989216E-1,-2.484621257E-1,2.367033064E-2
2.759781301E0,-1.947075576E-1,-2.447970361E-1,1.893626526E-2
2.762224322E0,-1.812689304E-1,-2.374668717E-1,1.038440317E-2
2.764653853E0,-1.591257155E-1,-2.215848416E-1,-7.635590737E-4
2.767069843E0,-1.356080920E-1,-2.021904439E-1,-1.053711493E-2
2.769512916E0,-1.085781008E-1,-1.801999360E-1,-2.397575416E-2
2.771942447E0,-7.788302749E-2,-1.522536725E-1,-3.741439432E-2
2.774358436E0,-4.703523964E-2,-1.230857223E-1,-5.085303262E-2
2.776801509E0,-1.511846948E-2,-9.513945878E-2,-6.551336497E-2
2.779231041E0,1.939439960E-2,-6.215370819E-2,-7.650861889E-2
2.781647030E0,5.268557742E-2,-3.054236248E-2,-8.628217876E-2
2.784090103E0,8.475505561E-2,1.068982761E-3,-8.872556686E-2
2.786519634E0,1.156028435E-1,3.405473381E-2,-8.872556686E-2
2.788949166E0,1.414111406E-1,6.933116168E-2,-8.750387281E-2
2.791378645E0,1.623326540E-1,1.046075895E-1,-8.154810965E-2
2.793808176E0,1.795890927E-1,1.424801201E-1,-7.055285573E-2
2.796237707E0,1.905843467E-1,1.777565479E-1,-5.711421743E-2
2.798667238E0,1.991362125E-1,2.154763639E-1,-4.001049697E-2
2.801096770E0,2.015796006E-1,2.544178963E-1,-1.924168877E-2
2.803526301E0,2.040229887E-1,2.823641598E-1,2.748812549E-3
2.805955832E0,2.040229887E-1,3.055763543E-1,2.962609194E-2
2.808385363E0,2.028012872E-1,3.300102353E-1,5.650337040E-2
2.810801353E0,2.017323077E-1,3.471139669E-1,8.597674966E-2
2.813244426E0,1.992889196E-1,3.691044450E-1,1.201841980E-1
2.815673905E0,1.992889196E-1,3.910949528E-1,1.482831687E-1
2.818089947E0,1.994416267E-1,4.118637741E-1,1.763821393E-1
2.820532968E0,2.006633282E-1,4.301891923E-1,2.034121305E-1
2.822962499E0,2.020377368E-1,4.436278343E-1,2.254026383E-1
2.825378488E0,2.044811249E-1,4.558447599E-1,2.461714447E-1
2.827821561E0,2.070772201E-1,4.645493329E-1,2.644968629E-1
2.830251093E0,2.096733153E-1,4.669927359E-1,2.756448388E-1
2.832667082E0,2.133384049E-1,4.645493329E-1,2.854183912E-1
2.835110155E0,2.159345001E-1,4.549284875E-1,2.927485406E-1
2.837539686E0,2.160872221E-1,4.391991794E-1,2.941229641E-1
2.839955676E0,2.162399292E-1,4.161396921E-1,2.965663373E-1
2.842398697E0,2.139492482E-1,3.834593594E-1,2.965663373E-1
2.844828228E0,2.090624720E-1,3.457395434E-1,2.942756712E-1
2.847244218E0,2.031067163E-1,3.045073450E-1,2.919849753E-1
2.849687291E0,1.995943487E-1,2.596100867E-1,2.907632887E-1
2.852116822E0,1.924168915E-1,2.086043358E-1,2.860292196E-1
2.854532811E0,1.852394342E-1,1.612636745E-1,2.823641598E-1
2.856975884E0,1.780619770E-1,1.151447073E-1,2.825168669E-1
2.859405416E0,1.708845198E-1,6.780404598E-2,2.838912606E-1
2.861821405E0,1.649287641E-1,2.046338283E-2,2.889307439E-1
2.864264478E0,1.589729935E-1,-2.321219631E-2,2.962609231E-1
2.866694009E0,1.542389393E-1,-6.200099736E-2,3.013004065E-1
2.869123488E0,1.519482583E-1,-9.590301663E-2,3.002314270E-1
2.871553020E0,1.546970755E-1,-1.287360638E-1,3.038965166E-1
2.873951561E0,1.597365588E-1,-1.528645307E-1,3.064926267E-1
2.876333488E0,1.710372269E-1,-1.685938388E-1,3.077143133E-1
2.878715416E0,1.860029846E-1,-1.831014603E-1,3.090887070E-1
2.881097343E0,2.034121305E-1,-1.951656938E-1,3.103103936E-1
2.883479270E0,2.232646793E-1,-2.023431510E-1,3.116848171E-1
2.885861197E0,2.493783981E-1,-2.093679011E-1,3.106158376E-1
2.888243124E0,2.765611112E-1,-2.165453583E-1,3.057290614E-1
2.890625051E0,3.051182032E-1,-2.249445021E-1,2.997733057E-1
2.893006978E0,3.300102353E-1,-2.321219593E-1,2.948864996E-1
2.895388853E0,3.584146202E-1,-2.368560284E-1,2.864873707E-1
2.897770780E0,3.831539452E-1,-2.440334857E-1,2.767138183E-1
2.900152707E0,4.017847776E-1,-2.525853515E-1,2.681619525E-1
2.902534634E0,4.141544402E-1,-2.597627938E-1,2.559449971E-1
2.904916561E0,4.228590131E-1,-2.695363462E-1,2.426590770E-1
2.907298488E0,4.240806997E-1,-2.817533016E-1,2.304421216E-1
2.909680416E0,4.214846194E-1,-2.866400778E-1,2.131856978E-1
2.912062343E0,4.089622498E-1,-2.855710983E-1,1.973036677E-1
2.914444270E0,3.939964771E-1,-2.748812735E-1,1.812689304E-1
2.916826197E0,3.776563108E-1,-2.556395829E-1,1.627907902E-1
2.919208124E0,3.600944579E-1,-2.327328026E-1,1.467560530E-1
2.921590051E0,3.413109183E-1,-2.050919682E-1,1.307213157E-1
2.923971926E0,3.248180151E-1,-1.724116355E-1,1.157555580E-1
2.926340624E0,3.096995652E-1,-1.374406368E-1,9.972081333E-2
2.928735780E0,2.958027720E-1,-9.987352788E-2,8.979454637E-2
2.931117707E0,2.857238054E-1,-6.123743951E-2,8.231166750E-2
2.933499634E0,2.767138183E-1,-2.611372061E-2,7.971556485E-2
2.935881561E0,2.680092454E-1,6.566607859E-3,8.093725890E-2
2.938263488E0,2.603736520E-1,4.291202128E-2,8.689302206E-2
2.940645416E0,2.565558553E-1,7.207997888E-2,9.407047927E-2
2.943027343E0,2.501419485E-1,1.049130186E-1,1.050657257E-1
2.945409270E0,2.438807636E-1,1.316375881E-1,1.172826737E-1
2.947791197E0,2.376195788E-1,1.522536725E-1,1.269035190E-1
2.950173072E0,2.276933193E-1,1.692046970E-1,1.366770715E-1
2.952554999E0,2.165453583E-1,1.837123185E-1,1.464506239E-1
2.954936926E0,2.029540092E-1,1.910424829E-1,1.501157135E-1
2.957318853E0,1.904316396E-1,2.006633282E-1,1.548497826E-1
2.959700780E0,1.780619770E-1,2.066190839E-1,1.572931707E-1
2.962082707E0,1.630962193E-1,2.113531530E-1,1.560714692E-1
2.964464634E0,1.470614821E-1,2.186833173E-1,1.583621502E-1
2.966846561E0,1.320957243E-1,2.185306102E-1,1.595838517E-1
2.969228488E0,1.172826737E-1,2.160872221E-1,1.620272398E-1
2.971610416E0,1.049130186E-1,2.099787444E-1,1.669140160E-1
2.973992343E0,8.887827396E-2,1.989834905E-1,1.730224788E-1
2.976374218E0,7.421794534E-2,1.867665499E-1,1.815743446E-1
2.978756145E0,6.184828654E-2,1.747023165E-1,1.876828223E-1
2.981138072E0,5.085303262E-2,1.624853760E-1,1.937913001E-1
2.983519999E0,4.092676565E-2,1.527118087E-1,2.011214644E-1
2.985901926E0,3.115320951E-2,1.418692768E-1,2.072299272E-1
2.988283853E0,2.504473738E-2,1.273616552E-1,2.121167034E-1
2.990665780E0,2.275406010E-2,1.151447073E-1,2.208212912E-1
2.993047707E0,1.786728203E-2,1.018587798E-1,2.305948436E-1
2.995429634E0,1.420219894E-2,8.857285231E-2,2.354816198E-1
2.997811561E0,1.313321572E-2,7.406523079E-2,2.417428046E-1
3.000193488E0,1.572931744E-2,6.077930331E-2,2.490729690E-1
3.002575363E0,1.710372418E-2,4.627167806E-2,2.553341687E-1
3.004957291E0,2.092151903E-2,3.527642787E-2,2.589992285E-1
3.007339218E0,2.840439789E-2,2.443389036E-2,2.626643181E-1
3.009721145E0,3.588727489E-2,1.236965694E-2,2.640387416E-1
3.012103072E0,4.337015375E-2,2.748812549E-3,2.628170252E-1
3.014484999E0,5.207473040E-2,-5.650337320E-3,2.640387416E-1
3.016866926E0,6.077930331E-2,-1.298050396E-2,2.629697323E-1
3.019248853E0,7.085828483E-2,-2.137965336E-2,2.654131353E-1
3.021630780E0,8.444963396E-2,-2.977880463E-2,2.629697323E-1
3.024012707E0,9.437590092E-2,-3.344388679E-2,2.593046725E-1
3.026394634E0,1.105633527E-1,-3.695625812E-2,2.631224692E-1
3.028776509E0,1.241547018E-1,-4.046862945E-2,2.606790662E-1
3.031158436E0,1.378987730E-1,-4.291202128E-2,2.657185495E-1
3.033540363E0,1.490467340E-1,-4.642439261E-2,2.644968629E-1
3.035922291E0,1.626380831E-1,-4.886778072E-2,2.644968629E-1
3.038304218E0,1.713426560E-1,-4.871506989E-2,2.681619525E-1
3.040686145E0,1.800472289E-1,-5.360184610E-2,2.707580328E-1
3.043068072E0,1.838650256E-1,-5.833591148E-2,2.732014358E-1
3.045449999E0,1.913478971E-1,-6.184828654E-2,2.793098986E-1
3.047831926E0,1.963873953E-1,-6.917845458E-2,2.831276953E-1
3.050213853E0,1.963873953E-1,-7.879929990E-2,2.880144715E-1
3.052595780E0,1.928750277E-1,-8.979454637E-2,2.941229641E-1
3.054977707E0,1.892099380E-1,-1.006370857E-1,3.014531136E-1
3.057359634E0,1.818797737E-1,-1.116323397E-1,3.051182032E-1
3.059741509E0,1.731752008E-1,-1.188097894E-1,3.101576865E-1
3.062123436E0,1.634016484E-1,-1.261399537E-1,3.126010895E-1
3.064505363E0,1.498102844E-1,-1.310267299E-1,3.148917556E-1
3.066887291E0,1.362189353E-1,-1.372879148E-1,3.161134422E-1
3.069269218E0,1.238492802E-1,-1.481304616E-1,3.210002482E-1
3.071651145E0,1.090362370E-1,-1.566823274E-1,3.234436214E-1
3.074033072E0,9.666658193E-2,-1.664558798E-1,3.258870244E-1
3.076414999E0,8.567132801E-2,-1.750077456E-1,3.295520842E-1
3.078796926E0,7.574506104E-2,-1.847812980E-1,3.332171738E-1
3.081178853E0,6.841489673E-2,-1.931804419E-1,3.368822634E-1
3.083560728E0,6.230641901E-2,-2.017323077E-1,3.405473530E-1
3.085942655E0,5.864133686E-2,-2.102841735E-1,3.455868363E-1
3.088324582E0,5.619794875E-2,-2.137965411E-1,3.516952991E-1
3.090706509E0,5.741964281E-2,-2.174616307E-1,3.541387022E-1
3.093088436E0,5.879404768E-2,-2.199050188E-1,3.602471650E-1
3.095470363E0,6.123743951E-2,-2.221956849E-1,3.651339412E-1
3.097852291E0,6.505523622E-2,-2.246390730E-1,3.687990308E-1
3.100234218E0,7.253811508E-2,-2.258607745E-1,3.726168275E-1
3.102616145E0,7.864658535E-2,-2.293731421E-1,3.738385141E-1
3.104998072E0,8.612946421E-2,-2.342599183E-1,3.750602305E-1
3.107379999E0,9.361234307E-2,-2.402156889E-1,3.762819171E-1
3.109761926E0,9.987352788E-2,-2.473931462E-1,3.764346242E-1
3.112143801E0,1.073564067E-1,-2.547233105E-1,3.752129376E-1
3.114525728E0,1.160609797E-1,-2.619007528E-1,3.752129376E-1
3.116907655E0,1.247655526E-1,-2.680092454E-1,3.778090179E-1
3.119289582E0,1.334701329E-1,-2.739650011E-1,3.778090179E-1
3.121671509E0,1.421747059E-1,-2.799207568E-1,3.778090179E-1
3.124053436E0,1.496575773E-1,-2.872509360E-1,3.778090179E-1
3.126435363E0,1.534753740E-1,-2.919849753E-1,3.778090179E-1
3.128817291E0,1.597365588E-1,-2.993151546E-1,3.755183518E-1
3.131199218E0,1.597365588E-1,-3.042019308E-1,3.730749488E-1
3.133581145E0,1.571404636E-1,-3.078670204E-1,3.706315756E-1
3.135963020E0,1.559187621E-1,-3.103103936E-1,3.706315756E-1
3.138344947E0,1.559187621E-1,-3.090887070E-1,3.694098890E-1
3.140726874E0,1.510319859E-1,-3.090887070E-1,3.668137789E-1
3.143108801E0,1.472141892E-1,-3.090887070E-1,3.619270027E-1
3.145490728E0,1.411057115E-1,-3.104631305E-1,3.594835997E-1
3.147872655E0,1.360662282E-1,-3.116848171E-1,3.558185399E-1
3.150254582E0,1.310267299E-1,-3.092414141E-1,3.521534503E-1
3.152636509E0,1.247655526E-1,-2.996205688E-1,3.458922505E-1
3.155018436E0,1.197260618E-1,-2.948864996E-1,3.385621011E-1
3.157400363E0,1.122431830E-1,-2.852656841E-1,3.324536085E-1
3.159782291E0,1.059819981E-1,-2.732014358E-1,3.261924386E-1
3.162164166E0,9.956810623E-2,-2.623589039E-1,3.176405728E-1
3.164546093E0,8.964183182E-2,-2.551814318E-1,3.089359999E-1
3.166928020E0,8.078455180E-2,-2.431172132E-1,3.016058207E-1
3.169309947E0,7.085828483E-2,-2.359397560E-1,2.941229641E-1
3.171691874E0,5.971032009E-2,-2.348707765E-1,2.867927849E-1
3.174073801E0,4.963133857E-2,-2.312056869E-1,2.817533016E-1
3.176455728E0,3.970507160E-2,-2.313583940E-1,2.732014358E-1
3.178837655E0,2.473931387E-2,-2.325800955E-1,2.670929730E-1
3.181219582E0,1.114796288E-2,-2.327328026E-1,2.596100867E-1
3.183601509E0,-3.817795310E-3,-2.328855246E-1,2.522799075E-1
3.185983436E0,-2.000524849E-2,-2.318165302E-1,2.423536479E-1
3.188365363E0,-3.497100621E-2,-2.307475507E-1,2.325800955E-1
3.190747238E0,-4.611896724E-2,-2.319692522E-1,2.238755226E-1
3.193129166E0,-5.986303091E-2,-2.357870489E-1,2.153236568E-1
3.195511093E0,-6.978929788E-2,-2.371614426E-1,2.031067163E-1
3.197893020E0,-7.727217674E-2,-2.383831441E-1,1.931804419E-1
3.200274947E0,-8.597674966E-2,-2.373141646E-1,1.809635013E-1
3.202656874E0,-8.979454637E-2,-2.362451702E-1,1.649287641E-1
3.205038801E0,-9.116895497E-2,-2.325800955E-1,1.490467340E-1
3.207420728E0,-9.009996802E-2,-2.290677279E-1,1.319430023E-1
3.209802655E0,-8.765657991E-2,-2.218902707E-1,1.159082651E-1
3.212184582E0,-8.536590636E-2,-2.159345001E-1,1.000262350E-1
3.214566509E0,-8.047912270E-2,-2.063136548E-1,8.521319181E-2
3.216948384E0,-7.574506104E-2,-1.977618039E-1,7.421794534E-2
3.219330311E0,-7.085828483E-2,-1.918060333E-1,6.200099736E-2
3.221712238E0,-6.597150117E-2,-1.808107942E-1,5.222744122E-2
3.224094166E0,-5.986303091E-2,-1.675248593E-1,4.474456236E-2
3.226476093E0,-5.497625470E-2,-1.554606259E-1,3.985778242E-2
3.228858020E0,-5.131116882E-2,-1.469087601E-1,3.863608837E-2
3.231239947E0,-4.764608666E-2,-1.346918195E-1,4.352286831E-2
3.233621874E0,-4.520269856E-2,-1.273616552E-1,4.963133857E-2
3.236003801E0,-4.642439261E-2,-1.189625040E-1,5.329642445E-2
3.238385728E0,-4.520269856E-2,-1.140757278E-1,6.062658876E-2
3.240767655E0,-4.642439261E-2,-1.067455560E-1,6.551336497E-2
3.243149530E0,-4.764608666E-2,-1.043021679E-1,7.040014863E-2
3.245531457E0,-5.146388337E-2,-1.018587798E-1,7.406523079E-2
3.247913384E0,-5.390727147E-2,-1.043021679E-1,7.773031294E-2
3.250295311E0,-5.253286287E-2,-1.078145429E-1,8.383878320E-2
3.252677238E0,-5.253286287E-2,-1.114796251E-1,9.254335612E-2
3.255059166E0,-5.360184610E-2,-1.151447073E-1,9.743013978E-2
3.257441093E0,-5.238015205E-2,-1.198787764E-1,1.035386100E-1
3.259823020E0,-4.856235534E-2,-1.235438585E-1,1.120904684E-1
3.262204947E0,-4.352286831E-2,-1.233911440E-1,1.194206402E-1
3.264586874E0,-3.741439432E-2,-1.209477559E-1,1.281252056E-1
3.266968801E0,-2.611372061E-2,-1.146865711E-1,1.391204596E-1
3.269350728E0,-1.740914769E-2,-1.049130186E-1,1.464506239E-1
3.271732603E0,-8.857285604E-3,-8.903098851E-2,1.537808031E-1
3.274114530E0,7.177455351E-3,-6.597150117E-2,1.635543555E-1
3.276496457E0,2.321219631E-2,-4.275930673E-2,1.721062213E-1
3.278878384E0,3.680354729E-2,-2.321219631E-2,1.783674061E-1
3.281260311E0,5.283828825E-2,-1.221694518E-3,1.820324808E-1
3.283642238E0,7.131642103E-2,2.183778957E-2,1.869192570E-1
3.286024166E0,8.979454637E-2,4.260659590E-2,1.893626451E-1
3.288406093E0,1.096470803E-1,6.337540597E-2,1.942494214E-1
3.290788020E0,1.305686086E-1,8.658760041E-2,1.991362125E-1
3.293169947E0,1.527118087E-1,1.145338640E-1,2.028012872E-1
3.295551822E0,1.737860441E-1,1.414111406E-1,2.064663768E-1
3.297920520E0,1.934858710E-1,1.705790907E-1,2.101314515E-1
3.300315676E0,2.144073844E-1,2.011214644E-1,2.162399292E-1
3.302697603E0,2.290677279E-1,2.351761907E-1,2.186833173E-1
3.305066249E0,2.438807636E-1,2.655658424E-1,2.211267054E-1
3.307461457E0,2.597627938E-1,2.935121059E-1,2.270824611E-1
3.309843384E0,2.721324563E-1,3.203893900E-1,2.344126403E-1
3.312212030E0,2.819060087E-1,3.446705639E-1,2.429644912E-1
3.314607238E0,2.893888950E-1,3.666610718E-1,2.527380586E-1
3.316989166E0,2.954973578E-1,3.860554695E-1,2.600682080E-1
3.319371093E0,3.028275371E-1,4.007157981E-1,2.686200738E-1
3.321753020E0,3.115321100E-1,4.153761268E-1,2.771719396E-1
3.324134895E0,3.202366829E-1,4.300364852E-1,2.832804024E-1
3.326516822E0,3.326063454E-1,4.446968138E-1,2.883199155E-1
3.328898749E0,3.474193811E-1,4.544703662E-1,2.932066917E-1
3.331280676E0,3.597890437E-1,4.679090083E-1,2.968717813E-1
3.333662603E0,3.733803928E-1,4.776825607E-1,2.968717813E-1
3.336044530E0,3.881934285E-1,4.862344265E-1,2.993151546E-1
3.338426457E0,4.005630910E-1,4.960079789E-1,2.956500649E-1
3.340808384E0,4.127800465E-1,4.996730685E-1,2.919849753E-1
3.343190311E0,4.190412164E-1,5.033381581E-1,2.883199155E-1
3.345572238E0,4.239279926E-1,5.008947253E-1,2.846548259E-1
3.347954166E0,4.227063060E-1,4.960079789E-1,2.773246467E-1
3.350336093E0,4.176668227E-1,4.898995161E-1,2.651077211E-1
3.352718020E0,4.077405334E-1,4.787515402E-1,2.480039895E-1
3.355099895E0,3.927747905E-1,4.628695250E-1,2.295258641E-1
3.357481822E0,3.804051280E-1,4.482091665E-1,2.112004459E-1
3.359863749E0,3.655920923E-1,4.285093546E-1,1.902789176E-1
3.362245676E0,3.518480062E-1,4.089622498E-1,1.707318127E-1
3.364627603E0,3.370349705E-1,3.906368315E-1,1.597365588E-1
3.367009530E0,3.234436214E-1,3.723114133E-1,1.462979168E-1
3.369391457E0,3.098522723E-1,3.539859951E-1,1.353026628E-1
3.371773384E0,2.924431264E-1,3.417690396E-1,1.241547018E-1
3.374155311E0,2.764083743E-1,3.318427801E-1,1.156028435E-1
3.376537238E0,2.565558553E-1,3.232909143E-1,1.056765765E-1
3.378919113E0,2.341072112E-1,3.182514310E-1,9.345962852E-2
3.381301041E0,2.079934925E-1,3.167243004E-1,8.108997345E-2
3.383682968E0,1.832541823E-1,3.141281903E-1,7.116370648E-2
3.386064895E0,1.496575773E-1,3.164188862E-1,5.879404768E-2
3.388446822E0,1.148392856E-1,3.269560039E-1,4.642439261E-2
3.390828749E0,7.742489129E-2,3.376458287E-1,3.161134571E-2
3.393210676E0,4.138490185E-2,3.544441164E-1,1.924168877E-2
3.395592603E0,2.748812549E-3,3.710896969E-1,8.093725890E-3
3.397974530E0,-3.588727489E-2,3.927747905E-1,4.581354442E-4
3.400356457E0,-6.704048812E-2,4.179722369E-1,-1.068982668E-2
3.402738384E0,-9.452861547E-2,4.480564594E-1,-1.695101149E-2
3.405107030E0,-1.096470803E-1,4.807367921E-1,-2.565558441E-2
3.407502186E0,-1.172826737E-1,5.158604980E-1,-3.069507517E-2
3.409884113E0,-1.101052165E-1,5.509842038E-1,-3.817795217E-2
3.412252759E0,-9.162709117E-2,5.887040496E-1,-4.550812021E-2
3.414647968E0,-6.459710002E-2,6.215370893E-1,-5.650337040E-2
3.417029895E0,-2.886253223E-2,6.433748603E-1,-7.238540053E-2
3.419398541E0,1.557660475E-2,6.496360302E-1,-9.193251282E-2
3.421793749E0,6.887302548E-2,6.291726828E-1,-1.198787764E-1
3.424175676E0,1.246128380E-1,5.880932212E-1,-1.527118087E-1
3.426544322E0,1.843231618E-1,5.239542127E-1,-1.866138428E-1
3.428939530E0,2.428117841E-1,4.451549351E-1,-2.231119573E-1
3.431321405E0,2.950392365E-1,3.591781855E-1,-2.570139766E-1
3.433690103E0,3.388675153E-1,2.744231224E-1,-2.835858464E-1
3.436085259E0,3.726168275E-1,1.944021434E-1,-3.078670204E-1
3.438467186E0,3.877353072E-1,1.215586066E-1,-3.284831047E-1
3.440835832E0,3.917058110E-1,5.115845799E-2,-3.355078697E-1
3.443231041E0,3.761292100E-1,-2.412846684E-2,-3.316900730E-1
3.445612968E0,3.405473530E-1,-9.819369763E-2,-3.194731176E-1
3.447981613E0,2.864873707E-1,-1.650814712E-1,-2.985515893E-1
3.450376822E0,2.125748396E-1,-2.162399292E-1,-2.680092454E-1
3.452758749E0,1.211004704E-1,-2.383831441E-1,-2.351761907E-1
3.455127395E0,1.450762246E-2,-2.145601064E-1,-2.023431510E-1
3.457522603E0,-1.120904684E-1,-1.397313178E-1,-1.699682474E-1
3.459904530E0,-2.440334857E-1,-2.641914412E-2,-1.498102844E-1
3.462273176E0,-3.736858070E-1,1.088835225E-1,-1.394258887E-1
3.464668332E0,-4.847072959E-1,2.440334857E-1,-1.389677525E-1
3.467050259E0,-5.732801557E-1,3.576510847E-1,-1.467560530E-1
3.469418905E0,-6.357392669E-1,4.421007037E-1,-1.521009654E-1
3.471814113E0,-6.783458591E-1,5.037962794E-1,-1.524063945E-1
3.474196041E0,-7.058340311E-1,5.522059202E-1,-1.476723254E-1
3.476564686E0,-7.258392572E-1,5.957288146E-1,-1.404948682E-1
3.478959895E0,-7.458444834E-1,6.430694461E-1,-1.357607991E-1
3.481341822E0,-7.585195899E-1,6.853706241E-1,-1.310267299E-1
3.483710468E0,-7.734853625E-1,7.217160463E-1,-1.299577504E-1
3.486105624E0,-7.847860456E-1,7.484406233E-1,-1.252236813E-1
3.488487551E0,-7.910472155E-1,7.629482150E-1,-1.240019947E-1
3.490856197E0,-7.960866690E-1,7.676823139E-1,-1.227803007E-1
3.493251405E0,-8.009734750E-1,7.605048418E-1,-1.178935245E-1
3.495633332E0,-8.020424247E-1,7.398887277E-1,-1.178935245E-1
3.498001978E0,-8.081509471E-1,7.058340311E-1,-1.201841980E-1
3.500397186E0,-8.128849864E-1,6.658235192E-1,-1.250709742E-1
3.502779113E0,-8.212841153E-1,6.171084642E-1,-1.310267299E-1
3.505147759E0,-8.298360109E-1,5.648810267E-1,-1.432436854E-1
3.507542968E0,-8.382351398E-1,5.053234100E-1,-1.577513069E-1
3.509924895E0,-8.466343284E-1,4.421007037E-1,-1.748550236E-1
3.512293541E0,-8.539644480E-1,3.800997138E-1,-1.979145110E-1
3.514688697E0,-8.574768305E-1,3.144336343E-1,-2.211267054E-1
3.517070624E0,-8.597674966E-1,2.489202619E-1,-2.478512824E-1
3.519439270E0,-8.583931327E-1,1.953184158E-1,-2.783936262E-1
3.521834478E0,-8.521319032E-1,1.516428292E-1,-3.052709103E-1
3.524216405E0,-8.422056437E-1,1.198787764E-1,-3.344388604E-1
3.526585051E0,-8.261709213E-1,9.315420687E-2,-3.600944579E-1
3.528980259E0,-8.063184023E-1,7.498150319E-2,-3.771981895E-1
3.531362186E0,-7.789829373E-1,6.169557199E-2,-3.929274976E-1
3.533744113E0,-7.504258752E-1,4.734066129E-2,-4.039227366E-1
3.536126041E0,-7.169819474E-1,3.283303976E-2,-4.123218954E-1
3.538507968E0,-6.833853722E-1,1.359135192E-2,-4.170559645E-1
3.540876613E0,-6.473453641E-1,-8.093725890E-3,-4.169032574E-1
3.543271770E0,-6.113054156E-1,-3.084778599E-2,-4.143071473E-1
3.545653697E0,-5.764871240E-1,-5.131116882E-2,-4.153761268E-1
3.548022343E0,-5.428904891E-1,-7.895200700E-2,-4.127800465E-1
3.550417551E0,-5.129590034E-1,-9.941539168E-2,-4.114056230E-1
3.552799478E0,-4.880669713E-1,-1.151447073E-1,-4.075878263E-1
3.555168124E0,-4.680617154E-1,-1.331647038E-1,-4.025483429E-1
3.557563332E0,-4.543176591E-1,-1.440072358E-1,-3.976615667E-1
3.559945259E0,-4.456130862E-1,-1.487413049E-1,-3.914003670E-1
3.562313905E0,-4.442386627E-1,-1.524063945E-1,-3.828485310E-1
3.564709113E0,-4.504998624E-1,-1.511846930E-1,-3.755183518E-1
3.567091041E0,-4.592044353E-1,-1.414111406E-1,-3.657447994E-1
3.569459686E0,-4.740174711E-1,-1.293469071E-1,-3.585673273E-1
3.571854843E0,-4.926483035E-1,-1.087308154E-1,-3.475720882E-1
3.574236770E0,-5.150969625E-1,-8.582404256E-2,-3.355078697E-1
3.576605416E0,-5.337277651E-1,-5.909947306E-2,-3.220692277E-1
3.579000624E0,-5.523586273E-1,-2.886253223E-2,-3.075616062E-1
3.581382551E0,-5.673243999E-1,7.635590620E-3,-2.916795611E-1
3.583764478E0,-5.774033666E-1,3.909422457E-2,-2.796153426E-1
3.586146405E0,-5.836645365E-1,6.826218218E-2,-2.661767006E-1
3.588528332E0,-5.799994469E-1,9.391776472E-2,-2.502946556E-1
3.590910259E0,-5.725166202E-1,1.157555580E-1,-2.380777150E-1
3.593292186E0,-5.564818382E-1,1.353026628E-1,-2.221956849E-1
3.595674113E0,-5.366293192E-1,1.501157135E-1,-2.061609477E-1
3.598055988E0,-5.118899941E-1,1.624853760E-1,-1.915006191E-1
3.600437916E0,-4.819584787E-1,1.736333370E-1,-1.754658818E-1
3.602819843E0,-4.509579837E-1,1.823379099E-1,-1.643179059E-1
3.605201770E0,-4.187358022E-1,1.922641695E-1,-1.557660550E-1
3.607583697E0,-3.865135908E-1,1.985253543E-1,-1.482831687E-1
3.609965624E0,-3.542914093E-1,2.047865391E-1,-1.482831687E-1
3.612347551E0,-3.258870244E-1,2.096733153E-1,-1.456870735E-1
3.614729478E0,-2.985515893E-1,2.134911120E-1,-1.456870735E-1
3.617111405E0,-2.713688910E-1,2.160872221E-1,-1.491994411E-1
3.619493332E0,-2.466295809E-1,2.173089087E-1,-1.577513069E-1
3.621875259E0,-2.279987335E-1,2.125748396E-1,-1.626380831E-1
3.624257186E0,-2.118112892E-1,2.078407854E-1,-1.673721522E-1
3.626639061E0,-1.994416267E-1,1.968455315E-1,-1.722589284E-1
3.629020988E0,-1.931804419E-1,1.847812980E-1,-1.783674061E-1
3.631402916E0,-1.870719790E-1,1.714953631E-1,-1.856975704E-1
3.633771561E0,-1.832541823E-1,1.568350345E-1,-1.953184158E-1
3.636166770E0,-1.832541823E-1,1.398840249E-1,-2.050919682E-1
3.638548697E0,-1.818797737E-1,1.191152185E-1,-2.173089087E-1
3.640930624E0,-1.881409585E-1,9.849911928E-2,-2.295258641E-1
3.643312551E0,-1.905843467E-1,8.017370105E-2,-2.429644912E-1
3.645694478E0,-1.918060333E-1,6.306997687E-2,-2.551814318E-1
3.648076405E0,-1.954711229E-1,4.367557913E-2,-2.673983872E-1
3.650458332E0,-1.979145110E-1,2.901524492E-2,-2.796153426E-1
3.652840207E0,-1.991362125E-1,1.191152167E-2,-2.906105816E-1
3.655222186E0,-2.015796006E-1,-8.704573847E-3,-3.016058207E-1
3.657604061E0,-2.028012872E-1,-2.947338112E-2,-3.101576865E-1
3.659985988E0,-2.014268786E-1,-5.008947477E-2,-3.187095523E-1
3.662367916E0,-2.026485801E-1,-6.826218218E-2,-3.260397315E-1
3.664749843E0,-2.000524700E-1,-8.903098851E-2,-3.332171738E-1
3.667131770E0,-2.000524700E-1,-1.059819981E-1,-3.417690396E-1
3.669513697E0,-2.000524700E-1,-1.217113137E-1,-3.478775024E-1
3.671895624E0,-1.986780763E-1,-1.375933439E-1,-3.539859951E-1
3.674277551E0,-1.998997629E-1,-1.521009654E-1,-3.564293683E-1
3.676659478E0,-1.998997629E-1,-1.643179059E-1,-3.588727713E-1
3.679041405E0,-2.035648525E-1,-1.812689304E-1,-3.613161445E-1
3.681423332E0,-2.046338320E-1,-2.006633282E-1,-3.611634374E-1
3.683805207E0,-2.082989216E-1,-2.249445021E-1,-3.623851240E-1
3.686187134E0,-2.093679011E-1,-2.541124523E-1,-3.646758199E-1
3.688569061E0,-2.116585821E-1,-2.904578745E-1,-3.646758199E-1
3.690950988E0,-2.151709497E-1,-3.329117596E-1,-3.633013964E-1
3.693332916E0,-2.185306102E-1,-3.753656447E-1,-3.607053161E-1
3.695714843E0,-2.195995897E-1,-4.153761268E-1,-3.545968235E-1
3.698096770E0,-2.192941606E-1,-4.529432356E-1,-3.495573401E-1
3.700478697E0,-2.154763639E-1,-4.845545888E-1,-3.457395434E-1
3.702860624E0,-2.078407854E-1,-5.111264586E-1,-3.432961702E-1
3.705242551E0,-1.977618039E-1,-5.317425132E-1,-3.419217467E-1
3.707624478E0,-1.853921413E-1,-5.473191738E-1,-3.407000601E-1
3.710006353E0,-1.704263836E-1,-5.593833923E-1,-3.368822634E-1
3.712388280E0,-1.554606259E-1,-5.690042377E-1,-3.330644667E-1
3.714770207E0,-1.380514801E-1,-5.712949038E-1,-3.293993771E-1
3.717152134E0,-1.181989461E-1,-5.712949038E-1,-3.255815804E-1
3.719534061E0,-9.956810623E-2,-5.723638535E-1,-3.219164908E-1
3.721915988E0,-8.460234851E-2,-5.685460567E-1,-3.182514310E-1
3.724297916E0,-6.856760383E-2,-5.661026835E-1,-3.144336343E-1
3.726679843E0,-4.871506989E-2,-5.622848868E-1,-3.119902313E-1
3.729061770E0,-3.130592033E-2,-5.573981404E-1,-3.071034551E-1
3.731443697E0,-1.527118124E-2,-5.535803437E-1,-3.045073450E-1
3.733825624E0,9.162708884E-4,-5.462501645E-1,-3.008422852E-1
3.736207551E0,1.695101149E-2,-5.401417017E-1,-3.008422852E-1
3.738589426E0,3.298575059E-2,-5.289937258E-1,-2.996205688E-1
3.740971353E0,5.024218559E-2,-5.192201734E-1,-2.996205688E-1
3.743353280E0,6.505523622E-2,-5.045598149E-1,-2.970244884E-1
3.745735207E0,8.108997345E-2,-4.863871336E-1,-2.983988822E-1
3.748117134E0,9.712471068E-2,-4.729484916E-1,-2.970244884E-1
3.750499061E0,1.107160673E-1,-4.631749392E-1,-2.970244884E-1
3.752880988E0,1.218640283E-1,-4.607315361E-1,-2.970244884E-1
3.755262916E0,1.354553849E-1,-4.556920528E-1,-2.994678617E-1
3.757644843E0,1.466033459E-1,-4.556920528E-1,-3.043546379E-1
3.760026770E0,1.553079188E-1,-4.556920528E-1,-3.080197275E-1
3.762408697E0,1.640124917E-1,-4.593571424E-1,-3.165715933E-1
3.764790624E0,1.688992679E-1,-4.605788291E-1,-3.263451457E-1
3.767172499E0,1.737860441E-1,-4.618005157E-1,-3.336753249E-1
3.769554426E0,1.786728203E-1,-4.569137394E-1,-3.397837877E-1
3.771936353E0,1.798945218E-1,-4.497362971E-1,-3.446705639E-1
3.774318280E0,1.823379099E-1,-4.411844313E-1,-3.495573401E-1
3.776700207E0,1.785201132E-1,-4.327852726E-1,-3.533751369E-1
3.779082134E0,1.747023165E-1,-4.219427407E-1,-3.594835997E-1
3.781464061E0,1.695101112E-1,-4.025483429E-1,-3.645231128E-1
3.783845988E0,1.656923145E-1,-3.843756318E-1,-3.681881726E-1
3.786227916E0,1.557660550E-1,-3.686463237E-1,-3.732276857E-1
3.788609843E0,1.481304616E-1,-3.481829464E-1,-3.756710589E-1
3.790991770E0,1.418692768E-1,-3.239017725E-1,-3.794888556E-1
3.793373697E0,1.342336833E-1,-2.961082160E-1,-3.819322586E-1
3.795755624E0,1.265980899E-1,-2.693836391E-1,-3.820849657E-1
3.798137499E0,1.189625040E-1,-2.403683960E-1,-3.810159862E-1
3.800519426E0,1.139230132E-1,-2.099787444E-1,-3.749074936E-1
3.802901353E0,1.101052165E-1,-1.834068894E-1,-3.713951409E-1
3.805283280E0,1.075091213E-1,-1.591257155E-1,-3.640649617E-1
3.807665207E0,1.062874198E-1,-1.420219839E-1,-3.555130959E-1
3.810047134E0,1.062874198E-1,-1.287360638E-1,-3.469612300E-1
3.812429061E0,1.099525094E-1,-1.224748790E-1,-3.359659910E-1
3.814810988E0,1.162136942E-1,-1.175880954E-1,-3.261924386E-1
3.817192916E0,1.236965731E-1,-1.175880954E-1,-3.187095523E-1
3.819574843E0,1.336228400E-1,-1.211004704E-1,-3.126010895E-1
3.821956770E0,1.411057115E-1,-1.221694499E-1,-3.052709103E-1
3.824338645E0,1.510319859E-1,-1.233911440E-1,-3.026748300E-1
3.826720572E0,1.585148573E-1,-1.232384369E-1,-3.002314270E-1
3.829102499E0,1.672194302E-1,-1.220167428E-1,-2.990097404E-1
3.831484426E0,1.734806150E-1,-1.183516532E-1,-2.990097404E-1
3.833866353E0,1.783674061E-1,-1.085781008E-1,-3.002314270E-1
3.836248280E0,1.832541823E-1,-1.014006436E-1,-3.038965166E-1
3.838630207E0,1.843231618E-1,-9.040539712E-2,-3.075616062E-1
3.841012134E0,1.879882365E-1,-7.834116369E-2,-3.126010895E-1
3.843394061E0,1.866138428E-1,-6.872031838E-2,-3.187095523E-1
3.845775988E0,1.878355294E-1,-5.772506446E-2,-3.260397315E-1
3.848157916E0,1.901262105E-1,-4.688252881E-2,-3.335226178E-1
3.850539843E0,1.913478971E-1,-3.481829539E-2,-3.384093940E-1
3.852921770E0,1.911951900E-1,-1.542389300E-2,-3.457395434E-1
3.855303697E0,1.934858710E-1,3.054236295E-4,-3.520007432E-1
3.857685572E0,1.983726472E-1,2.458660305E-2,-3.520007432E-1
3.860067499E0,2.006633282E-1,5.253286287E-2,-3.520007432E-1
3.862449426E0,2.067717910E-1,8.536590636E-2,-3.472666740E-1
3.864831353E0,2.128802687E-1,1.206423342E-1,-3.399364948E-1
3.867213280E0,2.176143378E-1,1.545443535E-1,-3.338280320E-1
3.869595207E0,2.249445021E-1,1.922641695E-1,-3.278722763E-1
3.871977134E0,2.334963679E-1,2.263189107E-1,-3.180987239E-1
3.874359061E0,2.382304370E-1,2.579302490E-1,-3.119902313E-1
3.876740988E0,2.457133085E-1,2.870981991E-1,-2.997733057E-1
3.879122916E0,2.492256761E-1,3.162661791E-1,-2.864873707E-1
3.881504843E0,2.504473627E-1,3.394783735E-1,-2.742704153E-1
3.883886770E0,2.467822880E-1,3.600944579E-1,-2.583884001E-1
3.886268645E0,2.392994165E-1,3.771981895E-1,-2.425063550E-1
3.888650572E0,2.281514555E-1,3.904841244E-1,-2.254026383E-1
3.891032499E0,2.108950168E-1,4.002576768E-1,-2.107423097E-1
3.893414426E0,1.898207814E-1,4.074351192E-1,-1.948602796E-1
3.895796353E0,1.676775664E-1,4.111002088E-1,-1.766875684E-1
3.898178280E0,1.403421611E-1,4.097257853E-1,-1.681357026E-1
3.900560207E0,1.119377613E-1,4.085040987E-1,-1.559187621E-1
3.902942134E0,8.231166750E-2,4.059080184E-1,-1.450762302E-1
3.905324061E0,5.253286287E-2,4.022429287E-1,-1.365243644E-1
3.907705988E0,2.412846684E-2,3.959817290E-1,-1.243074164E-1
3.910087916E0,-5.497625098E-3,3.923166394E-1,-1.145338640E-1
3.912469791E0,-2.901524492E-2,3.837648034E-1,-1.059819981E-1
3.914851718E0,-5.497625470E-2,3.752129376E-1,-9.636115283E-2
3.917233645E0,-7.589777559E-2,3.654393852E-1,-8.903098851E-2
3.919615572E0,-9.559759498E-2,3.556658030E-1,-8.170082420E-2
3.921997499E0,-1.116323397E-1,3.495573401E-1,-7.314895838E-2
3.924379426E0,-1.240019947E-1,3.434488773E-1,-6.459710002E-2
3.926761353E0,-1.313321590E-1,3.397837877E-1,-5.604523420E-2
3.929143280E0,-1.325538605E-1,3.361186981E-1,-4.871506989E-2
3.931525207E0,-1.324011385E-1,3.326063454E-1,-3.878879920E-2
3.933907134E0,-1.273616552E-1,3.289412558E-1,-3.023693897E-2
3.936289061E0,-1.223221645E-1,3.217637837E-1,-2.031067200E-2
3.938670988E0,-1.111742035E-1,3.121429384E-1,-1.420219894E-2
3.941052916E0,-9.865183383E-2,3.037438095E-1,-6.719320081E-3
3.943434791E0,-8.368607610E-2,2.954973578E-1,-1.832541777E-3
3.945816718E0,-6.749862432E-2,2.870981991E-1,7.635590737E-4
3.948198645E0,-5.131116882E-2,2.797680497E-1,7.635590737E-4
3.950580572E0,-3.145863488E-2,2.762556672E-1,7.635590737E-4
3.952962499E0,-1.420219894E-2,2.727433145E-1,-1.527118147E-3
3.955344426E0,1.985253533E-3,2.764083743E-1,-3.970507067E-3
3.957726353E0,1.557660475E-2,2.765611112E-1,-7.635590620E-3
3.960108280E0,2.550287358E-2,2.790044844E-1,-1.007897966E-2
3.962490207E0,3.405473381E-2,2.863346636E-1,-1.252236869E-2
3.964872134E0,3.283303976E-2,2.886253297E-1,-1.863084175E-2
3.967254061E0,3.023693897E-2,2.898470163E-1,-2.351761982E-2
3.969622707E0,2.153236605E-2,2.909159958E-1,-3.084778599E-2
3.972017863E0,4.123218823E-3,2.921377122E-1,-3.833066672E-2
3.974399791E0,-2.321219631E-2,2.906105816E-1,-4.459185153E-2
3.976768436E0,-5.665608495E-2,2.867927849E-1,-4.947862774E-2
3.979163645E0,-9.743013978E-2,2.732014358E-1,-5.085303262E-2
3.981545572E0,-1.469087601E-1,2.524326444E-1,-5.085303262E-2
3.983914218E0,-2.026485801E-1,2.302894145E-1,-5.589252338E-2
3.986309426E0,-2.596100867E-1,2.020377368E-1,-5.604523420E-2
3.988691353E0,-3.164188862E-1,1.653869003E-1,-5.604523420E-2
3.991059999E0,-3.707842827E-1,1.275143623E-1,-5.619794875E-2
3.993455207E0,-4.188885093E-1,8.475505561E-2,-5.497625470E-2
3.995837134E0,-4.633276463E-1,4.459185153E-2,-5.375456065E-2
3.998205780E0,-4.990622103E-1,1.832541777E-3,-5.619794875E-2
4.000600936E0,-5.260922313E-1,-3.466558084E-2,-5.864133686E-2
4.002982863E0,-5.409052372E-1,-6.872031838E-2,-6.108472496E-2
4.005351509E0,-5.456393361E-1,-1.027750522E-1,-6.581879407E-2
4.007746718E0,-5.331169367E-1,-1.281252056E-1,-7.070557028E-2
4.010128645E0,-5.108210444E-1,-1.462979168E-1,-7.910472155E-2
4.012497291E0,-4.760027230E-1,-1.582094431E-1,-8.765657991E-2
4.014892499E0,-4.289674759E-1,-1.568350345E-1,-9.239064902E-2
4.017274426E0,-3.720059693E-1,-1.432436854E-1,-9.345962852E-2
4.019643072E0,-3.038965166E-1,-1.172826737E-1,-8.842013776E-2
4.022038280E0,-2.284568697E-1,-7.681404054E-2,-7.971556485E-2
4.024420207E0,-1.493521482E-1,-1.817270555E-2,-6.123743951E-2
4.026788853E0,-6.276455522E-2,5.879404768E-2,-4.153761268E-2
4.029184009E0,2.367033064E-2,1.516428292E-1,-1.221694518E-2
4.031565936E0,1.064401343E-1,2.553341687E-1,2.458660305E-2
4.033934582E0,1.829487532E-1,3.626905680E-1,6.490252167E-2
4.036329791E0,2.519744933E-1,4.760027230E-1,1.065928489E-1
4.038711718E0,3.049654961E-1,5.832064152E-1,1.517955512E-1
4.041080363E0,3.506263196E-1,6.746807694E-1,1.945548505E-1
4.043475572E0,3.839175105E-1,7.453863621E-1,2.324273884E-1
4.045857499E0,4.086568058E-1,7.893673778E-1,2.631224692E-1
4.048226145E0,4.236225784E-1,8.090671897E-1,2.899997234E-1
4.050621353E0,4.324798584E-1,8.128849864E-1,3.158080280E-1
4.053003280E0,4.362976551E-1,7.995990515E-1,3.379512429E-1
4.055371926E0,4.390464723E-1,7.742488980E-1,3.587200642E-1
4.057767082E0,4.405735731E-1,7.391251922E-1,3.759764731E-1
4.060149009E0,4.408790171E-1,6.968240142E-1,3.946073353E-1
4.062517655E0,4.401154518E-1,6.459710002E-1,4.179722369E-1
4.064912863E0,4.404208660E-1,5.938962698E-1,4.388937652E-1
4.067294791E0,4.408790171E-1,5.383091569E-1,4.611896873E-1
4.069663436E0,4.425588250E-1,4.789042473E-1,4.796678126E-1
4.072058645E0,4.430169761E-1,4.184303582E-1,4.920374751E-1
4.074440572E0,4.445441067E-1,3.578037918E-1,5.057815313E-1
4.076809218E0,4.437805414E-1,2.971771955E-1,5.169295073E-1
4.079204426E0,4.440859556E-1,2.389939874E-1,5.244123936E-1
4.081586353E0,4.407263100E-1,1.856975704E-1,5.282301903E-1
4.083954999E0,4.384356141E-1,1.359135211E-1,5.296045542E-1
4.086350155E0,4.337015450E-1,8.857285231E-2,5.297572613E-1
4.088732082E0,4.301891923E-1,5.100574717E-2,5.285356045E-1
4.091100780E0,4.278984964E-1,1.221694518E-2,5.262449384E-1
4.093495936E0,4.256078303E-1,-2.061609551E-2,5.238015056E-1
4.095877863E0,4.233171642E-1,-5.222744122E-2,5.215108395E-1
4.098246509E0,4.172086716E-1,-8.261708915E-2,5.190674663E-1
4.100641718E0,4.136963189E-1,-1.068982705E-1,5.166240931E-1
4.103023645E0,4.100312293E-1,-1.275143623E-1,5.166240931E-1
4.105405572E0,4.051444530E-1,-1.444653720E-1,5.179984570E-1
4.107787499E0,3.978142738E-1,-1.615691036E-1,5.179984570E-1
4.110169426E0,3.917058110E-1,-1.785201132E-1,5.228852630E-1
4.112551353E0,3.819322586E-1,-1.979145110E-1,5.289937258E-1
4.114933228E0,3.733803928E-1,-2.197522968E-1,5.303681493E-1
4.117315155E0,3.636068404E-1,-2.452551723E-1,5.315898061E-1
4.119697082E0,3.588727713E-1,-2.805316150E-1,5.328115225E-1
4.122079009E0,3.541387022E-1,-3.168770075E-1,5.329642296E-1
4.124460936E0,3.530697227E-1,-3.545968235E-1,5.268557668E-1
4.126842863E0,3.544441164E-1,-3.982724249E-1,5.209000111E-1
4.129224791E0,3.620797098E-1,-4.358395338E-1,5.100574493E-1
4.131606718E0,3.707842827E-1,-4.650074840E-1,4.941754341E-1
4.133988645E0,3.855973184E-1,-4.807367921E-1,4.746283293E-1
4.136370572E0,4.016320705E-1,-4.831801951E-1,4.563029110E-1
4.138752499E0,4.201101959E-1,-4.760027230E-1,4.343124032E-1
4.141121145E0,4.396573007E-1,-4.517215490E-1,4.109475017E-1
4.143516353E0,4.592044353E-1,-4.178195298E-1,3.889569938E-1
4.145898228E0,4.763081372E-1,-3.849864900E-1,3.680354655E-1
4.148266926E0,4.895940721E-1,-3.498627543E-1,3.495573401E-1
4.150662082E0,4.943281412E-1,-3.171824515E-1,3.361186981E-1
4.153044009E0,4.915793240E-1,-2.869454920E-1,3.249707520E-1
4.155412655E0,4.790569544E-1,-2.603736520E-1,3.138227761E-1
4.157807863E0,4.588989913E-1,-2.325800955E-1,3.075616062E-1
4.160189791E0,4.301891923E-1,-2.073826492E-1,2.976353168E-1
4.162571718E0,3.929274976E-1,-1.809635013E-1,2.899997234E-1
4.164953645E0,3.516952991E-1,-1.484358907E-1,2.812951505E-1
4.167335572E0,3.067980409E-1,-1.110214889E-1,2.736595869E-1
4.169717499E0,2.570139766E-1,-7.375980914E-2,2.686200738E-1
4.172099426E0,2.060082406E-1,-4.016320780E-2,2.597627938E-1
4.174481301E0,1.550024897E-1,-1.252236869E-2,2.447970361E-1
4.176863228E0,1.064401343E-1,6.566607859E-3,2.298312783E-1
4.179245155E0,6.032116711E-2,2.550287358E-2,2.101314515E-1
4.181627082E0,1.801999472E-2,3.741439432E-2,1.915006191E-1
4.184009009E0,-1.939439960E-2,4.932591692E-2,1.779092699E-1
4.186390936E0,-4.672981426E-2,6.001574174E-2,1.643179059E-1
4.188772863E0,-7.162184268E-2,6.826218218E-2,1.556133330E-1
4.191154791E0,-9.162709117E-2,7.421794534E-2,1.495048702E-1
4.193536718E0,-1.039967462E-1,8.261708915E-2,1.493521482E-1
4.195918645E0,-1.114796251E-1,9.101624042E-2,1.517955512E-1
4.198300572E0,-1.127013192E-1,9.956810623E-2,1.530172378E-1
4.200682499E0,-1.102579311E-1,1.044548824E-1,1.566823274E-1
4.203064374E0,-1.078145429E-1,1.142284349E-1,1.640124917E-1
4.205446301E0,-9.910997003E-2,1.178935245E-1,1.725643575E-1
4.207828228E0,-9.040539712E-2,1.192679256E-1,1.824906170E-1
4.210210155E0,-8.154810965E-2,1.133121699E-1,1.959292591E-1
4.212592082E0,-7.406523079E-2,1.049130186E-1,2.119639963E-1
4.214974009E0,-6.520794332E-2,9.895725548E-2,2.254026383E-1
4.217355936E0,-5.894676223E-2,9.177979827E-2,2.426590770E-1
4.219737863E0,-5.131116882E-2,8.826743066E-2,2.574721277E-1
4.222119791E0,-4.627167806E-2,8.231166750E-2,2.733541429E-1
4.224501718E0,-4.245388508E-2,7.757759839E-2,2.930539846E-1
4.226883645E0,-4.107947648E-2,7.406523079E-2,3.089359999E-1
4.229265572E0,-3.970507160E-2,7.299624383E-2,3.298575282E-1
4.231647499E0,-4.199574888E-2,6.826218218E-2,3.481829464E-1
4.234029426E0,-4.062134400E-2,5.741964281E-2,3.652866483E-1
4.236411301E0,-4.169032723E-2,4.779879749E-2,3.813214004E-1
4.238793228E0,-4.153761268E-2,3.695625812E-2,3.935383558E-1
4.241175155E0,-4.153761268E-2,2.733541466E-2,4.046863019E-1
4.243557082E0,-4.138490185E-2,1.389677543E-2,4.144598544E-1
4.245939009E0,-4.001049697E-2,-1.679830020E-3,4.219427407E-1
4.248320936E0,-3.741439432E-2,-1.756185852E-2,4.243861437E-1
4.250702863E0,-3.359659761E-2,-3.084778599E-2,4.231644273E-1
4.253084791E0,-2.733541466E-2,-5.024218559E-2,4.159869850E-1
4.255466718E0,-1.863084175E-2,-6.963659078E-2,4.074351192E-1
4.257848645E0,-8.704573847E-3,-8.414421231E-2,4.001049399E-1
4.260230572E0,1.221694518E-3,-1.035386100E-1,3.929274976E-1
4.262612499E0,1.496575773E-2,-1.204896197E-1,3.855973184E-1
4.264994374E0,2.733541466E-2,-1.362189353E-1,3.721587062E-1
4.267376301E0,3.726168349E-2,-1.533226669E-1,3.587200642E-1
4.269758228E0,4.718795046E-2,-1.690519750E-1,3.417690396E-1
4.272140155E0,5.955760926E-2,-1.873773932E-1,3.246653080E-1
4.274522082E0,6.826218218E-2,-2.055501044E-1,3.124483824E-1
4.276904009E0,7.574506104E-2,-2.237228155E-1,3.002314270E-1
4.279285936E0,8.078455180E-2,-2.443388999E-1,2.880144715E-1
4.281667863E0,8.826743066E-2,-2.661767006E-1,2.771719396E-1
4.284049791E0,9.819369763E-2,-2.880144715E-1,2.661767006E-1
4.286431718E0,1.032331884E-1,-3.110739589E-1,2.576248348E-1
4.288813645E0,1.046075895E-1,-3.330644667E-1,2.504473627E-1
4.291195520E0,1.047603041E-1,-3.597890437E-1,2.443388999E-1
4.293577499E0,1.010952219E-1,-3.888042867E-1,2.382304370E-1
4.295959374E0,9.620844573E-2,-4.204156399E-1,2.322746664E-1
4.298341301E0,8.521319181E-2,-4.569137394E-1,2.249445021E-1
4.300723228E0,7.421794534E-2,-4.885250926E-1,2.151709497E-1
4.303105155E0,6.200099736E-2,-5.238015056E-1,2.102841735E-1
4.305487082E0,4.963133857E-2,-5.543438792E-1,2.041756958E-1
4.307869009E0,3.252761811E-2,-5.835118294E-1,2.005106062E-1
4.310250936E0,1.771457121E-2,-6.077930331E-1,1.994416267E-1
4.312632863E0,2.901524538E-3,-6.285618544E-1,2.018850148E-1
4.315014791E0,-1.435491070E-2,-6.432221532E-1,1.994416267E-1
4.317396718E0,-2.672456764E-2,-6.517740488E-1,1.980672181E-1
4.319778645E0,-4.275930673E-2,-6.603258848E-1,1.980672181E-1
4.322160520E0,-5.390727147E-2,-6.652126908E-1,1.956238300E-1
4.324542447E0,-6.505523622E-2,-6.676560640E-1,1.956238300E-1
4.326924374E0,-7.498150319E-2,-6.665870547E-1,1.968455315E-1
4.329306301E0,-8.002099395E-2,-6.641436815E-1,1.956238300E-1
4.331688228E0,-8.490777016E-2,-6.665870547E-1,1.942494214E-1
4.334070155E0,-8.490777016E-2,-6.678087711E-1,1.942494214E-1
4.336452082E0,-8.490777016E-2,-6.690304875E-1,1.956238300E-1
4.338834009E0,-8.612946421E-2,-6.739172339E-1,1.968455315E-1
4.341215936E0,-8.108997345E-2,-6.786513329E-1,1.980672181E-1
4.343597863E0,-7.620319724E-2,-6.835380793E-1,1.956238300E-1
4.345979791E0,-7.116370648E-2,-6.908682585E-1,1.944021434E-1
4.348361718E0,-6.245913357E-2,-6.980457306E-1,1.944021434E-1
4.350743645E0,-5.497625470E-2,-7.064448595E-1,1.933331639E-1
4.353125572E0,-4.749337584E-2,-7.162184119E-1,1.933331639E-1
4.355507447E0,-3.741439432E-2,-7.307260633E-1,1.896680743E-1
4.357889374E0,-2.748812735E-2,-7.452336550E-1,1.861557066E-1
4.360271301E0,-1.756185852E-2,-7.585195899E-1,1.788255423E-1
4.362653228E0,-5.192201585E-3,-7.705838084E-1,1.714953631E-1
4.365035155E0,5.955760833E-3,-7.791357040E-1,1.617218107E-1
4.367417082E0,1.588202827E-2,-7.875348330E-1,1.521009654E-1
4.369799009E0,2.458660305E-2,-7.924215794E-1,1.447708011E-1
4.372180936E0,3.069507517E-2,-7.875348330E-1,1.349972486E-1
4.374562863E0,3.924693540E-2,-7.852441669E-1,1.262926757E-1
4.376944791E0,4.413371533E-2,-7.791357040E-1,1.177408099E-1
4.379326718E0,4.779879749E-2,-7.682931423E-1,1.116323397E-1
4.381708645E0,5.024218559E-2,-7.572978735E-1,1.043021679E-1
4.384090572E0,5.131116882E-2,-7.427902818E-1,1.017060652E-1
4.386472447E0,4.504998401E-2,-7.282826304E-1,1.004843712E-1
4.388854374E0,4.123219103E-2,-7.101099491E-1,9.681928903E-2
4.391236301E0,3.359659761E-2,-6.907155514E-1,9.544488788E-2
4.393618228E0,2.611372061E-2,-6.737645268E-1,9.422318637E-2
4.396000155E0,1.863084175E-2,-6.533011198E-1,9.162709117E-2
4.398382082E0,9.773556143E-3,-6.339067221E-1,9.284878522E-2
4.400764009E0,-5.192201585E-3,-6.097782850E-1,9.391776472E-2
4.403145936E0,-1.527118124E-2,-5.916055441E-1,9.376505762E-2
4.405527863E0,-2.764083818E-2,-5.758762360E-1,9.865183383E-2
4.407909791E0,-3.894151375E-2,-5.589252710E-1,1.035386100E-1
4.410291718E0,-5.131116882E-2,-5.431959033E-1,1.094943732E-1
4.412673593E0,-6.261184067E-2,-5.274665952E-1,1.143811494E-1
4.415055520E0,-7.498150319E-2,-5.154023767E-1,1.204896197E-1
4.417437447E0,-8.246438205E-2,-5.056288242E-1,1.276670843E-1
4.419819374E0,-8.857285231E-2,-4.946335554E-1,1.362189353E-1
4.422201301E0,-9.239064902E-2,-4.825693369E-1,1.423274130E-1
4.424583228E0,-9.239064902E-2,-4.715740979E-1,1.521009654E-1
4.426965155E0,-8.872556686E-2,-4.532486796E-1,1.667613089E-1
4.429347082E0,-8.368607610E-2,-4.459185004E-1,1.765348613E-1
4.431729009E0,-7.498150319E-2,-4.410317242E-1,1.901262105E-1
4.434110936E0,-6.627693027E-2,-4.359922409E-1,2.035648525E-1
4.436492863E0,-5.375456065E-2,-4.286620617E-1,2.170034945E-1
4.438874791E0,-4.016320780E-2,-4.224008918E-1,2.281514555E-1
4.441256666E0,-2.275406010E-2,-4.161396921E-1,2.403683960E-1
4.443638645E0,-2.901524538E-3,-4.123218954E-1,2.502946556E-1
4.446020520E0,1.695101149E-2,-4.086568058E-1,2.600682080E-1
4.448402447E0,3.939964995E-2,-4.048390090E-1,2.699944973E-1
4.450784374E0,6.047387794E-2,-4.022429287E-1,2.786990702E-1
4.453166301E0,8.154810965E-2,-3.996468186E-1,2.872509360E-1
4.455548228E0,1.076618284E-1,-3.946073353E-1,3.008422852E-1
4.457930155E0,1.325538605E-1,-3.895678520E-1,3.118375242E-1
4.460312082E0,1.560714692E-1,-3.845283389E-1,3.205420971E-1
4.462694009E0,1.797417998E-1,-3.770454824E-1,3.327590525E-1
4.465075936E0,2.008160353E-1,-3.623851240E-1,3.439069986E-1
4.467457863E0,2.205158621E-1,-3.475720882E-1,3.561239541E-1
4.469839791E0,2.379250079E-1,-3.268032968E-1,3.671191931E-1
4.472221666E0,2.515163720E-1,-3.072561622E-1,3.782671690E-1
4.474603593E0,2.663294077E-1,-2.854183912E-1,3.892624080E-1
4.476985520E0,2.799207568E-1,-2.646495700E-1,4.002576768E-1
4.479367447E0,2.922904193E-1,-2.426590770E-1,4.124746025E-1
4.481749374E0,2.983988822E-1,-2.183778882E-1,4.210264683E-1
4.484131301E0,3.057290614E-1,-1.963873953E-1,4.308000207E-1
4.486513228E0,3.118375242E-1,-1.756185889E-1,4.405735731E-1
4.488895155E0,3.142809272E-1,-1.598892659E-1,4.491254389E-1
4.491277082E0,3.205420971E-1,-1.525591016E-1,4.564556181E-1
4.493659009E0,3.205420971E-1,-1.403421611E-1,4.662291706E-1
4.496040936E0,3.229855001E-1,-1.330119967E-1,4.723376334E-1
4.498422863E0,3.254288733E-1,-1.281252056E-1,4.760027230E-1
4.500804791E0,3.266505599E-1,-1.171299592E-1,4.808894992E-1
4.503186718E0,3.303156495E-1,-1.075091213E-1,4.808894992E-1
4.505568593E0,3.315373361E-1,-9.773556143E-2,4.784461260E-1
4.507950520E0,3.339807391E-1,-8.689302206E-2,4.697415531E-1
4.510332447E0,3.374931216E-1,-7.834116369E-2,4.624113739E-1
4.512714374E0,3.399364948E-1,-6.505523622E-2,4.514161348E-1
4.515096301E0,3.458922505E-1,-5.299099907E-2,4.402681589E-1
4.517478228E0,3.495573401E-1,-3.970507160E-2,4.243861437E-1
4.519860155E0,3.506263196E-1,-2.275406010E-2,4.120164812E-1
4.522242082E0,3.541387022E-1,-7.024743594E-3,3.973561525E-1
4.524624009E0,3.564293683E-1,8.551862091E-3,3.837648034E-1
4.527005936E0,3.538332880E-1,2.305948362E-2,3.691044450E-1
4.529387863E0,3.510844707E-1,3.878879920E-2,3.506263196E-1
4.531769791E0,3.460449576E-1,5.436540768E-2,3.358132839E-1
4.534151666E0,3.396310806E-1,6.765133142E-2,3.187095523E-1
4.536533593E0,3.307738006E-1,7.727217674E-2,3.014531136E-1
4.538915572E0,3.206948042E-1,8.674030751E-2,2.817533016E-1
4.541297447E0,3.057290614E-1,9.620844573E-2,2.620534599E-1
4.543679374E0,2.893888950E-1,1.082726792E-1,2.411319613E-1
4.546061301E0,2.744231224E-1,1.152974218E-1,2.203631550E-1
4.548443228E0,2.556395829E-1,1.211004704E-1,2.006633282E-1
4.550825155E0,2.380777150E-1,1.270562261E-1,1.809635013E-1
4.553207082E0,2.194468826E-1,1.291942000E-1,1.612636745E-1
4.555589009E0,2.018850148E-1,1.302631795E-1,1.440072358E-1
4.557970936E0,1.844758689E-1,1.362189353E-1,1.269035190E-1
4.560352863E0,1.682884246E-1,1.385096163E-1,1.108687744E-1
4.562734791E0,1.519482583E-1,1.455343664E-1,9.483403713E-2
4.565116666E0,1.406475753E-1,1.502684206E-1,8.139539510E-2
4.567498645E0,1.232384369E-1,1.501157135E-1,6.536065787E-2
4.569880520E0,1.082726792E-1,1.536280811E-1,4.810422286E-2
4.572262447E0,9.575030953E-2,1.569877416E-1,3.222219273E-2
4.574644374E0,8.322793990E-2,1.617218107E-1,1.618745178E-2
4.577026301E0,7.192726433E-2,1.664558798E-1,-1.068982761E-3
4.579408228E0,6.200099736E-2,1.711899489E-1,-1.695101149E-2
4.581790155E0,4.825693369E-2,1.759240031E-1,-3.176405653E-2
4.584158801E0,3.069507517E-2,1.733279079E-1,-5.268557742E-2
4.586554009E0,1.695101149E-2,1.730224788E-1,-7.101099193E-2
4.588935936E0,7.635590737E-4,1.716480851E-1,-9.315420687E-2
4.591304582E0,-1.298050396E-2,1.653869003E-1,-1.177408099E-1
4.593699791E0,-2.672456764E-2,1.615691036E-1,-1.421747059E-1
4.596081666E0,-3.802524135E-2,1.553079188E-1,-1.679829955E-1
4.598450363E0,-4.428642616E-2,1.502684206E-1,-1.937913001E-1
4.600845520E0,-4.810422286E-2,1.380514801E-1,-2.133384049E-1
4.603227447E0,-4.932591692E-2,1.221694499E-1,-2.316638231E-1
4.605596093E0,-4.688252881E-2,1.087308154E-1,-2.463241518E-1
4.607991301E0,-3.939964995E-2,8.811471611E-2,-2.560977042E-1
4.610373228E0,-2.932066843E-2,5.543438718E-2,-2.608317733E-1
4.612741874E0,-1.679829881E-2,1.542389300E-2,-2.631224692E-1
4.615137082E0,-1.679830020E-3,-3.176405653E-2,-2.617480457E-1
4.617519009E0,1.236965694E-2,-8.383878320E-2,-2.530434728E-1
4.619887655E0,2.382304333E-2,-1.369825006E-1,-2.429644912E-1
4.622282863E0,3.527642787E-2,-1.878355294E-1,-2.293731421E-1
4.624664791E0,3.817795217E-2,-2.325800955E-1,-2.133384049E-1
4.627033436E0,3.710897267E-2,-2.664821148E-1,-1.948602796E-1
4.629428593E0,2.626643144E-2,-2.822114229E-1,-1.727170646E-1
4.631810520E0,1.527118147E-3,-2.701472044E-1,-1.459924877E-1
4.634179166E0,-3.436015919E-2,-2.385358512E-1,-1.117850468E-1
4.636574374E0,-7.910472155E-2,-1.889045089E-1,-7.284353673E-2
4.638956301E0,-1.299577504E-1,-1.319430023E-1,-3.390202299E-2
4.641324947E0,-1.834068894E-1,-7.253811508E-2,5.039489828E-3
4.643720155E0,-2.417428046E-1,-1.328592747E-2,4.138490185E-2
4.646102082E0,-2.977880239E-1,4.596625641E-2,6.444438547E-2
4.648470728E0,-3.500154912E-1,9.910997003E-2,7.269082218E-2
4.650865936E0,-3.985778391E-1,1.412584335E-1,7.116370648E-2
4.653247863E0,-4.421007037E-1,1.725643575E-1,6.856760383E-2
4.655616509E0,-4.795151055E-1,1.979145110E-1,6.459710002E-2
4.658011666E0,-5.094466209E-1,2.231119573E-1,5.833591148E-2
4.660393593E0,-5.357130170E-1,2.557922900E-1,5.696150661E-2
4.662762238E0,-5.619794726E-1,2.932066917E-1,5.314370990E-2
4.665157447E0,-5.832064152E-1,3.367295563E-1,4.810422286E-2
4.667539374E0,-6.059604883E-1,3.886515796E-1,3.802524135E-2
4.669908020E0,-6.285618544E-1,4.407263100E-1,3.176405653E-2
4.672303228E0,-6.511631608E-1,4.902049303E-1,2.046338283E-2
4.674685155E0,-6.725428104E-1,5.312843919E-1,8.093725890E-3
4.677053801E0,-6.913263798E-1,5.615213513E-1,-4.275931045E-3
4.679449009E0,-7.113316059E-1,5.746545792E-1,-1.664558798E-2
4.681830936E0,-7.238540053E-1,5.818319917E-1,-3.512371704E-2
4.684199582E0,-7.375980616E-1,5.731274486E-1,-5.222744122E-2
4.686594791E0,-7.475243211E-1,5.486935377E-1,-7.055285573E-2
4.688976666E0,-7.548545003E-1,5.146388412E-1,-8.521319181E-2
4.691345363E0,-7.571451664E-1,4.648547769E-1,-1.023169160E-1
4.693740520E0,-7.557707429E-1,4.065188468E-1,-1.217113137E-1
4.696122447E0,-7.504258752E-1,3.397837877E-1,-1.398840249E-1
4.698491093E0,-7.391251922E-1,2.669402659E-1,-1.580567211E-1
4.700886301E0,-7.250757217E-1,1.881409585E-1,-1.737860441E-1
4.703268228E0,-7.099572420E-1,1.128540337E-1,-1.895153672E-1
4.705636874E0,-6.910209656E-1,3.405473381E-2,-2.075353563E-1
4.708032082E0,-6.696413159E-1,-3.512371704E-2,-2.269297540E-1
4.710414009E0,-6.484143734E-1,-1.017060652E-1,-2.463241518E-1
4.712782655E0,-6.258130074E-1,-1.588202864E-1,-2.657185495E-1
4.715177863E0,-6.045860648E-1,-2.084516287E-1,-2.851129472E-1
4.717559791E0,-5.847335458E-1,-2.496838123E-1,-3.095468581E-1
4.719941718E0,-5.685460567E-1,-2.837385535E-1,-3.374931216E-1
4.722323593E0,-5.537330508E-1,-3.057290614E-1,-3.668137789E-1
4.724705520E0,-5.451811552E-1,-3.214583695E-1,-3.961344361E-1
4.727087447E0,-5.402944088E-1,-3.264978528E-1,-4.219427407E-1
4.729469374E0,-5.329642296E-1,-3.242071867E-1,-4.439332485E-1
4.731851301E0,-5.294518471E-1,-3.144336343E-1,-4.611896873E-1
4.734233228E0,-5.271611810E-1,-2.927485406E-1,-4.709632397E-1
4.736615155E0,-5.236487985E-1,-2.660239935E-1,-4.735593498E-1
4.738997082E0,-5.199837089E-1,-2.356343269E-1,-4.747810364E-1
4.741365728E0,-5.189147592E-1,-2.113531530E-1,-4.723376334E-1
4.743760936E0,-5.164713860E-1,-1.882936656E-1,-4.724903405E-1
