"Time (s)","Acceleration x (m/s^2)","Acceleration y (m/s^2)","Acceleration z (m/s^2)"
2.332636800E-2,-8.673982024E-1,1.617548108E0,9.530014038E0
2.556295500E-2,-8.291130662E-1,1.625923038E0,9.597013474E0
2.779954200E-2,-8.153542876E-1,1.610967875E0,9.649655342E0
3.003612900E-2,-7.728816867E-1,1.610369682E0,9.731011391E0
3.226106900E-2,-7.351947427E-1,1.633101463E0,9.807581902E0
3.449801200E-2,-6.873382926E-1,1.622931957E0,9.822537422E0
3.673678500E-2,-6.538388133E-1,1.640878081E0,9.870393753E0
3.898129200E-2,-6.346961856E-1,1.645663738E0,9.894321442E0
4.120657300E-2,-5.928218365E-1,1.620539188E0,9.957133293E0
4.344375500E-2,-5.928218365E-1,1.620539188E0,9.981060982E0
4.567922900E-2,-5.886343718E-1,1.596610904E0,1.001456070E1
4.792037900E-2,-6.520441771E-1,1.563709617E0,1.006122112E1
5.015426500E-2,-6.227321029E-1,1.582253933E0,1.009053326E1
5.239053300E-2,-5.796613097E-1,1.562513232E0,1.005703354E1
5.462533400E-2,-5.024927258E-1,1.580459356E0,1.002951622E1
5.686282300E-2,-4.552344978E-1,1.546959877E0,9.987043381E0
5.909927300E-2,-3.978067636E-1,1.531406522E0,9.958928108E0
6.133590600E-2,-3.690928817E-1,1.507478237E0,9.921240807E0
6.357247800E-2,-3.738785386E-1,1.473978758E0,9.882955551E0
6.580917300E-2,-3.643072546E-1,1.464407444E0,9.859027863E0
6.804568400E-2,-3.780659735E-1,1.445863128E0,9.783055305E0
7.028341600E-2,-3.876372576E-1,1.422533035E0,9.730413437E0
7.251901200E-2,-4.163511395E-1,1.408774376E0,9.677771568E0
7.475668200E-2,-4.636093974E-1,1.405185103E0,9.629316330E0
7.699203400E-2,-4.875376225E-1,1.391426325E0,9.581459999E0
7.922927800E-2,-4.971089065E-1,1.391426325E0,9.557532310E0
8.146511800E-2,-5.491527915E-1,1.402194023E0,9.504889488E0
8.370327700E-2,-5.922235847E-1,1.412363529E0,9.489934921E0
8.594326700E-2,-6.209374666E-1,1.427318692E0,9.522835732E0
8.817660400E-2,-6.681957245E-1,1.447059512E0,9.527621269E0
9.041311600E-2,-7.256234884E-1,1.462014675E0,9.531808853E0
9.264785600E-2,-7.537391186E-1,1.486541033E0,9.473783493E0
9.488632100E-2,-7.728816867E-1,1.501496196E0,9.478569031E0
9.712289400E-2,-7.824530005E-1,1.511067510E0,9.507282257E0
9.935879400E-2,-8.009973764E-1,1.515853167E0,9.478569031E0
1.015944510E-1,-7.962117195E-1,1.506281853E0,9.468997002E0
1.038315730E-1,-7.812566161E-1,1.530210137E0,9.435498238E0
1.060693660E-1,-7.860422134E-1,1.535593987E0,9.416355133E0
1.083044730E-1,-7.956135273E-1,1.516451359E0,9.411569595E0
1.105411060E-1,-7.956135273E-1,1.535593987E0,9.387641907E0
1.127767630E-1,-7.812566161E-1,1.502094388E0,9.388239861E0
1.150137630E-1,-7.860422134E-1,1.521237016E0,9.387641907E0
1.172522880E-1,-8.147560954E-1,1.545165181E0,9.401998520E0
1.194917900E-1,-7.956135273E-1,1.535593987E0,9.421140671E0
1.217236620E-1,-7.902296782E-1,1.554736495E0,9.387641907E0
1.239621880E-1,-7.806583643E-1,1.569093466E0,9.401998520E0
1.261967460E-1,-7.525427341E-1,1.534995675E0,9.412167549E0
1.284346610E-1,-7.423732281E-1,1.568495274E0,9.402596474E0
1.306705010E-1,-7.136593461E-1,1.553540111E0,9.388239861E0
1.329067070E-1,-6.711867452E-1,1.533799291E0,9.393623352E0
1.351430350E-1,-6.370890141E-1,1.542772412E0,9.375079155E0
1.373804010E-1,-6.083751321E-1,1.547558069E0,9.355937004E0
1.396166070E-1,-5.796613097E-1,1.527817249E0,9.327820778E0
1.418540950E-1,-5.551348329E-1,1.546361685E0,9.332606316E0
1.440896900E-1,-5.503492355E-1,1.527817249E0,9.285347939E0
1.463265680E-1,-5.264210105E-1,1.532004714E0,9.304491043E0
1.485630790E-1,-5.359922647E-1,1.541576028E0,9.280562401E0
1.507990410E-1,-5.455635786E-1,1.527219057E0,9.294919968E0
1.530370170E-1,-5.407779217E-1,1.532602906E0,9.275776863E0
1.552722470E-1,-5.599204898E-1,1.523031592E0,9.280562401E0
1.575098560E-1,-5.647061467E-1,1.518245935E0,9.294321060E0
1.597480770E-1,-5.748756528E-1,1.518245935E0,9.303893089E0
1.619818410E-1,-5.796613097E-1,1.494317770E0,9.323035240E0
1.642201220E-1,-5.844469070E-1,1.508674622E0,9.342177391E0
1.664573670E-1,-5.659025311E-1,1.503290772E0,9.375677109E0
1.686925960E-1,-5.706881881E-1,1.498505235E0,9.399605751E0
1.709291680E-1,-5.617151260E-1,1.488933921E0,9.433105469E0
1.731669000E-1,-5.521438122E-1,1.479362607E0,9.428318977E0
1.754051810E-1,-5.383850932E-1,1.459621787E0,9.461818695E0
1.776391290E-1,-5.437689424E-1,1.406979680E0,9.471389771E0
1.798738090E-1,-5.294120312E-1,1.430907965E0,9.485747337E0
1.821104420E-1,-5.341976285E-1,1.426122308E0,9.480961800E0
1.843475640E-1,-5.150550604E-1,1.415952802E0,9.480961800E0
1.865845020E-1,-5.485545993E-1,1.421336651E0,9.476176262E0
1.888206470E-1,-5.485545993E-1,1.397408366E0,9.461818695E0
1.910570370E-1,-5.629115105E-1,1.412363529E0,9.437891006E0
1.932940970E-1,-5.820540786E-1,1.417149186E0,9.433105469E0
1.955343930E-1,-5.718846321E-1,1.412363529E0,9.394820213E0
1.977817060E-1,-5.766702294E-1,1.403390527E0,9.385248184E0
2.000180350E-1,-5.808576941E-1,1.422533035E0,9.346963882E0
2.022546070E-1,-5.760720372E-1,1.408176184E0,9.323035240E0
2.044884940E-1,-5.952146053E-1,1.418345571E0,9.294321060E0
2.067250660E-1,-5.808576941E-1,1.413560033E0,9.294919968E0
2.089614550E-1,-5.760720372E-1,1.408774376E0,9.280562401E0
2.111986990E-1,-5.324030519E-1,1.427318692E0,9.261420250E0
2.134356990E-1,-5.515456200E-1,1.422533035E0,9.247062683E0
2.156682420E-1,-5.419743061E-1,1.446461320E0,9.261420250E0
2.178961480E-1,-5.276173949E-1,1.436291814E0,9.299705505E0
2.201442560E-1,-4.989035130E-1,1.450050473E0,9.290732384E0
2.223811330E-1,-4.797609448E-1,1.445264935E0,9.329017639E0
2.246205130E-1,-4.271188378E-1,1.458425403E0,9.343374252E0
2.268539730E-1,-3.888336718E-1,1.453041553E0,9.343972206E0
2.290910330E-1,-3.702892959E-1,1.419542074E0,9.334401131E0
2.313282770E-1,-3.320041299E-1,1.395015597E0,9.330213547E0
2.335637500E-1,-2.943171859E-1,1.360917926E0,9.330811501E0
2.358007500E-1,-2.470589429E-1,1.341177106E0,9.326624870E0
2.380378720E-1,-2.183450609E-1,1.311864972E0,9.331410408E0
2.402738940E-1,-1.663011760E-1,1.282552958E0,9.336793900E0
2.425099780E-1,-1.525424421E-1,1.253240824E0,9.355937004E0
2.447465510E-1,-1.040877849E-1,1.266999602E0,9.342177391E0
2.469836110E-1,-9.990034252E-2,1.266999602E0,9.390034676E0
2.492212210E-1,-9.990034252E-2,1.252642632E0,9.399605751E0
2.514565120E-1,-9.571290761E-2,1.266401410E0,9.446864128E0
2.536930840E-1,-1.244267747E-1,1.285543919E0,9.504291534E0
2.559293510E-1,-1.585244983E-1,1.286142230E0,9.565906525E0
2.581662280E-1,-1.633101404E-1,1.299900889E0,9.637093544E0
2.604028010E-1,-1.878365725E-1,1.314257860E0,9.708279610E0
2.626393730E-1,-2.362912297E-1,1.329213023E0,9.803394318E0
2.648761890E-1,-2.315055877E-1,1.381256819E0,9.884152412E0
2.671134940E-1,-2.464607358E-1,1.366899967E0,9.917651176E0
2.693490900E-1,-2.566302419E-1,1.385444283E0,1.001755238E1
2.715856620E-1,-2.470589429E-1,1.404586911E0,1.006062317E1
2.738219900E-1,-2.614158690E-1,1.395015597E0,1.008933640E1
2.760588070E-1,-2.572284341E-1,1.395015597E0,1.011326504E1
2.782953790E-1,-2.667997181E-1,1.390229940E0,1.013659477E1
2.805319510E-1,-2.811566591E-1,1.390229940E0,1.012223816E1
2.827657760E-1,-3.002992272E-1,1.376471281E0,1.010788059E1
2.849941090E-1,-3.050848842E-1,1.366899967E0,1.007916737E1
2.872416680E-1,-3.140579760E-1,1.372283816E0,1.001695347E1
2.894770800E-1,-3.230310678E-1,1.363310695E0,9.921838760E0
2.917129210E-1,-3.373879790E-1,1.354337573E0,9.869196892E0
2.939513850E-1,-3.361915946E-1,1.363908887E0,9.787840843E0
2.961879570E-1,-3.547359705E-1,1.359721422E0,9.707083702E0
2.984256890E-1,-3.690928817E-1,1.355534077E0,9.644869804E0
3.006581720E-1,-4.013960063E-1,1.361516118E0,9.553942680E0
3.028859550E-1,-4.013960063E-1,1.351944804E0,9.501300812E0
3.051343070E-1,-4.193421602E-1,1.386042476E0,9.443872452E0
3.073713670E-1,-4.139583111E-1,1.391426325E0,9.391828537E0
3.096086110E-1,-4.187439680E-1,1.386640668E0,9.343972206E0
3.118313890E-1,-3.894318938E-1,1.405185103E0,9.324830055E0
3.140770560E-1,-3.696911037E-1,1.429113269E0,9.296713829E0
3.163168020E-1,-3.361915946E-1,1.433898926E0,9.258428574E0
3.185568540E-1,-3.068794906E-1,1.462014675E0,9.268598557E0
3.207891530E-1,-2.488535494E-1,1.490130305E0,9.226125717E0
3.230151050E-1,-2.003988922E-1,1.513460279E0,9.207581520E0
3.252633960E-1,-1.962114573E-1,1.432104349E0,9.140582085E0
3.274997250E-1,-1.280160099E-1,1.469791293E0,9.089137077E0
3.297394710E-1,-8.374879509E-2,1.502692580E0,9.017950058E0
3.319731740E-1,-3.469592705E-2,1.545165181E0,8.937192917E0
3.342099300E-1,3.828516230E-2,1.568495274E0,8.846863747E0
3.364465630E-1,9.212367237E-2,1.601994753E0,8.752346992E0
3.386840510E-1,1.405783296E-1,1.625324726E0,8.700303078E0
3.409193410E-1,1.752742529E-1,1.672582984E0,8.676374435E0
3.431559750E-1,2.338984162E-1,1.705484390E0,8.591429710E0
3.453922420E-1,2.733799815E-1,1.753340840E0,8.534002304E0
3.476263110E-1,3.505485058E-1,1.771286964E0,8.482556343E0
3.498540950E-1,3.948157430E-1,1.823330879E0,8.458627701E0
3.521007990E-1,4.666004181E-1,1.841277003E0,8.455039024E0
3.543391410E-1,5.198407173E-1,1.859821439E0,8.431110382E0
3.565794360E-1,5.880361795E-1,1.902294040E0,8.384450912E0
3.588123460E-1,6.795616150E-1,1.905883193E0,8.332406998E0
3.610486140E-1,7.716853023E-1,1.942971945E0,8.280961037E0
3.632850640E-1,8.153542876E-1,1.961516380E0,8.228917122E0
3.655216970E-1,9.260223508E-1,1.979462504E0,8.206185341E0
3.677582690E-1,1.012163997E0,1.978266120E0,8.197212219E0
3.699947810E-1,1.079162955E0,1.953141451E0,8.188239098E0
3.722317190E-1,1.140778184E0,1.942373753E0,8.227122307E0
3.744692070E-1,1.216750264E0,1.936391711E0,8.280363083E0
3.767027280E-1,1.302293777E0,1.915454507E0,8.352746010E0
3.789341120E-1,1.372882009E0,1.908874273E0,8.472386360E0
3.811786800E-1,1.458425403E0,1.926222205E0,8.639883995E0
3.834145190E-1,1.548156261E0,1.933400750E0,8.769695282E0
3.856526790E-1,1.633101463E0,1.860419631E0,8.856434822E0
3.878871150E-1,1.746760488E0,1.834098577E0,8.919246674E0
3.901241750E-1,1.899302959E0,1.788634896E0,8.949754715E0
3.923615410E-1,1.984248161E0,1.696511269E0,8.983852386E0
3.945971370E-1,1.999203324E0,1.696511269E0,8.883952141E0
3.968307180E-1,1.908276081E0,1.698305845E0,8.854640007E0
3.990580740E-1,1.721635938E0,1.700698733E0,8.881559372E0
4.013039230E-1,1.573280931E0,1.727019787E0,8.884550095E0
4.035317680E-1,1.523031592E0,1.814357758E0,8.769695282E0
4.057832940E-1,1.534995675E0,1.896311998E0,8.569295883E0
4.080171190E-1,1.653440475E0,2.005783558E0,8.317451477E0
4.102572930E-1,1.791625977E0,2.143969059E0,8.051250458E0
4.124897150E-1,1.901097536E0,2.243869543E0,7.761718273E0
4.147236010E-1,2.009372711E0,2.301297188E0,7.500302792E0
4.169511410E-1,2.102692842E0,2.362912416E0,7.334001541E0
4.191996760E-1,2.170888424E0,2.419143677E0,7.258029461E0
4.214360040E-1,2.239083767E0,2.461616278E0,7.182655334E0
4.236757500E-1,2.146960020E0,2.489133835E0,6.766902447E0
4.259095760E-1,1.852642894E0,2.483749866E0,5.848656654E0
4.281467580E-1,1.813161373E0,2.571686029E0,5.533402443E0
4.303825370E-1,1.925025821E0,2.675773859E0,5.486742496E0
4.326191090E-1,2.040479422E0,2.697907448E0,5.487340450E0
4.348554990E-1,2.102692842E0,2.649452925E0,5.411966801E0
4.370921930E-1,2.150549412E0,2.592025042E0,5.292923450E0
4.393285210E-1,2.190629244E0,2.568695068E0,5.054837704E0
4.415652150E-1,2.225325108E0,2.526222467E0,4.835894585E0
4.438024590E-1,2.250449657E0,2.488535643E0,4.621737003E0
4.460395800E-1,2.317448616E0,2.407179594E0,4.456034184E0
4.482751150E-1,2.374876499E0,2.325225353E0,4.351347923E0
4.505116260E-1,2.478964329E0,2.218744755E0,4.314259052E0
4.527489310E-1,2.582453728E0,2.116451740E0,4.329812527E0
4.549845270E-1,2.642872572E0,2.009970903E0,4.392624378E0
4.572211600E-1,2.564507723E0,1.910668850E0,4.468596458E0
4.594561450E-1,2.408974171E0,1.845464468E0,4.576871395E0
4.616895440E-1,2.224726915E0,1.780260086E0,4.722833633E0
4.639294730E-1,2.116451740E0,1.704287887E0,4.955535889E0
4.661560360E-1,2.051845312E0,1.656431437E0,5.193621635E0
4.684056090E-1,2.015953064E0,1.688734531E0,5.574678421E0
4.706405330E-1,1.393819213E0,2.436491728E0,6.178267956E0
4.728803390E-1,1.349551916E0,2.338385820E0,6.821339130E0
4.751139820E-1,1.397408366E0,1.881356835E0,7.156334400E0
4.773504940E-1,1.304686546E0,1.311864972E0,7.561917782E0
4.795842580E-1,1.575673699E0,1.055234790E0,7.378866673E0
4.818113700E-1,1.861017823E0,8.129615188E-1,7.182057381E0
4.840530080E-1,2.362912416E0,6.526423693E-1,7.043871880E0
4.862971490E-1,2.885145903E0,5.832505226E-1,6.933801651E0
4.885359790E-1,3.489333630E0,5.365904570E-1,6.787241459E0
4.907715140E-1,4.133601189E0,6.281159520E-1,6.620940208E0
4.930062550E-1,4.881956577E0,8.237292171E-1,6.284150600E0
4.952431330E-1,5.220541000E0,7.710871100E-1,6.326025009E0
4.974800710E-1,5.120042324E0,4.486542344E-1,7.007380962E0
4.997175590E-1,5.175076962E0,3.565305769E-1,7.127022266E0
5.019529110E-1,5.145765305E0,1.998006850E-1,6.917052269E0
5.041896050E-1,5.057828903E0,1.555334684E-2,6.769295216E0
5.064254450E-1,4.966303349E0,-9.212367237E-2,6.625127792E0
5.086625660E-1,4.870590687E0,-1.435693651E-1,6.571887493E0
5.108960870E-1,4.827519894E0,-1.519442350E-1,6.509674072E0
5.131238090E-1,4.770689964E0,-1.411765367E-1,6.428318024E0
5.153725880E-1,4.728815556E0,-9.690931439E-2,6.355935097E0
5.176100760E-1,4.648656368E0,-6.161518395E-2,6.245865345E0
5.198484190E-1,4.582853794E0,-2.691925503E-2,6.163911343E0
5.220823050E-1,4.482953072E0,-2.512463741E-2,6.125027657E0
5.243194880E-1,4.406980991E0,-1.435693540E-2,6.067001820E0
5.265551440E-1,4.287340164E0,2.392822644E-3,6.032305717E0
5.287917170E-1,4.125226021E0,-8.973085321E-3,5.892923832E0
5.310279840E-1,4.035495281E0,-2.632104978E-2,5.739185333E0
5.332651660E-1,3.830909014E0,-8.853443712E-2,5.465805054E0
5.354997240E-1,3.712464333E0,-1.333998591E-1,5.154737949E0
5.377263480E-1,3.579662561E0,-2.303091735E-1,4.858027935E0
5.399748220E-1,3.485146284E0,-2.895315289E-1,4.580460548E0
5.422108450E-1,3.371487141E0,-3.391826153E-1,4.293920040E0
5.444506530E-1,3.150151014E0,-5.497509837E-1,4.006183147E0
5.466816700E-1,3.020340443E0,-7.519445419E-1,3.714258909E0
5.489105520E-1,2.915056229E0,-8.781659007E-1,3.498904943E0
5.511575000E-1,2.837289333E0,-9.822536707E-1,3.440878868E0
5.533952320E-1,2.778665304E0,-1.038485050E0,3.440878868E0
5.556331470E-1,2.792423964E0,-1.067797065E0,3.526422262E0
5.578672170E-1,2.872583628E0,-1.093519926E0,3.613162279E0
5.601004930E-1,3.043670416E0,-1.115653515E0,3.724428415E0
5.623286430E-1,3.539582968E0,-8.560323119E-1,3.919443607E0
5.645771780E-1,3.648456335E0,-7.591229677E-1,4.263411522E0
5.668136890E-1,3.544966698E0,-9.535398483E-1,4.262813568E0
5.690531920E-1,3.937389612E0,-9.690931439E-1,4.266402721E0
5.712875050E-1,4.208974838E0,-9.930213690E-1,4.426722050E0
5.735231010E-1,4.389633179E0,-1.072582722E0,4.494917393E0
5.757567430E-1,4.590032101E0,-1.090528965E0,4.563711166E0
5.779841000E-1,4.739583492E0,-1.039681435E0,4.526622295E0
5.802328790E-1,5.074578762E0,-6.789634228E-1,3.966701746E0
5.824695120E-1,5.070989609E0,-8.709874153E-1,4.091128349E0
5.847092590E-1,4.989035130E0,-8.650053740E-1,4.147359848E0
5.869429010E-1,4.848456860E0,-9.445667267E-1,4.222135544E0
5.891803890E-1,4.692923546E0,-1.076171994E0,4.264009953E0
5.914156790E-1,4.517649174E0,-1.255633712E0,4.305884361E0
5.936526780E-1,4.369294167E0,-1.441077471E0,4.519443989E0
5.958901060E-1,4.240081787E0,-1.660020709E0,4.742574692E0
5.981257010E-1,4.168296814E0,-1.861017823E0,4.999803066E0
6.003620290E-1,4.158725739E0,-2.081755638E0,5.171487808E0
6.025982360E-1,4.178466320E0,-2.283949137E0,5.338985443E0
6.048354180E-1,4.155136585E0,-2.494517565E0,5.477170944E0
6.070729670E-1,4.098905087E0,-2.675773859E0,5.558526993E0
6.093083180E-1,3.985844374E0,-2.851048231E0,5.609972477E0
6.115448910E-1,3.872783422E0,-3.031706333E0,5.690132141E0
6.137793270E-1,3.758526087E0,-3.245265722E0,5.761318684E0
6.160107110E-1,3.664607763E0,-3.449851990E0,5.794219971E0
6.182546070E-1,3.618546009E0,-3.668795347E0,5.760720730E0
6.204911800E-1,3.577269793E0,-3.897309780E0,5.684150219E0
6.227298880E-1,3.531806231E0,-4.135395527E0,5.608178139E0
6.249655450E-1,3.516252756E0,-4.301696777E0,5.450850010E0
6.272009570E-1,3.476173162E0,-4.458426952E0,5.322235584E0
6.294347830E-1,3.342175007E0,-4.560719967E0,5.134997368E0
6.316620170E-1,3.145963669E0,-4.619344234E0,4.995017052E0
6.339076220E-1,2.935993433E0,-4.634897232E0,4.868795872E0
6.361351620E-1,2.755335331E0,-4.616951466E0,4.728815556E0
6.383866880E-1,2.645863533E0,-4.610371113E0,4.656432629E0
6.406170950E-1,2.589034081E0,-4.609174728E0,4.589433670E0
6.428425590E-1,2.560918331E0,-4.607978344E0,4.508078098E0
6.450758960E-1,2.614158630E0,-4.622933388E0,4.441677094E0
6.473300470E-1,2.666202545E0,-4.661816597E0,4.389633179E0
6.495669240E-1,2.748156786E0,-4.686941147E0,4.338187218E0
6.517958680E-1,2.795415163E0,-4.744369030E0,4.290929317E0
6.540367730E-1,2.823530674E0,-4.773681164E0,4.291527271E0
6.562643730E-1,2.866003275E0,-4.826921463E0,4.301098824E0
6.585160820E-1,2.932404041E0,-4.852046013E0,4.306482315E0
6.607475880E-1,3.008974552E0,-4.881956577E0,4.298107624E0
6.629775080E-1,3.104089260E0,-4.921437740E0,4.313062668E0
6.652226860E-1,3.180659533E0,-4.913063049E0,4.318446636E0
6.674601740E-1,3.233899832E0,-4.885545731E0,4.338187218E0
6.696986380E-1,3.300898790E0,-4.843671322E0,4.372285366E0
6.719324030E-1,3.411566973E0,-4.802394867E0,4.425525665E0
6.741686090E-1,3.546163082E0,-4.761118889E0,4.445864677E0
6.764057910E-1,3.719044685E0,-4.707280159E0,4.518845558E0
6.786432790E-1,3.943969965E0,-4.677370071E0,4.592424870E0
6.808763120E-1,4.298107624E0,-4.640281200E0,4.686343193E0
6.831059260E-1,4.642673969E0,-4.603192329E0,4.837090969E0
6.853515310E-1,4.942973614E0,-4.594219685E0,5.006382942E0
6.875885920E-1,5.204389095E0,-4.608576298E0,5.218746185E0
6.898273000E-1,5.379663467E0,-4.660022259E0,5.377869129E0
6.920596610E-1,5.435894966E0,-4.741976261E0,5.445466042E0
6.942900080E-1,5.353342533E0,-4.855635166E0,5.373083115E0
6.965358570E-1,5.222933769E0,-4.981856823E0,5.271986485E0
6.987711480E-1,5.091926575E0,-5.151747227E0,5.118845940E0
7.010099170E-1,4.999803066E0,-5.302495003E0,4.993820667E0
7.032443540E-1,4.950151920E0,-5.516054630E0,4.846064091E0
7.054812310E-1,4.876572609E0,-5.734399319E0,4.698307037E0
7.077177420E-1,4.797609329E0,-5.938387394E0,4.573880672E0
7.099510790E-1,4.761716843E0,-6.152545452E0,4.473381996E0
7.121791680E-1,4.726422787E0,-6.337988853E0,4.383052826E0
7.144284350E-1,4.715056896E0,-6.485745907E0,4.325624943E0
7.166640920E-1,4.694119930E0,-6.633502483E0,4.321437836E0
7.189035330E-1,4.686941147E0,-6.772286415E0,4.311866283E0
7.211366880E-1,4.718048096E0,-6.935596466E0,4.326821327E0
7.233736870E-1,4.749752998E0,-7.065407276E0,4.369892120E0
7.256100760E-1,4.834099770E0,-7.200601578E0,4.342374802E0
7.278469540E-1,4.918447018E0,-7.331010342E0,4.353142738E0
7.300837700E-1,5.045864582E0,-7.476374149E0,4.339982033E0
7.323213190E-1,5.210969448E0,-7.650452137E0,4.308277130E0
7.345566090E-1,5.415555954E0,-7.792226791E0,4.277170658E0
7.367934260E-1,5.623731613E0,-7.962715626E0,4.298706055E0
7.390304250E-1,5.879763603E0,-8.096115112E0,4.368097782E0
7.412663260E-1,6.145366669E0,-8.225327492E0,4.489533424E0
7.435028980E-1,6.409773827E0,-8.411369324E0,4.611567497E0
7.457392270E-1,6.665207386E0,-8.597412109E0,4.709673405E0
7.479762870E-1,6.925426960E0,-8.769096375E0,4.802993298E0
7.502135920E-1,7.143173695E0,-8.906683922E0,4.867001057E0
7.524491870E-1,7.356733322E0,-9.020342827E0,4.931607246E0
7.546857600E-1,7.599604607E0,-9.110074043E0,4.957330227E0
7.569220880E-1,7.895716667E0,-9.129216194E0,5.032105923E0
7.591589040E-1,8.099704742E0,-9.238089561E0,5.086542606E0
7.613954770E-1,8.342576027E0,-9.366106033E0,5.065007210E0
7.636321100E-1,8.585447311E0,-9.470193863E0,5.043471813E0
7.658691090E-1,8.848658562E0,-9.526425362E0,4.979464054E0
7.681061700E-1,9.093324661E0,-9.548559189E0,4.881358147E0
7.703417050E-1,9.342776299E0,-9.533005714E0,4.835894585E0
7.725780330E-1,9.574281693E0,-9.468997002E0,4.766502857E0
7.748146660E-1,9.738788605E0,-9.433105469E0,4.682155609E0
7.770528250E-1,9.926624298E0,-9.425328255E0,4.536193371E0
7.792934870E-1,1.009113121E1,-9.394221306E0,4.408775806E0
7.815246270E-1,1.020299530E1,-9.342776299E0,4.290330887E0
7.837614430E-1,1.028016472E1,-9.343374252E0,4.176671982E0
7.859974660E-1,1.033340454E1,-9.381659508E0,4.067798615E0
7.882345880E-1,1.039621639E1,-9.406186104E0,3.934996843E0
7.904709160E-1,1.046321487E1,-9.468399048E0,3.844667673E0
7.927073050E-1,1.055892849E1,-9.531808853E0,3.778865099E0
7.949442440E-1,1.069771194E1,-9.547960281E0,3.718446493E0
7.971806330E-1,1.088614655E1,-9.512067795E0,3.629313707E0
7.994170830E-1,1.113619614E1,-9.496515274E0,3.527020693E0
8.016535330E-1,1.136291695E1,-9.442078590E0,3.461816072E0
8.038915700E-1,1.158485126E1,-9.378069878E0,3.344567776E0
8.061269220E-1,1.173500061E1,-9.308079720E0,3.269792080E0
8.083638600E-1,1.187557888E1,-9.238089561E0,3.161516905E0
8.106007380E-1,1.202273750E1,-9.100502968E0,2.995215654E0
8.128365780E-1,1.206281757E1,-9.000602722E0,2.933600664E0
8.150699760E-1,1.212203979E1,-8.919844627E0,2.881556749E0
8.172975760E-1,1.215793228E1,-8.819346428E0,2.781656265E0
8.195436690E-1,1.214477158E1,-8.742775917E0,2.752942562E0
8.217722460E-1,1.210229874E1,-8.736793518E0,2.685943365E0
8.240224910E-1,1.198205948E1,-8.821140289E0,2.641676188E0
8.262569260E-1,1.163210869E1,-9.285946846E0,2.963510752E0
8.284969160E-1,1.157408333E1,-9.437292099E0,2.767897606E0
8.307343420E-1,1.151665497E1,-9.597611427E0,2.505285263E0
8.329717680E-1,1.164168072E1,-9.708279610E0,2.206182480E0
8.352091940E-1,1.187258816E1,-9.796216011E0,1.955534339E0
8.374466200E-1,1.238824081E1,-9.999606133E0,1.774876237E0
8.396840460E-1,1.253839111E1,-9.924830437E0,1.728216171E0
8.419214720E-1,1.265982628E1,-9.826126099E0,1.734198213E0
8.441588980E-1,1.256112289E1,-9.686145782E0,1.713859200E0
8.463963240E-1,1.239063358E1,-9.573084831E0,1.692921996E0
8.486337500E-1,1.219143105E1,-9.455238342E0,1.624128342E0
8.508531180E-1,1.198265743E1,-9.399007797E0,1.508076429E0
8.530987230E-1,1.180678558E1,-9.338588715E0,1.434497118E0
8.553348080E-1,1.161655617E1,-9.306285858E0,1.275374413E0
8.575694270E-1,1.146580791E1,-9.264410973E0,1.045065284E0
8.598092950E-1,1.117208862E1,-9.355338097E0,1.023529887E0
8.620491630E-1,1.092981529E1,-9.529416084E0,1.088136077E0
8.642890310E-1,1.068873882E1,-9.654440880E0,1.019342422E0
8.665078420E-1,1.049731255E1,-9.784252167E0,8.225327730E-1
8.687533860E-1,1.037168980E1,-9.991828918E0,5.497509837E-1
8.709862960E-1,1.022273636E1,-1.015992451E1,2.865405083E-1
8.732114560E-1,1.015035343E1,-1.031127071E1,1.094716340E-1
8.754538870E-1,1.017906761E1,-1.040159988E1,-5.682953820E-2
8.776974780E-1,1.016411209E1,-1.047278690E1,-1.519442350E-1
8.799343550E-1,1.010189915E1,-1.047637558E1,-1.525424421E-1
8.821595150E-1,1.004447079E1,-1.045663452E1,-1.483550072E-1
8.843996270E-1,9.972686768E0,-1.043210888E1,-1.016949639E-1
8.866438290E-1,9.934999466E0,-1.035972595E1,-5.443671346E-2
8.888827810E-1,9.916455269E0,-1.031186962E1,-3.050848842E-2
8.911188040E-1,9.921838760E0,-1.025444126E1,-2.093719877E-2
8.933544610E-1,9.889535904E0,-1.016829967E1,2.632104978E-2
8.955900570E-1,9.890133858E0,-1.009172916E1,4.965107143E-2
8.978263850E-1,9.910472870E0,-1.003489971E1,4.007977992E-2
9.000627130E-1,9.964311600E0,-9.949356079E0,5.982056633E-2
9.022997730E-1,1.004626560E1,-9.879366875E0,1.034895778E-1
9.045363460E-1,1.012343407E1,-9.832706451E0,1.232303679E-1
9.067726740E-1,1.022453117E1,-9.801001549E0,1.190429255E-1
9.090064990E-1,1.027298546E1,-9.758528709E0,1.579262912E-1
9.112350760E-1,1.032562828E1,-9.721440315E0,1.866401732E-1
9.134826350E-1,1.034536839E1,-9.678967476E0,2.105683982E-1
9.157190240E-1,1.038843918E1,-9.655637741E0,2.488535494E-1
9.179585260E-1,1.039860916E1,-9.617352486E0,2.679961324E-1
9.201922910E-1,1.039860916E1,-9.589237213E0,3.254238665E-1
9.224287410E-1,1.037886810E1,-9.579665184E0,4.013960063E-1
9.246654960E-1,1.034536839E1,-9.550951958E0,4.630111754E-1
9.269023120E-1,1.028255749E1,-9.531210899E0,5.389832854E-1
9.291396780E-1,1.019641590E1,-9.467801094E0,6.382854581E-1
9.313752130E-1,1.014377308E1,-9.434301376E0,6.897311211E-1
9.336117240E-1,1.009531879E1,-9.424132347E0,7.752745152E-1
9.358478690E-1,1.004207802E1,-9.447462082E0,8.416753411E-1
9.380848690E-1,9.988240242E0,-9.494720459E0,8.793623447E-1
9.403211970E-1,9.862018585E0,-9.569496155E0,9.355936646E-1
9.425578910E-1,9.807581902E0,-9.678967476E0,9.876375198E-1
9.447948900E-1,9.734002113E0,-9.759725571E0,1.020538807E0
9.470302420E-1,9.674181938E0,-9.864411354E0,1.110867858E0
9.492597950E-1,9.605388641E0,-9.949356079E0,1.182054400E0
9.515046070E-1,9.550951958E0,-1.002592659E1,1.290927768E0
9.537416680E-1,9.477372169E0,-1.008275604E1,1.366899967E0
9.559794610E-1,9.437891006E0,-1.013958549E1,1.457229018E0
9.582137750E-1,9.402596474E0,-1.021615601E1,1.528415442E0
9.604501640E-1,9.371489525E0,-1.032144070E1,1.604387641E0
9.626846000E-1,9.355338097E0,-1.042193890E1,1.676172256E0
9.649104300E-1,9.352945328E0,-1.053200912E1,1.757528186E0
9.671487110E-1,9.383454323E0,-1.067677498E1,1.877169371E0
9.693944380E-1,9.423533440E0,-1.082094193E1,1.972882271E0
9.716261280E-1,9.458827972E0,-1.097049332E1,2.093121529E0
9.738688650E-1,9.489336014E0,-1.112483025E1,2.207977057E0
9.760871270E-1,9.519845009E0,-1.127378368E1,2.313261271E0
9.783310240E-1,9.512666702E0,-1.137009525E1,2.465803623E0
9.805681450E-1,9.463015556E0,-1.143230820E1,2.584846735E0
9.828217460E-1,9.417551994E0,-1.146580791E1,2.760719061E0
9.850558150E-1,9.363713264E0,-1.146580791E1,2.960519791E0
9.872922050E-1,9.290133476E0,-1.142273712E1,3.193820000E0
9.895228570E-1,9.236893654E0,-1.136590767E1,3.416950703E0
9.917519220E-1,9.198010445E0,-1.126600742E1,3.659822226E0
9.939992970E-1,9.125627518E0,-1.119422245E1,3.863810301E0
9.962358700E-1,9.087342262E0,-1.108475113E1,4.082753658E0
9.984753110E-1,9.062815666E0,-1.098963642E1,4.320839405E0
1.000706939E0,9.029315948E0,-1.087059307E1,4.534996986E0
1.002933562E0,9.000003815E0,-1.077069283E1,4.730011940E0
1.005182037E0,8.947361946E0,-1.069890785E1,4.891527653E0
1.007418182E0,8.889336586E0,-1.066062355E1,5.019543648E0
1.009658172E0,8.802596092E0,-1.063609695E1,5.147559643E0
1.011888518E0,8.700901031E0,-1.065404320E1,5.227719307E0
1.014116729E0,8.523832321E0,-1.070309544E1,5.097310543E0
1.016367156E0,8.450851440E0,-1.075513935E1,5.173282623E0
1.018602569E0,8.410771370E0,-1.083170986E1,5.273182869E0
1.020838164E0,8.414361000E0,-1.090289593E1,5.234897614E0
1.023062469E0,8.386244774E0,-1.097348499E1,5.048855782E0
1.025311981E0,8.344370842E0,-1.101954651E1,4.791028976E0
1.027547820E0,8.270193100E0,-1.105005455E1,4.480560303E0
1.029787384E0,8.157132149E0,-1.109492016E1,4.131806374E0
1.032020660E0,7.880761147E0,-1.120798111E1,3.699902058E0
1.034254668E0,7.174878597E0,-1.187438202E1,3.289532900E0
1.036483672E0,7.328617573E0,-1.175055408E1,2.885145903E0
1.038730865E0,7.259823799E0,-1.151246834E1,2.326421738E0
1.040964385E0,7.158727169E0,-1.120199966E1,1.733600020E0
1.043192779E0,7.336394310E0,-1.078624630E1,1.266999602E0
1.045428680E0,7.671987534E0,-1.039621639E1,6.927221417E-1
1.047677276E0,8.069794655E0,-9.984052658E0,2.428714931E-1
1.049916228E0,8.475378036E0,-9.653244972E0,-1.597209126E-1
1.052153350E0,8.793622971E0,-9.360123634E0,-5.048855543E-1
1.054387847E0,9.053842545E0,-9.104091644E0,-8.608179688E-1
1.056623260E0,9.198608398E0,-8.918049812E0,-1.207777262E0
1.058859832E0,9.270991325E0,-8.744570732E0,-1.617548108E0
1.061093169E0,9.294919968E0,-8.609375954E0,-1.965703845E0
1.063321258E0,9.308678627E0,-8.478966713E0,-2.261217356E0
1.065569549E0,9.364311218E0,-8.388039589E0,-2.466402054E0
1.067806121E0,9.453444481E0,-8.283951759E0,-2.594418049E0
1.070045867E0,9.555737495E0,-8.175078392E0,-2.645863533E0
1.072280242E0,9.657432556E0,-8.076375008E0,-2.597409010E0
1.074515899E0,9.735198975E0,-7.930412292E0,-2.429911375E0
1.076752654E0,9.778269768E0,-7.807780266E0,-2.210369825E0
1.078988188E0,9.821340561E0,-7.642077446E0,-1.929213285E0
1.081223357E0,9.855438232E0,-7.466803074E0,-1.680957913E0
1.083462066E0,9.821938515E0,-7.314858913E0,-1.376471281E0
1.085698699E0,9.713663101E0,-7.258029461E0,-9.631111026E-1
1.087936125E0,9.549157143E0,-7.180860519E0,-5.880361795E-1
1.090173125E0,9.413364410E0,-7.137191772E0,-3.122633696E-1
1.092408721E0,9.225527763E0,-7.125227451E0,-1.423729509E-1
1.094645537E0,9.075378418E0,-7.162316322E0,8.374879137E-3
1.096882476E0,8.928817749E0,-7.280162811E0,1.507478207E-1
1.099118133E0,8.737990379E0,-7.450053215E0,2.967100143E-1
1.101354888E0,8.519046783E0,-7.628916740E0,3.906283081E-1
1.103590972E0,8.337192535E0,-7.894520283E0,4.845465720E-1
1.105828155E0,8.136793137E0,-8.164310455E0,5.359922647E-1
1.108063140E0,7.931010723E0,-8.438887596E0,6.251249313E-1
1.110291228E0,7.715656757E0,-8.713463783E0,6.616154313E-1
1.112537566E0,7.453044415E0,-8.972486496E0,7.357929349E-1
1.114773834E0,7.244270325E0,-9.136993408E0,7.674978375E-1
1.117013152E0,7.058826923E0,-9.354740143E0,8.141579032E-1
1.119247283E0,6.864409924E0,-9.514460564E0,8.697910309E-1
1.121483916E0,6.698707104E0,-9.631709099E0,9.637092948E-1
1.123720977E0,6.506084919E0,-9.696315765E0,1.014556766E0
1.125958221E0,6.322435856E0,-9.760921478E0,1.079761267E0
1.128193572E0,6.191428661E0,-9.797411919E0,1.192822099E0
1.130430144E0,6.041877270E0,-9.838688850E0,1.296909928E0
1.132666656E0,5.902495384E0,-9.822537422E0,1.381256819E0
1.134903289E0,5.824130535E0,-9.832108498E0,1.566700578E0
1.137139922E0,5.732604980E0,-9.802198410E0,1.651645780E0
1.139376617E0,5.607579708E0,-9.744172096E0,1.850250125E0
1.141613250E0,5.661418438E0,-9.668199539E0,1.807777524E0
1.143850555E0,5.791228771E0,-9.627521515E0,1.856830359E0
1.146083098E0,5.830112457E0,-9.547362328E0,1.942971945E0
1.148310760E0,5.845665932E0,-9.428318977E0,2.028515339E0
1.150559051E0,5.927619934E0,-9.315258980E0,2.105085611E0
1.152795867E0,5.962316036E0,-9.192028046E0,2.224726915E0
1.155035491E0,6.039484501E0,-9.059824944E0,2.368296146E0
1.157268523E0,6.126822472E0,-8.913862228E0,2.526222467E0
1.159499968E0,6.199205399E0,-8.776873589E0,2.665006161E0
1.161731475E0,6.295516491E0,-8.687741280E0,2.808575630E0
1.163978912E0,6.406184196E0,-8.575278282E0,2.919243574E0
1.166213409E0,6.512066841E0,-8.491529465E0,3.049054146E0
1.168441192E0,6.631708145E0,-8.417949677E0,3.230908871E0
1.170674041E0,6.722036839E0,-8.338987350E0,3.455834150E0
1.172910674E0,6.721438885E0,-8.201997757E0,3.780061483E0
1.175149871E0,6.837490559E0,-8.108079910E0,3.814159393E0
1.177386992E0,6.918846607E0,-8.042875290E0,3.895515203E0
1.179624419E0,6.842276573E0,-7.984848976E0,3.990629911E0
1.181859588E0,6.803991318E0,-7.965108395E0,4.056432724E0
1.184096709E0,6.731608391E0,-7.959724426E0,4.151547432E0
1.186334258E0,6.625127792E0,-7.977670670E0,4.193421841E0
1.188571075E0,6.633502483E0,-8.092526436E0,4.165306091E0
1.190806365E0,6.583851337E0,-8.197212219E0,4.222135544E0
1.193043426E0,6.308676720E0,-8.175078392E0,4.539184570E0
1.195279998E0,6.032904148E0,-8.194221497E0,5.380261898E0
1.197519256E0,6.359524250E0,-8.341380119E0,5.050052166E0
1.199752105E0,6.993622303E0,-8.860024452E0,4.498506546E0
1.201988921E0,7.258627415E0,-9.314062119E0,4.654638290E0
1.204226104E0,7.514061451E0,-9.868000984E0,4.676771641E0
1.206464080E0,7.447062492E0,-1.030887794E1,5.106283665E0
1.208699859E0,7.208976269E0,-1.064686394E1,5.462215900E0
1.210936004E0,6.996015072E0,-1.077787113E1,5.555535793E0
1.213173614E0,6.705287457E0,-1.105543900E1,5.448457241E0
1.215409454E0,6.157928944E0,-1.125643635E1,5.248656273E0
1.217646087E0,5.270790100E0,-1.117866898E1,4.872983456E0
1.219881194E0,4.286741734E0,-1.089870930E1,4.372285366E0
1.222118438E0,3.644268990E0,-1.056610680E1,3.850649834E0
1.224354644E0,3.416950703E0,-1.029272652E1,3.424129248E0
1.226591521E0,3.698705673E0,-1.013300610E1,3.235694408E0
1.228828826E0,4.139583111E0,-1.013958549E1,3.182454109E0
1.231065825E0,4.408177376E0,-1.015274620E1,3.117847919E0
1.233305266E0,4.446462631E0,-1.008275604E1,3.290131092E0
1.235539275E0,4.484149456E0,-9.964909554E0,3.561716557E0
1.237776763E0,4.411766529E0,-9.865009308E0,3.827918053E0
1.240013030E0,4.396213531E0,-9.751350403E0,4.166502476E0
1.242248381E0,4.397409916E0,-9.608379364E0,4.295116425E0
1.244487396E0,4.438087940E0,-9.460622787E0,4.218546391E0
1.246720611E0,4.485345840E0,-9.278767586E0,4.028316975E0
1.248959258E0,4.596014023E0,-8.940781593E0,3.990629911E0
1.251194793E0,4.666004181E0,-8.807381630E0,3.900300980E0
1.253432281E0,4.697110653E0,-8.687741280E0,3.766901016E0
1.255667632E0,4.759324074E0,-8.514859200E0,3.514458179E0
1.257904448E0,4.876572609E0,-8.420342445E0,3.376870871E0
1.260142913E0,4.920241356E0,-8.402397156E0,3.391826153E0
1.262376800E0,5.047659397E0,-8.428717613E0,3.540779352E0
1.264613616E0,5.157131195E0,-8.459226608E0,3.622733593E0
1.266849456E0,5.337191105E0,-8.462815285E0,3.805784464E0
1.269088286E0,5.513661385E0,-8.466404915E0,3.902693748E0
1.271324370E0,5.556732178E0,-8.447860718E0,3.945764542E0
1.273561919E0,5.760720730E0,-8.461619377E0,4.200600147E0
1.275796661E0,5.956932068E0,-8.450851440E0,4.283152580E0
1.278033416E0,6.078367710E0,-8.290532112E0,4.317848682E0
1.280268585E0,6.108277798E0,-8.171489716E0,4.389034748E0
1.282505157E0,6.213562012E0,-8.102097511E0,4.547559261E0
1.284742949E0,6.375676155E0,-8.081758499E0,4.715655327E0
1.286982512E0,6.555137634E0,-8.146963120E0,4.860421181E0
1.289217193E0,6.545566559E0,-8.297112465E0,5.251647472E0
1.291452727E0,6.310471535E0,-8.401200294E0,5.693123341E0
1.293689544E0,5.996413708E0,-8.426324844E0,5.933601856E0
1.295925811E0,5.736792088E0,-8.451449394E0,6.022136211E0
1.298163115E0,5.469394207E0,-8.428119659E0,5.986244202E0
1.300400543E0,5.261219025E0,-8.389834404E0,5.736194134E0
1.302635772E0,5.000999451E0,-8.322237015E0,5.385645390E0
1.304874419E0,4.916054249E0,-8.296514511E0,5.265406132E0
1.307107939E0,4.874777794E0,-8.247461319E0,5.140979290E0
1.309344512E0,4.829912663E0,-8.197810173E0,4.873581409E0
1.311581329E0,5.173880577E0,-8.269595146E0,4.862215519E0
1.313819121E0,5.535196781E0,-8.464610100E0,5.490929604E0
1.316055632E0,5.568098068E0,-8.474779129E0,5.486144066E0
1.318292632E0,5.618945599E0,-8.379066467E0,5.300700188E0
1.320527923E0,5.750551224E0,-8.325826645E0,5.745167255E0
1.322765899E0,5.688337803E0,-7.977670670E0,5.143372059E0
1.325001251E0,5.750551224E0,-7.733603001E0,5.000401020E0
1.327237395E0,5.565705299E0,-7.297510624E0,4.359124660E0
1.329474029E0,5.635695457E0,-7.347161770E0,4.469194412E0
1.331709747E0,5.392824173E0,-7.233502865E0,4.471587181E0
1.333947234E0,5.521438122E0,-7.338188648E0,4.978267670E0
1.336183623E0,5.554937840E0,-7.463213921E0,5.999404430E0
1.338421843E0,5.483152866E0,-7.386045456E0,6.098706722E0
1.340658965E0,5.324030399E0,-7.281957626E0,5.873183250E0
1.342893035E0,5.303691387E0,-7.244270325E0,6.053841114E0
1.345132415E0,5.230112076E0,-6.937391281E0,5.041677475E0
1.347373504E0,5.352744102E0,-6.809374809E0,4.914259434E0
1.349604522E0,5.298307419E0,-6.702296257E0,4.713262558E0
1.351839690E0,5.499304771E0,-6.460621357E0,4.537988186E0
1.354076751E0,5.851647854E0,-6.629314899E0,5.709873199E0
1.356312591E0,5.889933109E0,-6.559325218E0,5.891129494E0
1.358550323E0,5.925825119E0,-6.449255466E0,5.767300606E0
1.360785185E0,6.168098450E0,-6.428318024E0,6.652047157E0
1.363022246E0,5.889933109E0,-6.274579048E0,6.391229153E0
1.365259124E0,5.987440586E0,-6.171089649E0,6.406782627E0
1.367496184E0,5.574678421E0,-6.122036934E0,6.521637917E0
1.369735565E0,4.859822750E0,-5.875576019E0,5.274977684E0
1.371983001E0,4.501497746E0,-6.037689686E0,4.294518471E0
1.374216888E0,3.686741590E0,-5.981458187E0,3.180659533E0
1.376445586E0,3.275176048E0,-6.068796635E0,1.746760488E0
1.378689910E0,3.226721287E0,-6.134599209E0,1.693520188E0
1.380923064E0,3.342773199E0,-6.206982136E0,1.447059512E0
1.383152068E0,3.909872293E0,-6.425925255E0,1.438086390E0
1.385399932E0,4.686343193E0,-6.794419765E0,1.941775560E0
1.387636504E0,5.359324455E0,-7.067800045E0,2.988037348E0
1.389876495E0,5.398806095E0,-7.058228493E0,2.826521635E0
1.392109832E0,5.400002480E0,-6.997809887E0,2.215753794E0
1.394344573E0,5.231308460E0,-6.962515831E0,2.428714991E0
1.396572478E0,4.989633560E0,-6.726822853E0,1.896910191E0
1.398819244E0,4.197608948E0,-6.277570248E0,4.677968323E-1
1.401055389E0,2.969492912E0,-5.781059742E0,-1.466202021E0
1.403295012E0,2.531606436E0,-5.827719688E0,-1.298106313E0
1.405529021E0,2.685943365E0,-6.171089649E0,9.780662656E-1
1.407765594E0,3.263211966E0,-6.382854462E0,3.344567776E0
1.410002227E0,3.463610888E0,-6.372684956E0,4.671986103E0
1.412239532E0,3.865006685E0,-6.213562012E0,5.104488850E0
1.414473602E0,4.837090969E0,-6.382854462E0,5.437689304E0
1.416711883E0,6.339185238E0,-6.900900364E0,5.972485542E0
1.418947845E0,7.944769382E0,-7.624131203E0,7.042077065E0
1.421185210E0,8.876175880E0,-8.136793137E0,8.248658180E0
1.423421600E0,9.241679192E0,-8.240283012E0,9.696913719E0
1.425658233E0,8.639286041E0,-7.803592682E0,1.037228775E1
1.427895049E0,7.392625332E0,-7.094120979E0,9.935597420E0
1.430132293E0,6.421139717E0,-6.577271461E0,8.967103004E0
1.432367889E0,6.203990936E0,-6.426523209E0,8.192426682E0
1.434604461E0,6.287739754E0,-6.519843578E0,8.322237015E0
1.436840789E0,6.360122681E0,-6.381059647E0,9.147162437E0
1.439077605E0,5.982655048E0,-6.175875187E0,9.424730301E0
1.441309600E0,5.162514687E0,-5.586044312E0,8.734400749E0
1.443532439E0,4.826323509E0,-5.107480049E0,6.742375851E0
1.445787566E0,5.005186558E0,-5.169693470E0,5.208576679E0
1.448024871E0,5.254040241E0,-5.490929604E0,4.615156651E0
1.450264984E0,4.966901779E0,-5.553143024E0,4.474578381E0
1.452497039E0,4.608576298E0,-5.275575638E0,3.617349625E0
1.454734283E0,4.287340164E0,-5.113461971E0,2.727219582E0
1.456969939E0,3.868596077E0,-5.059623718E0,1.883749604E0
1.459206878E0,3.366103172E0,-4.941776752E0,7.824530005E-1
1.461440398E0,3.037090063E0,-4.896911621E0,-4.749752879E-1
1.463665619E0,2.837289333E0,-4.894518852E0,-1.316052437E0
1.465906036E0,2.639881611E0,-4.946562767E0,-1.880758643E0
1.468153228E0,2.662015200E0,-5.146961689E0,-2.013560295E0
1.470392485E0,2.623729944E0,-5.215754986E0,-1.536790371E0
1.472628569E0,2.667997360E0,-5.227719307E0,-1.121635556E0
1.474862701E0,2.693720102E0,-5.111667156E0,-5.300102234E-1
1.477095489E0,2.685943365E0,-4.966303349E0,1.226321608E-1
1.479317595E0,2.891128063E0,-4.925625324E0,9.445667267E-1
1.481560821E0,3.071786165E0,-4.846662045E0,1.861616015E0
1.483810271E0,3.295515060E0,-4.777868748E0,2.745764017E0
1.486049468E0,3.914059639E0,-4.892724037E0,3.729214191E0
1.488285124E0,4.993222713E0,-5.125426292E0,4.955535889E0
1.490518218E0,6.169294834E0,-5.373083115E0,6.005984783E0
1.492755340E0,6.038886070E0,-5.193621635E0,5.900102615E0
1.494991912E0,5.259424210E0,-4.945964336E0,5.544169903E0
1.497228545E0,4.307080746E0,-4.700700283E0,5.263013363E0
1.499461944E0,3.595216036E0,-4.429712772E0,4.860421181E0
1.501689178E0,3.074777126E0,-4.247260094E0,4.387838364E0
1.503938201E0,2.735594511E0,-4.020540237E0,4.046263218E0
1.506171721E0,2.629712105E0,-3.954737663E0,3.668197155E0
1.508402252E0,2.665604353E0,-4.015156269E0,3.239283562E0
1.510647918E0,2.990430117E0,-4.214957237E0,3.013760090E0
1.512884490E0,3.461816072E0,-4.437489510E0,2.956332445E0
1.515124114E0,3.943371773E0,-4.597210407E0,2.933002472E0
1.517357879E0,4.309473515E0,-4.765904427E0,2.993421078E0
1.519592315E0,4.613361835E0,-4.871787071E0,3.187239647E0
1.521819366E0,4.817948341E0,-4.856831551E0,3.394218922E0
1.524067840E0,5.014159679E0,-4.855037212E0,3.410370588E0
1.526304595E0,5.529813290E0,-4.901697159E0,3.524627686E0
1.528543120E0,5.988636971E0,-4.880760193E0,3.748356581E0
1.530777007E0,6.737590313E0,-5.008177757E0,3.936791420E0
1.533010528E0,7.265805721E0,-5.112864017E0,4.204189301E0
1.535239165E0,7.606783390E0,-5.186442852E0,4.521836758E0
1.537488250E0,7.409973621E0,-5.174479008E0,4.567898273E0
1.539723357E0,7.406982422E0,-5.234897614E0,4.248456478E0
1.541962860E0,7.849056244E0,-5.155336380E0,4.247260094E0
1.544193938E0,7.926823139E0,-5.099104881E0,4.186243057E0
1.546420318E0,7.906484127E0,-5.180460930E0,4.229313850E0
1.548657684E0,7.606184959E0,-5.295914650E0,4.402793884E0
1.550906158E0,7.206583500E0,-5.386243820E0,4.504488468E0
1.553145537E0,6.818347931E0,-5.371288776E0,4.567300320E0
1.555380828E0,6.319444656E0,-5.411368370E0,4.515256405E0
1.557602019E0,5.926423550E0,-5.377270699E0,4.668995380E0
1.559837859E0,5.107480049E0,-5.233701229E0,4.222733974E0
1.562074248E0,4.193421841E0,-5.249254704E0,3.470191002E0
1.564317230E0,3.320639610E0,-5.371288776E0,2.732603550E0
1.566565460E0,2.737987280E0,-5.536991596E0,2.198405743E0
1.568801971E0,2.709273338E0,-5.645864964E0,2.050648928E0
1.571038543E0,2.926422119E0,-5.821139336E0,2.086541414E0
1.573270537E0,3.029911757E0,-5.985047817E0,2.030309916E0
1.575497222E0,3.243471146E0,-6.179464340E0,1.946561217E0
1.577745086E0,3.412763357E0,-6.373282909E0,2.010569334E0
1.579981353E0,3.651447296E0,-6.584449768E0,2.337189436E0
1.582221344E0,3.970889091E0,-6.716054916E0,2.903092146E0
1.584455047E0,4.133601189E0,-6.745367050E0,3.495913982E0
1.586691375E0,4.179663181E0,-6.662216663E0,3.863810301E0
1.588928252E0,4.065405846E0,-6.541378975E0,3.976871252E0
1.591165984E0,4.176671982E0,-6.413960934E0,4.049253941E0
1.593401336E0,4.258625984E0,-6.358327866E0,4.097110748E0
1.595637969E0,4.394418716E0,-6.269195557E0,4.064807415E0
1.597875091E0,4.371088982E0,-6.225526333E0,4.036093712E0
1.600110809E0,4.098307133E0,-6.211767673E0,4.028914928E0
1.602347686E0,3.562314749E0,-6.232106686E0,3.928416491E0
1.604583892E0,2.998206854E0,-6.270391941E0,3.689732552E0
1.606820830E0,2.521436930E0,-6.299703598E0,3.342175007E0
1.609058257E0,2.365903378E0,-6.272186279E0,3.087937593E0
1.611290679E0,2.267199516E0,-6.241079807E0,2.924627542E0
1.613518523E0,2.258824587E0,-6.226124287E0,2.810370207E0
1.615766570E0,2.258824587E0,-6.240481377E0,2.772084951E0
1.618003692E0,2.522035122E0,-6.253642082E0,2.784049034E0
1.620243133E0,2.798406124E0,-6.291927338E0,2.906083107E0
1.622476531E0,3.025125980E0,-6.401997089E0,3.136990547E0
1.624713408E0,3.279961586E0,-6.502495766E0,3.406781197E0
1.626951080E0,3.665804386E0,-6.528816700E0,3.667598963E0
1.629186248E0,3.984647989E0,-6.586842537E0,3.809373617E0
1.631422820E0,4.308277130E0,-6.664011002E0,3.917050600E0
1.633659027E0,4.613960266E0,-6.702894211E0,4.005585194E0
1.635895965E0,4.872385025E0,-6.692126751E0,4.022335052E0
1.638132598E0,5.012365341E0,-6.646663189E0,4.018745422E0
1.640368498E0,5.177470207E0,-6.538986206E0,3.953541279E0
1.642599639E0,5.304289818E0,-6.401997089E0,3.887738705E0
1.644831817E0,5.438287735E0,-6.135197163E0,3.769293785E0
1.647079009E0,5.608178139E0,-5.830112457E0,3.427120209E0
1.649316252E0,5.709274769E0,-5.807978630E0,3.456432343E0
1.651554717E0,5.668596745E0,-5.813362598E0,3.708875179E0
1.653789031E0,5.680561066E0,-5.750551224E0,3.537189960E0
1.656025420E0,5.737988472E0,-5.948556900E0,3.800400496E0
1.658261993E0,5.794219971E0,-6.035296917E0,3.753142357E0
1.660498748E0,5.938387394E0,-6.117849350E0,3.573680639E0
1.662736297E0,6.014957905E0,-6.228517532E0,3.426522017E0
1.664971587E0,6.195616245E0,-6.369095802E0,3.304488182E0
1.667208221E0,6.271588326E0,-6.442076683E0,3.229114056E0
1.669442534E0,6.281757832E0,-6.518048763E0,3.071786165E0
1.671669646E0,6.343971252E0,-6.744170666E0,3.220739365E0
1.673915007E0,6.208178520E0,-6.997211456E0,3.582055569E0
1.676142303E0,6.111867428E0,-7.053442955E0,3.547957659E0
1.678391265E0,6.102295876E0,-7.076773167E0,3.547957659E0
1.680615569E0,6.038886070E0,-7.104888439E0,3.571287870E0
1.682862823E0,6.017350674E0,-7.017550468E0,3.432504177E0
1.685100799E0,6.053841114E0,-6.883552551E0,3.323032379E0
1.687340117E0,6.093322754E0,-6.807580471E0,3.294916868E0
1.689572173E0,6.104688644E0,-6.688537598E0,3.280559778E0
1.691799041E0,6.047859192E0,-6.620940208E0,3.370290756E0
1.694044097E0,6.058028698E0,-6.549753666E0,3.394218922E0
1.696271941E0,6.010770321E0,-6.506084919E0,3.422334671E0
1.698524078E0,6.082555294E0,-6.497709751E0,3.466003656E0
1.700753814E0,6.166902065E0,-6.519245148E0,3.671786308E0
1.702984405E0,6.183651924E0,-6.422934055E0,3.514458179E0
1.705229705E0,6.255436420E0,-6.381658077E0,3.614956856E0
1.707466521E0,6.110072613E0,-6.267998695E0,3.394218922E0
1.709706085E0,5.969494343E0,-6.164509296E0,3.178266764E0
1.711939666E0,6.081358910E0,-5.994618893E0,3.307479143E0
1.714176543E0,5.842076302E0,-5.714658737E0,2.551347256E0
1.716414031E0,5.786443233E0,-5.611767292E0,3.141776085E0
1.718649383E0,5.739783287E0,-5.390431404E0,3.990031719E0
1.720885955E0,5.796014786E0,-5.200201988E0,5.106283665E0
1.723122222E0,6.001797199E0,-5.296513081E0,5.556134224E0
1.725359100E0,6.156732559E0,-5.499902725E0,5.553143024E0
1.727595672E0,6.375077724E0,-5.679962635E0,5.536393166E0
1.729832244E0,6.550950050E0,-5.792425632E0,5.471786976E0
1.732069060E0,6.686144829E0,-5.827121258E0,5.306084156E0
1.734306365E0,6.668796539E0,-5.782854080E0,5.148158073E0
1.736541961E0,6.427719593E0,-5.667998791E0,4.888536453E0
1.738778777E0,5.927619934E0,-5.625525951E0,4.631308079E0
1.741015899E0,5.398207664E0,-5.663811207E0,4.225724697E0
1.743251922E0,4.895116806E0,-5.937789440E0,3.158525944E0
1.745486297E0,4.470989227E0,-6.195616245E0,2.392224550E0
1.747716827E0,4.317250252E0,-6.397211552E0,2.062014818E0
1.749961883E0,4.282554150E0,-6.534798622E0,2.014158487E0
1.752199187E0,4.275375843E0,-6.631109715E0,2.118844509E0
1.754436492E0,4.369294167E0,-6.681358814E0,2.291725874E0
1.756671050E0,4.573282242E0,-6.680760860E0,2.541775942E0
1.758907379E0,4.746163845E0,-6.804589272E0,2.882154942E0
1.761144317E0,4.849653244E0,-6.994818687E0,3.360121250E0
1.763381072E0,4.804189682E0,-7.254439831E0,3.793820381E0
1.765617400E0,4.727619171E0,-7.521838188E0,3.888935089E0
1.767854278E0,4.665405750E0,-7.724629879E0,3.535993576E0
1.770091705E0,4.578666210E0,-7.880163193E0,3.278167009E0
1.772327117E0,4.594817638E0,-7.974081516E0,2.873181820E0
1.774564238E0,4.716253281E0,-7.917850018E0,2.773879766E0
1.776802215E0,4.942973614E0,-7.811369419E0,2.813959360E0
1.779037078E0,5.309075356E0,-7.668996811E0,2.816950560E0
1.781273467E0,5.612365723E0,-7.549355507E0,2.852842808E0
1.783509735E0,5.876772404E0,-7.485945702E0,2.831307411E0
1.785747039E0,6.088537216E0,-7.469794273E0,2.728415966E0
1.787984344E0,6.227321148E0,-7.509873867E0,2.682354212E0
1.790219695E0,6.309873104E0,-7.567301750E0,2.458625317E0
1.792456451E0,6.382854462E0,-7.600800991E0,2.259422779E0
1.794692596E0,6.416952133E0,-7.591229916E0,2.145165443E0
1.796929717E0,6.451648235E0,-7.553543091E0,2.112264156E0
1.799166167E0,6.552744865E0,-7.506882668E0,2.108076811E0
1.801402618E0,6.677769661E0,-7.475776196E0,2.142772675E0
1.803639617E0,6.751348972E0,-7.347760201E0,2.109871387E0
1.805876922E0,6.797410965E0,-7.185646534E0,2.071586132E0
1.808112579E0,6.851847649E0,-7.057032108E0,2.072184324E0
1.810349273E0,6.844070911E0,-6.918248653E0,2.095514536E0
1.812586516E0,6.856035233E0,-6.765706062E0,2.076371908E0
1.814823699E0,6.856633186E0,-6.693921566E0,2.123630047E0
1.817058746E0,6.865606308E0,-6.675975323E0,2.266601324E0
1.819294952E0,6.811169624E0,-6.728019238E0,2.390429735E0
1.821531829E0,6.641877651E0,-6.764509678E0,2.508276224E0
1.823769500E0,6.464210510E0,-6.766304016E0,2.520838737E0
1.826005096E0,6.286543369E0,-6.783053875E0,2.542972326E0
1.828241424E0,6.110072613E0,-6.770491600E0,2.465205431E0
1.830477996E0,5.948556900E0,-6.729215622E0,2.373081923E0
1.832714812E0,5.810969830E0,-6.693323135E0,2.304886341E0
1.834951446E0,5.601597786E0,-6.608976364E0,2.260020971E0
1.837187957E0,5.478367329E0,-6.549155712E0,2.196611166E0
1.839423613E0,5.364708424E0,-6.470790863E0,2.138585329E0
1.841655058E0,5.283352375E0,-6.440880299E0,2.199602127E0
1.843885405E0,5.322834015E0,-6.364908218E0,2.199602127E0
1.846123199E0,5.386243820E0,-6.294320107E0,2.228914261E0
1.848371428E0,5.477769375E0,-6.229115486E0,2.224726915E0
1.850609465E0,5.482554913E0,-6.200401783E0,2.286940336E0
1.852846465E0,5.434698582E0,-6.214160442E0,2.310270309E0
1.855080596E0,5.302495003E0,-6.294320107E0,2.456830740E0
1.857317412E0,5.263013363E0,-6.337390900E0,2.566302299E0
1.859551726E0,5.315655708E0,-6.352345943E0,2.499901533E0
1.861778289E0,5.377869129E0,-6.348756790E0,2.543570518E0
1.864026824E0,5.510670662E0,-6.379863262E0,2.639881611E0
1.866263091E0,5.653043270E0,-6.449255466E0,2.722434044E0
1.868502716E0,5.809773445E0,-6.542575359E0,2.748156786E0
1.870736480E0,5.946762562E0,-6.616752625E0,2.792423964E0
1.872972869E0,5.985645771E0,-6.776473522E0,3.050250769E0
1.875209990E0,6.038886070E0,-6.974479675E0,3.279961586E0
1.877444426E0,6.194419384E0,-7.115656376E0,3.334398270E0
1.879671661E0,6.364908218E0,-7.208976269E0,3.369692564E0
1.881919707E0,6.326025009E0,-7.415955544E0,3.722633839E0
1.884156951E0,6.463014126E0,-7.532605648E0,3.695116282E0
1.886395354E0,6.582056999E0,-7.615158081E0,3.629911900E0
1.888626128E0,6.598806858E0,-7.731209755E0,3.768097401E0
1.890853484E0,6.552146435E0,-7.907680511E0,3.887140274E0
1.893102752E0,6.558128834E0,-8.118846893E0,3.973880291E0
1.895339751E0,6.515058041E0,-8.405387878E0,4.030709743E0
1.897578155E0,6.446862221E0,-8.595019341E0,3.835096598E0
1.899811919E0,6.300302029E0,-8.774480820E0,3.896113396E0
1.902048309E0,6.153741837E0,-8.939585686E0,3.899702787E0
1.904285186E0,6.002395630E0,-9.110074043E0,3.955934048E0
1.906521514E0,5.940182209E0,-9.165707588E0,3.817150354E0
1.908757537E0,5.868995667E0,-9.197412491E0,3.697509289E0
1.910995147E0,5.760122299E0,-9.147761345E0,3.595814228E0
1.913232574E0,5.694917679E0,-9.088538170E0,3.495315790E0
1.915467986E0,5.584249973E0,-9.172885895E0,3.408575773E0
1.917704803E0,5.337789059E0,-9.350552559E0,3.358924866E0
1.919940826E0,5.187041283E0,-9.482157707E0,3.396013498E0
1.922177825E0,5.182255745E0,-9.491728783E0,3.405584812E0
1.924414458E0,5.210969448E0,-9.468399048E0,3.429512978E0
1.926650848E0,5.303691387E0,-9.393025398E0,3.368496180E0
1.928887664E0,5.393422127E0,-9.254839897E0,3.135195971E0
1.931124969E0,5.469394207E0,-9.125029564E0,2.863610506E0
1.933360809E0,5.457430363E0,-8.995817184E0,2.787040234E0
1.935597198E0,5.426921844E0,-8.860622406E0,2.648256540E0
1.937833709E0,5.401198864E0,-8.730213165E0,2.542972326E0
1.940067290E0,5.428118229E0,-8.577671051E0,2.462214470E0
1.942295196E0,5.512465000E0,-8.429914474E0,2.367099762E0
1.944540679E0,5.577071190E0,-8.296514511E0,2.291127682E0
1.946768584E0,5.595017433E0,-8.114660263E0,2.181656122E0
1.949020659E0,5.615954876E0,-7.981259823E0,2.152942181E0
1.951252837E0,5.642873764E0,-7.837092400E0,2.033301115E0
1.953492950E0,5.712863922E0,-7.708477974E0,1.905285001E0
1.955727203E0,5.710471153E0,-7.593622684E0,1.814357758E0
1.957962920E0,5.732006550E0,-7.483552933E0,1.766501307E0
1.960196563E0,5.790630817E0,-7.407580853E0,1.752742529E0
1.962421355E0,5.888138294E0,-7.323233604E0,1.701296926E0
1.964661407E0,5.994020939E0,-7.271788120E0,1.692323804E0
1.966910369E0,6.033502102E0,-7.234101295E0,1.649851203E0
1.969148590E0,5.986842155E0,-7.171289444E0,1.620539188E0
1.971386504E0,5.934200287E0,-7.127620220E0,1.663011789E0
1.973623931E0,5.895915031E0,-7.098308563E0,1.724626899E0
1.975855498E0,5.900700569E0,-7.036693096E0,1.786840320E0
1.978092254E0,5.940182209E0,-6.979863644E0,1.805982947E0
1.980327239E0,5.907280922E0,-6.903293133E0,1.834098577E0
1.982565459E0,5.884549141E0,-6.826124668E0,1.857428551E0
1.984802886E0,5.859424591E0,-6.836294174E0,1.976471543E0
1.987038299E0,5.848656654E0,-6.869793892E0,2.038684845E0
1.989274871E0,5.813961029E0,-6.893123627E0,2.114656925E0
1.991511138E0,5.788836002E0,-6.950551510E0,2.171486616E0
1.993748016E0,5.787639618E0,-7.003791809E0,2.224128723E0
1.995984649E0,5.752345562E0,-7.070192814E0,2.324028969E0
1.998221404E0,5.717649937E0,-7.122834682E0,2.380858421E0
2.000458037E0,5.764309883E0,-7.171887875E0,2.443670034E0
2.002695586E0,5.801996708E0,-7.229913712E0,2.472383976E0
2.004931182E0,5.815755367E0,-7.258627415E0,2.492124796E0
2.007155914E0,5.781059742E0,-7.292127132E0,2.539382935E0
2.009394988E0,5.735595703E0,-7.392027378E0,2.672782898E0
2.011642302E0,5.656632900E0,-7.506284714E0,2.738585472E0
2.013881559E0,5.553143024E0,-7.667799950E0,2.795415163E0
2.016120816E0,5.498706341E0,-7.795815945E0,2.809173822E0
2.018360073E0,5.438885689E0,-7.905287743E0,2.866003275E0
2.020579009E0,5.349154949E0,-8.095517159E0,2.956332445E0
2.022814788E0,5.198407173E0,-8.256434441E0,2.998206854E0
2.025051421E0,5.047659397E0,-8.392227173E0,2.977867842E0
2.027292327E0,4.845465660E0,-8.480163574E0,2.942573547E0
2.029546905E0,4.691727161E0,-8.563912392E0,2.894119024E0
2.031758513E0,4.547559261E0,-8.627920151E0,2.835494757E0
2.033998382E0,4.412963390E0,-8.721240044E0,2.720041037E0
2.036232146E0,4.311268330E0,-8.819944382E0,2.657229662E0
2.038470427E0,4.214358807E0,-8.918647766E0,2.608774900E0
2.040705658E0,4.191627026E0,-8.898907661E0,2.532204628E0
2.042939239E0,4.181457520E0,-8.908478737E0,2.565704107E0
2.045177520E0,4.098905087E0,-8.983852386E0,2.583650351E0
2.047415130E0,3.702893019E0,-9.150154114E0,2.666202545E0
2.049651153E0,3.218346357E0,-9.382855415E0,2.891128063E0
2.051887786E0,2.947359324E0,-9.498908043E0,3.026920557E0
2.054125396E0,3.329014540E0,-9.337391853E0,2.949153900E0
2.056360442E0,4.097110748E0,-8.960522652E0,2.793620348E0
2.058592986E0,4.807778835E0,-8.602795601E0,2.709273338E0
2.060833282E0,5.122435093E0,-8.353941917E0,2.730808735E0
2.063070220E0,5.099104881E0,-8.254041672E0,2.801397085E0
2.065309600E0,4.907081127E0,-8.241478920E0,2.885744095E0
2.067543487E0,4.850251675E0,-8.207381248E0,2.832503796E0
2.069780303E0,4.996811867E0,-8.108079910E0,2.690729141E0
2.072016509E0,5.177470207E0,-7.990232944E0,2.492124796E0
2.074254607E0,5.265406132E0,-7.919644833E0,2.368894339E0
2.076489959E0,5.246861935E0,-7.895118237E0,2.330609322E0
2.078727569E0,5.267200947E0,-7.861618996E0,2.273181438E0
2.080962737E0,5.287539959E0,-7.804191113E0,2.244467735E0
2.083199798E0,5.303691387E0,-7.708477974E0,2.197209358E0
2.085437408E0,5.304887772E0,-7.665407181E0,2.101496458E0
2.087673614E0,5.363512039E0,-7.636693478E0,2.002194405E0
2.089910003E0,5.359922886E0,-7.612765312E0,1.930409670E0
2.092147002E0,5.380261898E0,-7.569694519E0,1.864008784E0
2.094382720E0,5.434100151E0,-7.512865067E0,1.811366796E0
2.096618926E0,5.496912003E0,-7.470392227E0,1.779063582E0
2.098857085E0,5.517251015E0,-7.436892986E0,1.740778446E0
2.101093108E0,5.555535793E0,-7.427919865E0,1.755733609E0
2.103329009E0,5.541179180E0,-7.432705402E0,1.750349760E0
2.105565887E0,5.540580750E0,-7.485347271E0,1.717448473E0
2.107804656E0,5.514857769E0,-7.599604607E0,1.698305845E0
2.110040618E0,5.513661385E0,-7.676175117E0,1.746162295E0
2.112275908E0,5.478367329E0,-7.766504288E0,1.783849239E0
2.114512542E0,5.487340450E0,-7.828717709E0,1.779063582E0
2.116748504E0,5.486742496E0,-7.853243828E0,1.798206210E0
2.118987945E0,5.511268616E0,-7.795815945E0,1.813161373E0
2.121222320E0,5.554937840E0,-7.749155998E0,1.813161373E0
2.123458099E0,5.647061348E0,-7.673782349E0,1.808973908E0
2.125693633E0,5.711069584E0,-7.588837147E0,1.795215130E0
2.127932769E0,5.803193092E0,-7.508677483E0,1.814955950E0
2.130170562E0,5.894120216E0,-7.500302792E0,1.820937991E0
2.132404876E0,5.938387394E0,-7.424330235E0,1.801795483E0
2.134642547E0,6.005386829E0,-7.397411346E0,1.859821439E0
2.136878325E0,6.072983742E0,-7.359724045E0,1.836491346E0
2.139119659E0,6.111867428E0,-7.345965385E0,1.789233088E0
2.141350921E0,6.135795593E0,-7.341778278E0,1.803590059E0
2.143589995E0,6.199205399E0,-7.304090977E0,1.785045743E0
2.145824980E0,6.242874146E0,-7.266404152E0,1.771286964E0
2.148063628E0,6.242874146E0,-7.247261524E0,1.775474429E0
2.150298492E0,6.297310829E0,-7.152745247E0,1.771286964E0
2.152535003E0,6.369693756E0,-7.091728210E0,1.810170293E0
2.154774138E0,6.499504566E0,-7.007979393E0,1.863410592E0
2.157012542E0,6.571887493E0,-6.951747894E0,1.887937069E0
2.159243804E0,6.619743824E0,-6.933801651E0,1.974078655E0
2.161473114E0,6.638886452E0,-6.886543751E0,2.012363911E0
2.163717315E0,6.610172749E0,-6.866802692E0,2.045265198E0
2.165960784E0,6.533003807E0,-6.923034191E0,2.021337032E0
2.168194304E0,6.431907177E0,-7.002595425E0,1.996212244E0
2.170431975E0,6.373282909E0,-7.106683254E0,1.910070658E0
2.172661590E0,6.328417778E0,-7.234699249E0,1.910070658E0
2.174900176E0,6.273382664E0,-7.387241840E0,1.947757602E0
2.177139617E0,6.203392506E0,-7.567899704E0,1.942971945E0
2.179373992E0,6.056832314E0,-7.733603001E0,1.994417667E0
2.181613006E0,5.925825119E0,-7.869993687E0,1.983649969E0
2.183846099E0,5.779862881E0,-8.002197266E0,2.011167526E0
2.186085479E0,5.678168297E0,-8.081758499E0,2.015354872E0
2.188322234E0,5.657829285E0,-8.134400368E0,2.057827473E0
2.190561309E0,5.680561066E0,-8.178069115E0,2.134397745E0
2.192793670E0,5.727818966E0,-8.179265976E0,2.216351986E0
2.195029083E0,5.790032387E0,-8.161319733E0,2.273779631E0
2.197266754E0,5.861218929E0,-8.152944565E0,2.331805706E0
2.199504425E0,5.948556900E0,-8.125427246E0,2.284547329E0
2.201738189E0,5.992226124E0,-8.097311974E0,2.266003132E0
2.203977264E0,6.059823513E0,-8.083553314E0,2.218744755E0
2.206212859E0,6.118447304E0,-8.041080475E0,2.138585329E0
2.208448394E0,6.182455540E0,-7.969893932E0,2.033899307E0
2.210683319E0,6.193223000E0,-7.926823139E0,2.005185366E0
2.212922393E0,6.251249313E0,-7.917850018E0,1.957927108E0
2.215163177E0,6.343372822E0,-7.832904816E0,1.920838356E0
2.217396636E0,6.363113403E0,-7.800003529E0,1.935195327E0
2.219635589E0,6.435496330E0,-7.777271748E0,1.911865234E0
2.221866667E0,6.488736629E0,-7.725227833E0,1.936391711E0
2.224106475E0,6.518048763E0,-7.654041290E0,1.965105653E0
2.226340423E0,6.595217228E0,-7.612765312E0,2.008774519E0
2.228576629E0,6.620342255E0,-7.555337429E0,1.970489502E0
2.230813811E0,6.689135551E0,-7.465606689E0,1.932802439E0
2.233053435E0,6.762714863E0,-7.389634609E0,1.843071699E0
2.235290618E0,6.821937561E0,-7.322635651E0,1.704886079E0
2.237529144E0,6.867999077E0,-7.217351437E0,1.571486235E0
2.239759185E0,6.869793892E0,-7.183253765E0,1.423729420E0
2.241998748E0,6.942176819E0,-7.188637257E0,1.281356573E0
2.244236052E0,6.977470875E0,-7.192824841E0,1.095912814E0
2.246472686E0,7.020541668E0,-7.250252724E0,9.577272534E-1
2.248713653E0,7.059424877E0,-7.288537979E0,8.727820516E-1
2.250944487E0,7.029514790E0,-7.350152969E0,8.530412912E-1
2.253186492E0,6.991229534E0,-7.378268719E0,8.291130662E-1
2.255415923E0,6.898507595E0,-7.449455261E0,9.188438654E-1
2.257651763E0,6.878168583E0,-7.530212879E0,9.044869542E-1
2.259887176E0,6.775875568E0,-7.605587006E0,9.804590940E-1
2.262125396E0,6.798607349E0,-7.667799950E0,9.900303483E-1
2.264364044E0,6.754938126E0,-7.738986492E0,9.756734371E-1
2.266602813E0,6.861418724E0,-7.706683636E0,9.098708034E-1
2.268837859E0,6.899703979E0,-7.702496052E0,9.002995491E-1
2.271077850E0,6.938587666E0,-7.669594765E0,8.961120844E-1
2.273309966E0,7.020541668E0,-7.632505894E0,8.775677085E-1
2.275551360E0,7.078567505E0,-7.566703320E0,9.158528447E-1
2.277780913E0,7.088737011E0,-7.524230957E0,9.780662656E-1
2.280018951E0,7.118049145E0,-7.424330235E0,1.054636598E0
2.282253936E0,7.113861561E0,-7.343572617E0,1.130608678E0
2.284493804E0,7.108478069E0,-7.315456867E0,1.220937729E0
2.286735564E0,7.070790768E0,-7.243073940E0,1.306481123E0
2.288968536E0,6.984649181E0,-7.185048103E0,1.396211982E0
2.291206878E0,6.830910206E0,-7.164111137E0,1.485344648E0
2.293437347E0,6.622735023E0,-7.257431030E0,1.621735573E0
2.295674346E0,6.400202274E0,-7.368697166E0,1.663011789E0
2.297911955E0,6.224927902E0,-7.557730198E0,1.695314884E0
2.300157256E0,6.039484501E0,-7.784450054E0,1.683948994E0
2.302384429E0,5.869594097E0,-7.982456207E0,1.635494232E0
2.304621855E0,5.695516109E0,-8.151150703E0,1.533799291E0
2.306858062E0,5.511867046E0,-8.286943436E0,1.484746456E0
2.309096099E0,5.358726501E0,-8.341380119E0,1.363908887E0
2.311336882E0,5.137988567E0,-8.414361000E0,1.266999602E0
2.313569122E0,4.969892502E0,-8.473583221E0,1.222732425E0
2.315806182E0,4.782654285E0,-8.513663292E0,1.153938770E0
2.318041106E0,4.700700283E0,-8.569295883E0,1.106082320E0
2.320279021E0,4.604987144E0,-8.587242126E0,1.080957651E0
2.322517913E0,4.614558697E0,-8.587242126E0,1.066600680E0
2.324749176E0,4.663012981E0,-8.544769287E0,1.119840980E0
2.326986663E0,4.759922504E0,-8.460422516E0,1.110867858E0
2.329225188E0,4.948357105E0,-8.348558426E0,1.098305583E0
2.331461516E0,4.988437176E0,-8.239086151E0,1.069591761E0
2.333697356E0,5.014758110E0,-8.119445801E0,1.017547846E0
2.335935210E0,5.146363258E0,-7.982456207E0,9.942178130E-1
2.338168914E0,5.262415409E0,-7.826922894E0,1.100100160E0
2.340407012E0,5.383851051E0,-7.690532207E0,1.182054400E0
2.342643524E0,5.440680504E0,-7.672585964E0,1.263410330E0
2.344880706E0,5.438885689E0,-7.721040249E0,1.383051515E0
2.347116851E0,5.193023205E0,-8.105088234E0,1.500299811E0
2.349352996E0,5.682355404E0,-7.730013371E0,1.528415442E0
2.351591033E0,5.733202934E0,-7.473383427E0,1.642672777E0
2.353826262E0,5.895316601E0,-7.165307522E0,1.695913076E0
2.356065826E0,6.086144447E0,-6.838686943E0,1.788036704E0
2.358299346E0,5.924030781E0,-6.740581512E0,1.814955950E0
2.360535613E0,5.627918720E0,-7.003791809E0,1.826920033E0
2.362771148E0,5.483152866E0,-7.106683254E0,1.782652855E0
2.365012664E0,5.368297577E0,-7.119245529E0,1.762912035E0
2.367245818E0,5.276772022E0,-7.137191772E0,1.747358680E0
2.369481231E0,5.141577721E0,-7.244868755E0,1.746760488E0
2.371716277E0,5.140381336E0,-7.326224804E0,1.737189293E0
2.373953643E0,5.154139996E0,-7.388438225E0,1.699502230E0
2.376190887E0,5.243870735E0,-7.447062492E0,1.704886079E0
2.378428740E0,5.191228867E0,-7.470392227E0,1.709073544E0
2.380665008E0,5.162514687E0,-7.479365349E0,1.661217093E0
2.382900969E0,4.945366383E0,-7.595417500E0,1.649851203E0
2.385139800E0,4.235894203E0,-8.453842163E0,1.349551916E0
2.387376251E0,4.913661480E0,-8.465208054E0,1.655833244E0
2.389610625E0,4.667798996E0,-8.155936241E0,1.801197290E0
2.391846466E0,5.035097122E0,-7.706683636E0,1.588834286E0
2.394083587E0,5.179264545E0,-7.378866673E0,1.590030670E0
2.396321258E0,5.431707382E0,-7.052844524E0,1.715653777E0
2.398556975E0,5.548955917E0,-6.845267296E0,1.849651933E0
2.400793548E0,5.495715618E0,-6.854240417E0,1.887338877E0
2.403029693E0,5.317450047E0,-6.999006271E0,1.767099500E0
2.405267486E0,5.099703312E0,-7.238288403E0,1.550549030E0
2.407503692E0,5.002793789E0,-7.446464062E0,1.302293777E0
2.409742157E0,5.045266628E0,-7.570890903E0,1.179063320E0
2.411990691E0,5.230710506E0,-7.659425259E0,1.185643673E0
2.414227995E0,5.483152866E0,-7.701898098E0,1.292722464E0
2.416463896E0,5.751149178E0,-7.654041290E0,1.399801254E0
2.418697539E0,5.914459229E0,-7.570890903E0,1.520638824E0
2.420934051E0,6.092724800E0,-7.469195843E0,1.612762451E0
2.423170623E0,6.189633846E0,-7.336992264E0,1.675574064E0
2.425404326E0,6.248856544E0,-7.222734928E0,1.670788407E0
2.427629180E0,6.255436420E0,-7.150950432E0,1.622931957E0
2.429868438E0,6.232704639E0,-7.112067223E0,1.503889084E0
2.432118133E0,6.214160442E0,-7.153941631E0,1.360319614E0
2.434356353E0,6.150750637E0,-7.300501823E0,1.245464206E0
2.436593170E0,6.016154289E0,-7.714460373E0,1.116251707E0
2.438826568E0,5.915057659E0,-7.836493969E0,9.918249846E-1
2.441063201E0,5.683551788E0,-8.266604424E0,1.629512191E0
2.443299834E0,5.891129494E0,-8.222934723E0,8.967102766E-1
2.445536529E0,6.428916454E0,-7.999804497E0,5.437689424E-1
2.447773223E0,6.882954121E0,-7.715058327E0,5.377869010E-1
2.450010711E0,7.268796921E0,-7.363911629E0,8.697910309E-1
2.452246001E0,7.275975227E0,-7.006783009E0,1.212562919E0
2.454482696E0,7.124629498E0,-6.733402729E0,1.463809252E0
2.456719207E0,6.888338089E0,-6.471987247E0,1.589432478E0
2.458953154E0,6.598208427E0,-6.295516491E0,1.629512191E0
2.461177947E0,6.086144447E0,-6.649055958E0,2.126022816E0
2.463417205E0,5.988636971E0,-6.932605267E0,1.825125456E0
2.465665923E0,6.128018856E0,-7.214360237E0,1.255035520E0
2.467905975E0,6.386443615E0,-7.422535896E0,9.140582681E-1
2.470141815E0,6.708278179E0,-7.473981380E0,6.646065116E-1
2.472375152E0,7.016354084E0,-7.458428383E0,5.246263742E-1
2.474608550E0,7.195217609E0,-7.370491982E0,4.827519655E-1
2.476836394E0,7.268198967E0,-7.275975227E0,4.977070987E-1
2.479085235E0,7.188039303E0,-7.188637257E0,5.018945336E-1
2.481321807E0,7.116852760E0,-7.158727169E0,4.821537733E-1
2.483561553E0,7.070192814E0,-7.152146816E0,3.385843933E-1
2.485795623E0,7.056434155E0,-7.194619656E0,1.621137410E-1
2.488031463E0,7.074978352E0,-7.284948349E0,6.221338734E-2
2.490267974E0,7.113263607E0,-7.361518860E0,-1.854437590E-2
2.492499602E0,7.150352478E0,-7.462615490E0,-8.494520187E-2
2.494722808E0,7.149155617E0,-7.548159122E0,-1.082752272E-1
2.496977447E0,7.186244488E0,-7.654041290E0,-7.956135273E-2
2.499214141E0,7.219145775E0,-7.673782349E0,-6.460621208E-2
2.501455718E0,7.308278561E0,-7.724031448E0,6.520441920E-2
2.503688506E0,7.325626373E0,-7.720442295E0,2.895315289E-1
2.505924041E0,7.257431030E0,-7.706085205E0,4.791627228E-1
2.508160369E0,7.185646534E0,-7.671987534E0,5.551348329E-1
2.510394011E0,7.166503906E0,-7.647460938E0,5.832505226E-1
2.512622039E0,7.119245529E0,-7.632505894E0,5.449653864E-1
2.514870330E0,7.119843960E0,-7.584649563E0,5.306084156E-1
2.517106658E0,7.143772125E0,-7.556533813E0,5.736792088E-1
2.519346649E0,7.235297680E0,-7.472187042E0,6.981059909E-1
2.521576689E0,7.364510059E0,-7.398607731E0,8.374879360E-1
2.523796416E0,7.475177765E0,-7.310073376E0,9.577272534E-1
2.526038787E0,7.596613884E0,-7.144370079E0,9.966106415E-1
2.528275847E0,7.723433495E0,-7.007380962E0,9.828519225E-1
2.530519011E0,7.788637638E0,-6.855436802E0,9.403793216E-1
2.532766020E0,7.901100159E0,-6.713662148E0,8.985049129E-1
2.535001922E0,7.931010723E0,-6.618547440E0,9.224331379E-1
2.537239227E0,7.835896015E0,-6.550352097E0,9.547362328E-1
2.539473785E0,7.745566845E0,-6.538986206E0,8.967102766E-1
2.541710296E0,7.639086246E0,-6.594619274E0,9.002995491E-1
2.543946014E0,7.460222721E0,-6.763911247E0,8.279166222E-1
2.546182098E0,7.304689407E0,-6.937989235E0,7.932206988E-1
2.548418670E0,7.078567505E0,-7.063612461E0,6.765705943E-1
2.550655425E0,6.875775814E0,-7.334001541E0,9.565308690E-1
2.552891998E0,6.757331371E0,-7.543373585E0,1.042074203E0
2.555128631E0,6.522834301E0,-7.789236069E0,1.173679471E0
2.557363189E0,6.066403389E0,-8.079963684E0,1.398604870E0
2.559586943E0,5.696712494E0,-8.380861282E0,1.553540111E0
2.561826934E0,5.385047436E0,-8.687741280E0,1.651047587E0
2.564074676E0,5.227120876E0,-8.938986778E0,1.740778446E0
2.566314544E0,5.233701229E0,-9.073583603E0,1.883749604E0
2.568551178E0,5.237290382E0,-9.136395454E0,1.941177368E0
2.570784637E0,5.323431969E0,-9.095118523E0,1.999203324E0
2.573021453E0,5.477769375E0,-9.020941734E0,2.029113531E0
2.575258697E0,5.589633465E0,-8.879166603E0,2.020738840E0
2.577494292E0,5.832505226E0,-8.667402267E0,2.017747641E0
2.579730682E0,5.933003902E0,-8.400602341E0,1.932204247E0
2.581967315E0,5.962316036E0,-8.118248940E0,1.784447432E0
2.584204375E0,6.008975983E0,-7.908278942E0,1.707877159E0
2.586437957E0,6.069993019E0,-7.755138397E0,1.517647743E0
2.588665191E0,6.211767673E0,-7.651648521E0,1.356730461E0
2.590913726E0,6.142973900E0,-7.553543091E0,1.127019525E0
2.593151275E0,6.102295876E0,-7.503891945E0,9.164510965E-1
2.595389923E0,6.134000778E0,-7.398607731E0,7.166503668E-1
2.597623870E0,6.199205399E0,-7.293323517E0,5.449653864E-1
2.599861053E0,6.178267956E0,-7.201199532E0,3.828516304E-1
2.602096648E0,6.151348591E0,-7.137789726E0,2.297109663E-1
2.604333221E0,6.066403389E0,-7.116852760E0,8.135596663E-2
2.606569549E0,6.009573936E0,-7.139584541E0,8.973085321E-3
2.608806853E0,5.991627693E0,-7.100701332E0,-9.631111473E-2
2.611043914E0,5.919245243E0,-7.142575741E0,-8.255238086E-2
2.613279510E0,5.822933674E0,-7.155735970E0,-7.357929647E-2
2.615516021E0,5.708676815E0,-7.110870838E0,-8.913264424E-2
2.617752410E0,5.631507874E0,-7.124031067E0,-8.015955985E-2
2.619989288E0,5.578866005E0,-7.104290485E0,-2.333002165E-2
2.622226104E0,5.477769375E0,-7.083951473E0,7.537391037E-2
2.624458220E0,5.477170944E0,-7.074978352E0,1.758724600E-1
2.626681670E0,5.486742496E0,-7.037291527E0,2.285145670E-1
2.628936675E0,5.626124382E0,-6.996613503E0,2.865405083E-1
2.631172088E0,5.817550182E0,-6.937391281E0,3.882354796E-1
2.633413360E0,5.881557941E0,-6.790830612E0,4.600201547E-1
2.635645172E0,6.025127411E0,-6.764509678E0,5.234299302E-1
2.637881805E0,6.385247231E0,-6.707680225E0,5.270192027E-1
2.640118316E0,6.424130440E0,-6.717849731E0,4.606183469E-1
2.642354949E0,6.486343861E0,-6.751947403E0,3.750749528E-1
2.644592010E0,6.515058041E0,-6.799205780E0,2.751746178E-1
2.646829131E0,6.553342819E0,-6.866204739E0,1.615155339E-1
2.649064910E0,6.649055958E0,-6.953542709E0,5.742774159E-2
2.651301238E0,6.667002201E0,-7.082156658E0,-3.290131316E-2
2.653535369E0,6.686144829E0,-7.130013466E0,-1.136590764E-1
2.655764556E0,6.737590313E0,-7.264011383E0,-2.177468538E-1
2.658011016E0,6.822535515E0,-7.360920429E0,-2.644068897E-1
2.660247710E0,6.836294174E0,-7.461419106E0,-3.116651475E-1
2.662486847E0,6.940382004E0,-7.520641804E0,-3.014956415E-1
2.664721954E0,7.046862602E0,-7.507481098E0,-3.672982752E-1
2.666957488E0,7.033103943E0,-7.459624767E0,-3.529413342E-1
2.669194365E0,7.143173695E0,-7.423133850E0,-3.140579760E-1
2.671431365E0,7.220342159E0,-7.371688366E0,-2.560320199E-1
2.673667205E0,7.277770042E0,-7.301698208E0,-1.172483116E-1
2.675903777E0,7.396214962E0,-7.285546780E0,8.434699476E-2
2.678140106E0,7.380063057E0,-7.309474945E0,2.177468538E-1
2.680377227E0,7.359724045E0,-7.333403111E0,3.176472187E-1
2.682614715E0,7.331010342E0,-7.399804115E0,2.458625287E-1
2.684850005E0,7.296912670E0,-7.470990658E0,1.980060786E-1
2.687086394E0,7.316055298E0,-7.504489899E0,1.220339537E-1
2.689322845E0,7.268198967E0,-7.555935860E0,4.067798331E-2
2.691556670E0,7.235895634E0,-7.516454220E0,-7.896314561E-2
2.693784942E0,7.256234646E0,-7.449455261E0,-1.316052526E-1
2.696032928E0,7.186244488E0,-7.357331276E0,-1.561316848E-1
2.698269805E0,7.167101860E0,-7.323832035E0,-1.136590764E-1
2.700509917E0,7.234101295E0,-7.277770042E0,-2.691925503E-2
2.702740691E0,7.386643410E0,-7.275377274E0,5.084748194E-2
2.704971404E0,7.506284714E0,-7.268198967E0,1.328016520E-1
2.707215545E0,7.524230957E0,-7.307082176E0,1.758724600E-1
2.709448211E0,7.480561733E0,-7.387241840E0,1.280160099E-1
2.711674285E0,7.332206726E0,-7.427321434E0,5.024927482E-2
2.713922515E0,7.177869797E0,-7.496713161E0,4.426721856E-2
2.716150420E0,7.172485828E0,-7.511070251E0,4.905286431E-2
2.718404021E0,7.143772125E0,-7.506284714E0,8.673982322E-2
2.720632232E0,7.052844524E0,-7.457231998E0,1.196411327E-1
2.722862762E0,7.024729252E0,-7.409375191E0,1.573280841E-1
2.725107757E0,7.077371120E0,-7.329215527E0,3.002992272E-1
2.727344695E0,7.138986588E0,-7.321439266E0,4.492524564E-1
2.729582061E0,7.167101860E0,-7.303493023E0,5.635097623E-1
2.731808379E0,7.171289444E0,-7.308278561E0,6.305087805E-1
2.734052031E0,7.265805721E0,-7.325028419E0,7.459624410E-1
2.736280547E0,7.121040344E0,-7.356134892E0,8.063812256E-1
2.738530486E0,7.006184578E0,-7.349554539E0,7.627122402E-1
2.740761687E0,6.824928284E0,-7.332206726E0,7.417750359E-1
2.742992889E0,6.609574318E0,-7.329215527E0,7.208378315E-1
2.745237518E0,6.518048763E0,-7.336992264E0,7.196413875E-1
2.747474273E0,6.502495766E0,-7.371089935E0,8.057830334E-1
2.749710174E0,6.549155712E0,-7.410571575E0,9.302098155E-1
2.751935760E0,6.810571671E0,-7.482356548E0,1.089930773E0
2.754184722E0,7.018746853E0,-7.552944660E0,1.268195987E0
2.756420440E0,7.041478634E0,-7.592426300E0,1.378265858E0
2.758656951E0,6.906882763E0,-7.581060410E0,1.434497118E0
2.760878509E0,6.768697262E0,-7.521838188E0,1.447059512E0
2.763117889E0,6.706483841E0,-7.482954502E0,1.513460279E0
2.765366668E0,6.588038921E0,-7.413562775E0,1.483550072E0
2.767606169E0,6.335596085E0,-7.366304398E0,1.390828133E0
2.769841216E0,6.220740795E0,-7.345367432E0,1.394417405E0
2.772069854E0,6.153143406E0,-7.392625332E0,1.379462242E0
2.774313201E0,6.038886070E0,-7.351947784E0,1.339980721E0
2.776549590E0,5.947360516E0,-7.393822193E0,1.353739381E0
2.778787994E0,5.933003902E0,-7.417151928E0,1.296311617E0
2.781022674E0,5.828317642E0,-7.415357590E0,1.166501045E0
2.783259490E0,5.708078384E0,-7.372884750E0,7.459624410E-1
2.785495818E0,5.696114540E0,-7.275975227E0,5.593222976E-1
2.787728607E0,5.731408596E0,-7.176074982E0,5.647061467E-1
2.789952789E0,5.797809124E0,-7.144370079E0,7.274180651E-1
2.792205535E0,5.777470112E0,-7.101897717E0,8.985049129E-1
2.794442046E0,5.934200287E0,-7.091129780E0,1.133599758E0
2.796682708E0,6.065207005E0,-7.128218651E0,1.459023595E0
2.798915313E0,6.252445698E0,-7.223931789E0,1.832902193E0
2.801152129E0,6.396014690E0,-7.309474945E0,2.277967215E0
2.803388702E0,6.508477688E0,-7.355536938E0,2.526820660E0
2.805625518E0,6.524629116E0,-7.278966427E0,2.450848579E0
2.807862701E0,6.379265308E0,-7.103692055E0,2.334796667E0
2.810098113E0,6.363711834E0,-6.873981476E0,2.338984251E0
2.812335235E0,6.367300987E0,-6.649055958E0,2.309672117E0
2.814572479E0,6.438487530E0,-6.430112839E0,2.196012974E0
2.816808135E0,6.491129398E0,-6.238088608E0,1.886142492E0
2.819044585E0,6.506682873E0,-6.085546017E0,2.048256159E0
2.821280670E0,6.630511761E0,-6.031109333E0,2.254039049E0
2.823517974E0,6.710670948E0,-5.995217323E0,2.498106956E0
2.825754242E0,6.587440968E0,-5.988038540E0,2.310868502E0
2.827987518E0,6.169893265E0,-6.092724800E0,1.596610904E0
2.830227264E0,5.695516109E0,-6.198606968E0,2.045863420E-1
2.832463897E0,5.433502197E0,-6.276373863E0,-7.034898400E-1
2.834701445E0,5.205585480E0,-6.252445698E0,-9.296116233E-1
2.836937041E0,4.989035130E0,-6.250052929E0,-7.788637877E-1
2.839173797E0,4.914259434E0,-6.316453457E0,-5.982056856E-1
2.841410613E0,4.920241356E0,-6.446862221E0,-3.403790295E-1
2.843647918E0,4.901697159E0,-6.562914371E0,-6.400800496E-2
2.845883269E0,4.844269276E0,-6.735795975E0,2.506481707E-1
2.848120086E0,4.868197441E0,-6.937989235E0,4.701896608E-1
2.850356475E0,4.965106964E0,-7.122236729E0,6.574280262E-1
2.852593475E0,5.027918816E0,-7.291528702E0,8.159525394E-1
2.854829498E0,5.062016487E0,-7.465008259E0,1.049850941E0
2.857066070E0,5.054837704E0,-7.556533813E0,1.202393413E0
2.859302886E0,4.989633560E0,-7.633104324E0,1.411765337E0
2.861540557E0,4.909473896E0,-7.771887779E0,1.606780410E0
2.863776092E0,4.789234638E0,-7.751548767E0,1.753939033E0
2.866012481E0,4.521836758E0,-7.580461979E0,1.903490424E0
2.868248992E0,4.935794830E0,-7.820940971E0,1.878963947E0
2.870485809E0,5.335396290E0,-8.018348694E0,1.820937991E0
2.872722442E0,5.440082073E0,-8.148757935E0,1.731805444E0
2.874958953E0,5.459823132E0,-8.148159027E0,1.588834286E0
2.877195769E0,5.475974560E0,-8.123632431E0,1.450648785E0
2.879430083E0,5.497509956E0,-8.013563156E0,1.345962763E0
2.881656707E0,5.543571949E0,-7.874779224E0,1.217348576E0
2.883905486E0,5.612365723E0,-7.718647480E0,1.265205026E0
2.886142486E0,5.651248932E0,-7.633104324E0,1.365703583E0
2.888381134E0,5.709873199E0,-7.586444378E0,1.347159147E0
2.890615813E0,5.795416355E0,-7.597810268E0,1.424327731E0
2.892854705E0,5.875576019E0,-7.590033531E0,1.543968797E0
2.895088469E0,5.907878876E0,-7.619345665E0,1.634896040E0
2.897325896E0,5.912066460E0,-7.624729156E0,1.749751568E0
2.899557464E0,5.892923832E0,-7.596015453E0,1.758724689E0
2.901786102E0,5.894120216E0,-7.581060410E0,1.687538147E0
2.904034088E0,5.862415314E0,-7.541578770E0,1.534397483E0
2.906271026E0,6.122634888E0,-7.446464062E0,8.596215248E-1
2.908510771E0,6.074180126E0,-7.441678524E0,9.445667267E-1
2.910744414E0,5.935396671E0,-7.354340553E0,1.071984529E0
2.912981170E0,6.337390900E0,-7.222136974E0,1.740778536E-1
2.915218169E0,5.655436516E0,-7.147361279E0,1.770090580E0
2.917453765E0,4.947759151E0,-7.200601578E0,2.069193363E0
2.919687773E0,4.636094093E0,-7.210172653E0,2.051845312E0
2.921913482E0,4.494318962E0,-7.164111137E0,1.935793519E0
2.924151641E0,4.468596458E0,-7.107879639E0,2.216950178E0
2.926400359E0,4.494318962E0,-7.036693096E0,2.183450699E0
2.928639311E0,4.572085857E0,-7.022336483E0,2.027318954E0
2.930876800E0,4.638486862E0,-7.066603661E0,2.051845312E0
2.933111053E0,4.778466702E0,-7.067800045E0,1.886142492E0
2.935346648E0,4.749154568E0,-7.082156658E0,1.981257200E0
2.937582977E0,4.808975220E0,-7.081558704E0,1.638485312E0
2.939819549E0,4.549354076E0,-7.147959232E0,2.274976015E0
2.942056304E0,4.532006264E0,-7.201199532E0,2.522633314E0
2.944292693E0,4.844269276E0,-7.234101295E0,2.368296146E0
2.946529266E0,5.358726501E0,-7.231110096E0,2.177468538E0
2.948766326E0,5.741578102E0,-7.208378315E0,2.257628202E0
2.951003692E0,6.041278839E0,-7.242475986E0,2.417349100E0
2.953239227E0,6.163312912E0,-7.322037220E0,2.609373093E0
2.955475799E0,6.141777515E0,-7.418348312E0,2.771486759E0
2.957710174E0,6.038288116E0,-7.536793232E0,2.885145903E0
2.959934173E0,5.964110374E0,-7.660621643E0,2.989831924E0
2.962170379E0,5.933003902E0,-7.770093441E0,3.070589542E0
2.964409881E0,6.004190445E0,-7.804789066E0,3.099901676E0
2.966661834E0,6.089733601E0,-7.839485168E0,3.081955671E0
2.968899261E0,6.176473618E0,-7.855038643E0,3.044866800E0
2.971134796E0,6.253043652E0,-7.861020565E0,3.007179976E0
2.973368316E0,6.302096844E0,-7.837092400E0,2.888136864E0
2.975604400E0,6.288337708E0,-7.826922894E0,2.835494757E0
2.977841277E0,6.270391941E0,-7.821538925E0,2.726023197E0
2.980078094E0,6.214160442E0,-7.815557003E0,2.601596355E0
2.982314666E0,6.139384747E0,-7.722835064E0,2.519642353E0
2.984551299E0,6.082555294E0,-7.655237675E0,2.523829699E0
2.986788787E0,6.026922226E0,-7.563114166E0,2.484946251E0
2.989024383E0,5.913262844E0,-7.475177765E0,2.445464849E0
2.991261016E0,5.846862316E0,-7.445267677E0,2.449652195E0
2.993497283E0,5.957530022E0,-7.371089935E0,2.474178553E0
2.995734100E0,5.991029739E0,-7.333403111E0,2.555534601E0
2.997970733E0,5.947958946E0,-7.280761242E0,2.669791937E0
3.000207488E0,5.876173973E0,-7.217949390E0,2.754737139E0
3.002444060E0,5.767899036E0,-7.120441914E0,2.734398127E0
3.004681426E0,5.625525951E0,-7.036693096E0,2.666202545E0
3.006917083E0,5.473581791E0,-6.976872444E0,2.602792740E0
3.009153289E0,5.355136871E0,-6.912266254E0,2.544168711E0
3.011389922E0,5.251647472E0,-6.862615108E0,2.447857618E0
3.013626861E0,5.099104881E0,-6.812366009E0,2.427518606E0
3.015863250E0,4.970490932E0,-6.757929325E0,2.402393818E0
3.018099578E0,4.841876507E0,-6.726822853E0,2.358126640E0
3.020333647E0,4.694119930E0,-6.700501442E0,2.328216314E0
3.022559295E0,4.517649174E0,-6.683153629E0,2.297708035E0
3.024794890E0,4.484747887E0,-6.663413048E0,2.221137524E0
3.027031523E0,4.442873478E0,-6.628716946E0,2.139781713E0
3.029274931E0,4.418945312E0,-6.632904530E0,2.091925144E0
3.031522430E0,4.514657974E0,-6.620342255E0,2.140379906E0
3.033758819E0,4.571487427E0,-6.626324177E0,2.197807550E0
3.035995025E0,4.657629490E0,-6.618547440E0,2.236690998E0
3.038229156E0,4.715655327E0,-6.600003242E0,2.203789711E0
3.040466460E0,4.754538536E0,-6.590431690E0,2.142174482E0
3.042701873E0,4.769493580E0,-6.580860615E0,2.099701881E0
3.044938750E0,4.774877548E0,-6.576074600E0,2.037488461E0
3.047175262E0,4.765904427E0,-6.575476646E0,1.961516380E0
3.049413177E0,4.698905468E0,-6.583851337E0,1.936989903E0
3.051653594E0,4.699503899E0,-6.574280262E0,1.869990945E0
3.053884612E0,4.663012981E0,-6.567699909E0,1.650449395E0
3.056119597E0,4.573282242E0,-6.546762943E0,1.515853167E0
3.058354827E0,4.601995945E0,-6.580262184E0,1.482951880E0
3.060581267E0,4.650450706E0,-6.594619274E0,1.383051515E0
3.062826201E0,4.742574692E0,-6.571887493E0,1.293320656E0
3.065067657E0,4.892126083E0,-6.564110756E0,1.175474167E0
3.067307647E0,5.094917774E0,-6.561119556E0,9.726824164E-1
3.069539458E0,5.337191105E0,-6.497111797E0,7.172485590E-1
3.071765838E0,6.431309223E0,-6.528816700E0,-1.952543259E0
3.074010589E0,5.992824078E0,-6.259624004E0,5.024927482E-2
3.076236846E0,5.548955917E0,-6.068198204E0,1.405185103E0
3.078490448E0,5.283950806E0,-6.026922226E0,1.660020709E0
3.080720977E0,5.129015446E0,-6.083153248E0,1.806581140E0
3.082952483E0,4.759324074E0,-6.172286034E0,1.703091502E0
3.085194182E0,4.467998028E0,-6.248258114E0,1.490728498E0
3.087421600E0,4.320241451E0,-6.217151642E0,1.446461320E0
3.089670196E0,4.448855400E0,-6.214758396E0,1.523629785E0
3.091895721E0,4.630111694E0,-6.218348026E0,1.649253011E0
3.094147552E0,4.804787636E0,-6.250650883E0,1.851446509E0
3.096380096E0,4.831707001E0,-6.280561447E0,2.051845312E0
3.098619537E0,4.819144726E0,-6.343971252E0,2.361716032E0
3.100850982E0,4.989035130E0,-6.329015732E0,2.668595552E0
3.103077850E0,5.294718266E0,-6.397809505E0,2.090130568E0
3.105326385E0,5.494519234E0,-6.512066841E0,1.429113269E0
3.107562408E0,5.718247890E0,-6.551548481E0,9.260223508E-1
3.109802520E0,6.094519138E0,-6.588637352E0,5.814558864E-1
3.112037078E0,6.621538639E0,-6.629913330E0,4.480560422E-1
3.114272674E0,7.156932354E0,-6.652645111E0,5.958128572E-1
3.116509002E0,7.576872826E0,-6.646064758E0,8.093722463E-1
3.118745269E0,7.996813297E0,-6.572485447E0,1.109073281E0
3.120982085E0,8.352147102E0,-6.444469452E0,1.288534999E0
3.123216094E0,8.495717049E0,-6.390032768E0,1.432702541E0
3.125444793E0,8.763712883E0,-6.285346985E0,1.597209096E0
3.127692168E0,9.031708717E0,-6.246463299E0,1.699502230E0
3.129929717E0,9.209376335E0,-6.230311871E0,1.696511269E0
3.132167876E0,9.357132912E0,-6.275775433E0,1.731207132E0
3.134401641E0,9.456435204E0,-6.343971252E0,1.737189293E0
3.136638152E0,9.657432556E0,-6.361917019E0,1.767697692E0
3.138874969E0,9.797411919E0,-6.503093719E0,1.945364833E0
3.141111541E0,1.003908730E1,-6.669992924E0,2.014756680E0
3.143347869E0,1.000498962E1,-6.693323135E0,2.076371908E0
3.145584929E0,1.002532864E1,-6.857231617E0,2.172084808E0
3.147822234E0,9.984052658E0,-7.038487911E0,2.272583246E0
3.150057891E0,9.738788605E0,-7.144370079E0,2.198405743E0
3.152290862E0,9.750154495E0,-7.383652687E0,2.137388945E0
3.154516509E0,9.942776680E0,-7.639684677E0,2.139183521E0
3.156767303E0,1.016351414E1,-7.887341499E0,2.222932339E0
3.159004119E0,1.014556789E1,-8.083553314E0,2.299502611E0
3.161241301E0,1.007019424E1,-8.298309326E0,2.375474691E0
3.163465972E0,9.995418549E0,-8.455039024E0,2.422732830E0
3.165715301E0,9.897313118E0,-8.616554260E0,2.446063042E0
3.167950408E0,9.804591179E0,-8.772686005E0,2.383251429E0
3.170190215E0,9.954740524E0,-8.961718559E0,2.423331022E0
3.172424346E0,1.021974564E1,-9.138189316E0,2.568695068E0
3.174659881E0,1.042732334E1,-9.257232666E0,2.733201742E0
3.176896697E0,1.061157036E1,-9.365508080E0,2.873181820E0
3.179132964E0,1.067318535E1,-9.390632629E0,2.916850805E0
3.181370147E0,1.061635590E1,-9.346963882E0,2.873181820E0
3.183607391E0,1.051346493E1,-9.196813583E0,2.862414122E0
3.185842986E0,1.039561844E1,-9.046664238E0,2.846860647E0
3.188079559E0,1.026401234E1,-8.896514893E0,2.831307411E0
3.190311614E0,1.010788059E1,-8.807381630E0,2.767299414E0
3.192532622E0,9.869196892E0,-8.770293236E0,2.698505640E0
3.194777312E0,9.668199539E0,-8.752944946E0,2.725425005E0
3.197025909E0,9.491728783E0,-8.673981667E0,2.728415966E0
3.199267181E0,9.300303459E0,-8.609375954E0,2.836092949E0
3.201501617E0,9.204590797E0,-8.508278847E0,3.035295486E0
3.203730193E0,9.138788223E0,-8.316853523E0,3.205784082E0
3.205972076E0,9.121439934E0,-8.135597229E0,3.324826956E0
3.208208465E0,9.142974854E0,-7.968099594E0,3.329612732E0
3.210446685E0,9.289535522E0,-7.774280548E0,3.287738323E0
3.212682098E0,9.440881729E0,-7.585247993E0,3.321835995E0
3.214918426E0,9.802198410E0,-7.338188648E0,3.448655605E0
3.217155242E0,1.009651470E1,-7.061817646E0,3.718446493E0
3.219392608E0,1.010668468E1,-6.937989235E0,3.851846218E0
3.221625640E0,9.833903313E0,-6.933801651E0,3.820739508E0
3.223852752E0,9.689735413E0,-7.040880680E0,3.676572084E0
3.226101043E0,9.544969559E0,-7.234101295E0,3.470191002E0
3.228337798E0,9.491728783E0,-7.432705402E0,3.231507063E0
3.230577728E0,9.207581520E0,-7.689933777E0,2.905484915E0
3.232811309E0,8.789435387E0,-7.954938889E0,2.615953445E0
3.235048064E0,8.450851440E0,-8.231309891E0,2.517847538E0
3.237285125E0,8.137392044E0,-8.422137260E0,2.386242390E0
3.239517974E0,7.867600918E0,-8.547162056E0,2.388635159E0
3.241745818E0,7.785646915E0,-8.545966148E0,2.464607239E0
3.243994842E0,7.637889862E0,-8.453244209E0,2.525026083E0
3.246230315E0,7.381259441E0,-8.296514511E0,2.536391973E0
3.248469696E0,7.155138016E0,-8.020143509E0,2.510071039E0
3.250703338E0,6.897311211E0,-7.719245911E0,2.392822742E0
3.252940703E0,6.897909641E0,-7.389036179E0,2.277967215E0
3.255178008E0,6.976274490E0,-7.063612461E0,2.063211441E0
3.257411041E0,7.134799004E0,-6.806982040E0,1.864008784E0
3.259637969E0,7.009773731E0,-6.608377934E0,1.671984792E0
3.261871978E0,6.879963398E0,-6.394818306E0,1.541576028E0
3.264108428E0,6.920641422E0,-6.238088608E0,1.536790371E0
3.266347502E0,6.851249218E0,-6.116652966E0,1.450050473E0
3.268584624E0,6.760920525E0,-6.043671608E0,1.468594909E0
3.270824554E0,6.627520561E0,-6.060421467E0,1.386042476E0
3.273073638E0,6.421139717E0,-6.081358910E0,1.365105271E0
3.275308746E0,6.176473618E0,-6.063412666E0,1.424925923E0
3.277545379E0,5.715855122E0,-6.132804394E0,1.368096352E0
3.279778961E0,5.295914650E0,-6.092126369E0,1.255035520E0
3.282015960E0,5.044070244E0,-5.973681927E0,1.190429211E0
3.284252654E0,4.725226402E0,-5.906084538E0,1.067797065E0
3.286485747E0,4.468596458E0,-5.824728489E0,9.607182741E-1
3.288713836E0,4.448257446E0,-5.660820007E0,7.788637877E-1
3.290963042E0,4.325624943E0,-5.525027275E0,7.680960894E-1
3.293198821E0,4.305884361E0,-5.435296535E0,1.039681435E0
3.295438507E0,4.262215137E0,-5.378467083E0,1.205982566E0
3.297671600E0,4.146163464E0,-5.367699623E0,1.333400369E0
3.299908355E0,4.234697819E0,-5.446662426E0,1.554138303E0
3.302144683E0,4.183850288E0,-5.484947681E0,1.810768485E0
3.304381560E0,3.808177233E0,-5.368896008E0,1.702493310E0
3.306618377E0,2.940180779E0,-5.163711071E0,1.536790371E0
3.308855743E0,3.290729284E0,-5.297709465E0,2.450848579E0
3.311091277E0,3.353540897E0,-5.227120876E0,2.480160713E0
3.313328094E0,3.625126362E0,-5.310869694E0,3.107678413E0
3.315565093E0,3.720839262E0,-5.419743061E0,3.533002615E0
3.317800750E0,3.728615999E0,-5.534598827E0,3.600001574E0
3.320037566E0,3.753142357E0,-5.712863922E0,3.777070522E0
3.322273834E0,3.860221148E0,-5.886941910E0,3.859024763E0
3.324510772E0,3.900899172E0,-6.074180126E0,3.817150354E0
3.326748260E0,3.932005882E0,-6.265605927E0,3.765106440E0
3.328983855E0,3.938585997E0,-6.471388817E0,3.780061483E0
3.331220489E0,4.027718544E0,-6.701697826E0,3.633501291E0
3.333456756E0,4.255036831E0,-6.915257454E0,3.540181160E0
3.335693572E0,4.583451748E0,-7.158128738E0,3.376870871E0
3.337930144E0,4.582853794E0,-7.243672371E0,3.272184849E0
3.340166717E0,4.450051785E0,-7.203592777E0,3.213560820E0
3.342403594E0,4.356133461E0,-7.049255371E0,3.279363394E0
3.344641082E0,4.390231133E0,-6.897909641E0,3.470191002E0
3.346876434E0,4.332803726E0,-6.744768620E0,3.717249870E0
3.349113006E0,4.199403763E0,-6.571887493E0,3.958925009E0
3.351349273E0,4.258028030E0,-6.472585201E0,4.011567116E0
3.353582671E0,4.198207378E0,-6.437291145E0,3.768097401E0
3.355808868E0,4.061218262E0,-6.462415695E0,3.466003656E0
3.358059600E0,3.976273060E0,-6.564110756E0,3.065205812E0
3.360296416E0,4.064209461E0,-6.668796539E0,2.713460922E0
3.362537139E0,4.381258488E0,-6.772884369E0,2.416152716E0
3.364768951E0,4.807180882E0,-6.897909641E0,2.229512453E0
3.367005584E0,5.232504845E0,-7.042675018E0,2.133201361E0
3.369242095E0,5.670989513E0,-7.149754047E0,2.156531334E0
3.371478789E0,6.081358910E0,-7.247261524E0,2.251047850E0
3.373715545E0,6.348756790E0,-7.275377274E0,2.306082726E0
3.375951812E0,6.530611038E0,-7.273582458E0,2.303091764E0
3.378188750E0,6.699903488E0,-7.223333359E0,2.237887383E0
3.380426177E0,6.869195461E0,-7.115656376E0,2.196012974E0
3.382661590E0,6.948158741E0,-6.991827965E0,2.111067772E0
3.384898528E0,6.935596466E0,-6.872186661E0,2.100898266E0
3.387135894E0,6.884150982E0,-6.785446644E0,2.114656925E0
3.389370025E0,6.808776855E0,-6.726822853E0,2.080559254E0
3.391602752E0,6.769893646E0,-6.683752060E0,2.222932339E0
3.393844085E0,6.815357208E0,-6.742375851E0,2.404786825E0
3.396081328E0,6.822535515E0,-6.796214581E0,2.605185747E0
3.398320159E0,7.027122021E0,-6.800402164E0,2.749951363E0
3.400554473E0,7.272984505E0,-6.929016113E0,2.976671457E0
3.402790984E0,7.027719975E0,-7.161119938E0,3.251247883E0
3.405027007E0,6.829115868E0,-7.264011383E0,3.359523058E0
3.407263885E0,6.696912289E0,-7.377670288E0,3.506083488E0
3.409497649E0,6.518048763E0,-7.456633568E0,3.595216036E0
3.411725127E0,6.388238430E0,-7.487740040E0,3.579662561E0
3.413974151E0,6.231508255E0,-7.484749317E0,3.416352510E0
3.416211394E0,6.175277233E0,-7.450053215E0,3.282354355E0
3.418446135E0,6.123831272E0,-7.424928665E0,3.190829039E0
3.420664214E0,6.105287075E0,-7.414759159E0,3.129213810E0
3.422904998E0,6.053243160E0,-7.380063057E0,3.085544825E0
3.425156707E0,6.044270039E0,-7.351349354E0,3.099901676E0
3.427397124E0,6.067600250E0,-7.342376232E0,3.180659533E0
3.429630400E0,5.999404430E0,-7.356134892E0,3.294916868E0
3.431855010E0,5.970092297E0,-7.356134892E0,3.366103172E0
3.434104217E0,5.927021503E0,-7.298707485E0,3.432504177E0
3.436339629E0,5.927021503E0,-7.269993305E0,3.513261795E0
3.438576751E0,5.941977024E0,-7.260422230E0,3.437289715E0
3.440800444E0,5.846862316E0,-7.254439831E0,3.416950703E0
3.443038543E0,5.749952793E0,-7.262814999E0,3.492324591E0
3.445285857E0,5.650052547E0,-7.237092018E0,3.467798233E0
3.447524749E0,5.636293888E0,-7.194021225E0,3.495913982E0
3.449761993E0,5.547161102E0,-7.077371120E0,3.428316593E0
3.451996795E0,5.491528034E0,-6.985845566E0,3.389433384E0
3.454232146E0,5.402993679E0,-6.826124668E0,3.321835995E0
3.456466094E0,5.309673309E0,-6.685546398E0,3.267997503E0
3.458691497E0,5.212165833E0,-6.540182590E0,3.147758245E0
3.460926909E0,5.114658356E0,-6.427719593E0,2.984447956E0
3.463166534E0,4.978865623E0,-6.314659119E0,2.782852650E0
3.465417937E0,4.899304390E0,-6.217749596E0,2.705684185E0
3.467655059E0,4.823332310E0,-6.154339790E0,2.714657307E0
3.469892120E0,4.845465660E0,-6.034698486E0,2.623729944E0
3.472124664E0,4.841876507E0,-5.919843197E0,2.662015200E0
3.474361236E0,4.847858906E0,-5.805585861E0,2.733201742E0
3.476597625E0,4.736592293E0,-5.766702652E0,2.894119024E0
3.478834502E0,4.581656933E0,-5.741578102E0,3.159722328E0
3.481071258E0,4.335196495E0,-5.743970871E0,3.463012457E0
3.483307647E0,4.145565033E0,-5.785845280E0,3.737588882E0
3.485544707E0,4.037888050E0,-5.832505226E0,3.918246984E0
3.487781951E0,4.069592953E0,-5.910272121E0,4.033102512E0
3.490017547E0,4.082155228E0,-6.010770321E0,4.033102512E0
3.492253814E0,4.018745422E0,-6.143572330E0,3.946960926E0
3.494490203E0,3.950550079E0,-6.266204357E0,3.851248026E0
3.496727264E0,3.959523201E0,-6.352345943E0,3.770490170E0
3.498963836E0,4.027120590E0,-6.376274109E0,3.642474174E0
3.501197173E0,4.166502476E0,-6.397211552E0,3.586242914E0
3.503424956E0,4.319643021E0,-6.399604321E0,3.559323788E0
3.505674285E0,4.411168575E0,-6.396014690E0,3.540779352E0
3.507910125E0,4.492524624E0,-6.388238430E0,3.589233875E0
3.510149505E0,4.511667252E0,-6.378666878E0,3.579662561E0
3.512383025E0,4.506881237E0,-6.373881340E0,3.579662561E0
3.514619537E0,4.493122578E0,-6.354140759E0,3.541377544E0
3.516856170E0,4.455435753E0,-6.320042610E0,3.498306751E0
3.519091888E0,4.293920040E0,-6.321837425E0,3.387040377E0
3.521323516E0,4.242474556E0,-6.301498413E0,3.267399311E0
3.523552398E0,4.262215137E0,-6.272784710E0,3.210569859E0
3.525790557E0,4.368695736E0,-6.259624004E0,3.101696253E0
3.528040434E0,4.465605259E0,-6.245865345E0,3.007179976E0
3.530276824E0,4.643272400E0,-6.262615204E0,2.937189817E0
3.532503753E0,4.805984497E0,-6.269793510E0,2.910270452E0
3.534745940E0,5.030909538E0,-6.292525291E0,2.926422119E0
3.536973052E0,5.073382378E0,-6.350551128E0,2.912663460E0
3.539225250E0,5.087738991E0,-6.340980053E0,2.922234535E0
3.541459441E0,4.953142643E0,-6.348756790E0,2.921038151E0
3.543698272E0,4.829314232E0,-6.327819347E0,2.915056229E0
3.545931670E0,4.801198483E0,-6.260222435E0,2.900699139E0
3.548168426E0,4.749752998E0,-6.197410583E0,2.914458036E0
3.550404754E0,4.706083775E0,-6.177670002E0,2.975475073E0
3.552641631E0,4.621737003E0,-6.099903107E0,2.917448997E0
3.554877044E0,4.641477585E0,-6.032904148E0,2.907877684E0
3.557110808E0,4.533202648E0,-5.949753284E0,2.821137905E0
3.559352019E0,4.462016106E0,-5.891129494E0,2.844467878E0
3.561587859E0,4.481158733E0,-5.778068542E0,3.101696253E0
3.563825470E0,4.392624378E0,-5.745167255E0,3.458226919E0
3.566060760E0,4.397409916E0,-5.809773445E0,3.906881094E0
3.568297332E0,4.470390797E0,-5.903093338E0,4.236492634E0
3.570534148E0,4.554139614E0,-5.971887112E0,4.380660057E0
3.572770782E0,4.915455818E0,-6.045466423E0,4.603192329E0
3.575007842E0,5.154737949E0,-6.265605927E0,4.834698200E0
3.577244903E0,5.313262463E0,-6.431907177E0,5.136792183E0
3.579478973E0,5.362315655E0,-6.605386734E0,5.261816978E0
3.581710174E0,5.277968407E0,-6.781259537E0,5.289932728E0
3.583953521E0,5.126024246E0,-6.854240417E0,5.030909538E0
3.586186797E0,4.987240791E0,-6.923034191E0,4.820341110E0
3.588416167E0,4.782654285E0,-6.990033150E0,4.579862595E0
3.590662994E0,4.584050179E0,-6.994818687E0,4.192225456E0
3.592900176E0,4.395615101E0,-7.028318405E0,3.713660717E0
3.595140472E0,4.307679176E0,-7.072585583E0,3.269193888E0
3.597373077E0,4.195216179E0,-7.045068264E0,2.982055187E0
3.599606902E0,4.225724697E0,-7.049853802E0,2.810968399E0
3.601835174E0,4.338785648E0,-7.275377274E0,2.626122952E0
3.604082732E0,4.527220249E0,-7.559525013E0,2.456830740E0
3.606319305E0,4.670789719E0,-7.628318787E0,2.405983210E0
3.608558562E0,4.922036171E0,-7.761718273E0,2.455634356E0
3.610792754E0,5.081159115E0,-7.932207108E0,2.672184706E0
3.613030242E0,5.187639713E0,-8.050053596E0,2.868994236E0
3.615265594E0,5.512465000E0,-8.055437088E0,3.014956474E0
3.617502227E0,5.706882000E0,-8.083553314E0,3.226721287E0
3.619738677E0,5.675177097E0,-8.203194618E0,3.364906788E0
3.621976958E0,5.899504185E0,-8.107481003E0,3.652643681E0
3.624218475E0,5.989833355E0,-8.142775536E0,3.715455294E0
3.626448394E0,6.028118610E0,-8.233104706E0,3.544368505E0
3.628685271E0,6.153143406E0,-8.267800331E0,3.397808075E0
3.630920989E0,6.118447304E0,-8.377271652E0,3.335594654E0
3.633158416E0,6.138188362E0,-8.395816803E0,3.206980467E0
3.635394744E0,6.259624004E0,-8.353941917E0,3.113062143E0
3.637631133E0,6.275775433E0,-8.424530029E0,2.784049034E0
3.639868072E0,6.372684956E0,-8.538787842E0,2.422732830E0
3.642104522E0,6.690331936E0,-8.504690170E0,2.258824587E0
3.644341338E0,6.747759819E0,-8.586644173E0,2.164308071E0
3.646578033E0,6.646064758E0,-8.623134613E0,2.182254314E0
3.648815215E0,6.646064758E0,-8.618349075E0,2.187039852E0
3.651050933E0,6.751947403E0,-8.586644173E0,2.197807550E0
3.653287261E0,6.910471916E0,-8.621937752E0,2.132004976E0
3.655523650E0,6.928418159E0,-8.817551613E0,1.880160451E0
3.657760467E0,6.856035233E0,-9.020342827E0,1.569691658E0
3.659997283E0,6.806982040E0,-8.918049812E0,1.316650629E0
3.662233611E0,6.950551510E0,-8.872586250E0,1.412961721E0
3.664470489E0,7.197610378E0,-8.948558807E0,1.524826288E0
3.666707977E0,7.296314240E0,-9.122037888E0,1.440479279E0
3.668943572E0,7.366902828E0,-9.285347939E0,1.336391449E0
3.671180205E0,7.360920429E0,-9.394820213E0,1.274776220E0
3.673417388E0,7.606783390E0,-9.704092026E0,1.134197950E0
3.675653045E0,7.946564198E0,-9.837491989E0,9.613165259E-1
3.677889922E0,8.098507881E0,-9.633503914E0,8.620143533E-1
3.680126129E0,8.065009117E0,-9.340981483E0,7.896314859E-1
3.682363128E0,8.016553879E0,-8.996415138E0,8.841479421E-1
3.684600799E0,8.251050949E0,-8.641678810E0,9.906286001E-1
3.686836089E0,8.549555779E0,-8.310871124E0,8.069794178E-1
3.689068755E0,8.706285477E0,-8.102097511E0,6.981059909E-1
3.691293792E0,8.668598175E0,-8.055437088E0,1.399801224E-1
3.693545562E0,8.357531548E0,-8.283353806E0,-3.062812984E-1
3.695782256E0,8.432905197E0,-8.026124954E0,-3.248256743E-1
3.698022796E0,8.560322762E0,-7.746165276E0,-2.003988922E-1
3.700255889E0,8.726025581E0,-7.486543655E0,-3.708875179E-2
3.702493194E0,8.770891190E0,-7.344171047E0,1.076770201E-2
3.704728667E0,8.685946465E0,-7.318448067E0,-1.046859920E-1
3.706965118E0,8.376075745E0,-7.322037220E0,-3.505485058E-1
3.709201812E0,8.026723862E0,-7.392027378E0,-5.347958803E-1
3.711438262E0,7.757531166E0,-7.521838188E0,-5.988038778E-1
3.713675323E0,7.429714203E0,-7.679165840E0,-6.921239495E-1
3.715911529E0,7.188039303E0,-7.819146156E0,-6.658028960E-1
3.718145476E0,7.057032108E0,-7.950751305E0,-6.951149702E-1
3.720373076E0,6.879364967E0,-8.019545555E0,-7.776673436E-1
3.722618865E0,6.811169624E0,-8.075776100E0,-7.351947427E-1
3.724857879E0,6.705287457E0,-8.079365730E0,-6.741777658E-1
3.727097197E0,6.580262184E0,-8.072785378E0,-6.137589812E-1
3.729331694E0,6.445665836E0,-8.099704742E0,-5.575276613E-1
3.731567840E0,6.339185238E0,-8.094321251E0,-4.295116663E-1
3.733804168E0,6.160920143E0,-8.111070633E0,-3.553341627E-1
3.736040984E0,5.988636971E0,-8.108677864E0,-3.326023519E-1
3.738278228E0,5.791228771E0,-8.134400368E0,-2.967100143E-1
3.740513885E0,5.660820007E0,-8.175676346E0,-2.117647976E-1
3.742750762E0,5.531009674E0,-8.193024635E0,-1.603191197E-1
3.744988006E0,5.549553871E0,-8.174480438E0,-8.374879509E-2
3.747223602E0,5.587839127E0,-8.108677864E0,2.572284266E-2
3.749458221E0,5.521438122E0,-8.008178711E0,1.298106313E-1
3.751688629E0,5.536393166E0,-7.946564198E0,1.968096644E-1
3.753930571E0,5.542973518E0,-7.802994728E0,2.440679073E-1
3.756156829E0,5.611168861E0,-7.689933777E0,3.212364316E-1
3.758400115E0,5.737390518E0,-7.557730198E0,3.266202807E-1
3.760639922E0,5.747560024E0,-7.438687325E0,4.271188378E-1
3.762869903E0,5.802595139E0,-7.334599495E0,3.792623878E-1
3.765118255E0,5.755336761E0,-7.233502865E0,4.743770957E-1
3.767352752E0,5.645267010E0,-7.174878597E0,5.826523304E-1
3.769589690E0,5.411368370E0,-7.180262566E0,4.420739710E-1
3.771815215E0,5.219942570E0,-7.210172653E0,3.164508045E-1
3.774060759E0,5.057828903E0,-7.222136974E0,2.201396823E-1
3.776287322E0,5.014159679E0,-7.297510624E0,1.339980662E-1
3.778538421E0,5.052444935E0,-7.378866673E0,1.974078640E-2
3.780769195E0,5.118247509E0,-7.498507977E0,-7.477571070E-2
3.782997039E0,5.203192711E0,-7.604988575E0,-6.879365444E-2
3.785230681E0,5.025525570E0,-7.838288784E0,1.728814393E-1
3.787470123E0,5.066203594E0,-7.944769382E0,2.925225794E-1
3.789718780E0,5.199005604E0,-7.999206066E0,3.463610709E-1
3.791947540E0,5.288736343E0,-8.105687141E0,3.475574851E-1
3.794194792E0,5.388636589E0,-8.117053032E0,3.768695593E-1
3.796428252E0,5.487938881E0,-8.148159027E0,4.971089065E-1
3.798667693E0,5.477170944E0,-8.176873207E0,5.784648657E-1
3.800901580E0,5.609972477E0,-8.241478920E0,6.221339107E-1
3.803138213E0,5.599205017E0,-8.303692818E0,6.891329288E-1
3.805374725E0,5.703890800E0,-8.324629784E0,6.951149702E-1
3.807611541E0,5.770291805E0,-8.411369324E0,6.765705943E-1
3.809848846E0,5.879165173E0,-8.480163574E0,6.873382926E-1
3.812084441E0,6.003592014E0,-8.486743927E0,7.268198729E-1
3.814321258E0,6.137589931E0,-8.460422516E0,7.704889178E-1
3.816558318E0,6.128018856E0,-8.436494827E0,7.896314859E-1
3.818794158E0,6.248856544E0,-8.356932640E0,8.237292171E-1
3.821027678E0,6.359524250E0,-8.282755852E0,9.343972206E-1
3.823254852E0,6.247660160E0,-8.338987350E0,1.033699393E0
3.825501189E0,6.452844620E0,-8.342576027E0,1.092921734E0
3.827729705E0,6.664011002E0,-8.331210136E0,1.094716311E0
3.829980071E0,6.735197544E0,-8.361120224E0,1.124028444E0
3.832213592E0,6.812366009E0,-8.343173981E0,1.091127157E0
3.834452849E0,6.961917400E0,-8.287541389E0,1.045065284E0
3.836686736E0,7.091728210E0,-8.242077827E0,1.070189953E0
3.838923309E0,7.036095142E0,-8.111668587E0,1.045663476E0
3.841159881E0,7.076773167E0,-7.978269100E0,1.040877819E0
3.843396697E0,7.045666218E0,-7.796414375E0,1.045065284E0
3.845634002E0,6.812366009E0,-7.682755470E0,1.042672515E0
3.847869598E0,6.661019802E0,-7.566105366E0,1.055234790E0
3.850101714E0,6.508477688E0,-7.491927624E0,1.110867858E0
3.852324676E0,6.326025009E0,-7.479963779E0,1.180858016E0
3.854579314E0,6.176473618E0,-7.497311592E0,1.241276741E0
3.856815826E0,6.224927902E0,-7.445267677E0,1.251446247E0
3.859056731E0,6.283552170E0,-7.431509018E0,1.123430252E0
3.861289580E0,6.494719028E0,-7.405786037E0,1.120439172E0
3.863526885E0,6.674778938E0,-7.345367432E0,9.122636318E-1
3.865762481E0,6.753143787E0,-7.326224804E0,7.268198729E-1
3.867998748E0,6.746563435E0,-7.220342159E0,5.784648657E-1
3.870236663E0,6.666403770E0,-7.180262566E0,4.396811724E-1
3.872477508E0,6.518048763E0,-7.234699249E0,3.140579760E-1
3.874708709E0,6.403791428E0,-7.242475986E0,2.608176768E-1
3.876945037E0,6.518647194E0,-7.262814999E0,2.045863420E-1
3.879180754E0,6.730412006E0,-7.232306480E0,1.256231815E-1
3.881419341E0,6.856035233E0,-7.171887875E0,9.332008660E-2
3.883654754E0,6.939185619E0,-7.106084824E0,2.691925503E-2
3.885891570E0,6.829713821E0,-7.085147858E0,-1.196411345E-2
3.888126189E0,6.661618233E0,-7.149155617E0,-8.494520187E-2
3.890352508E0,6.695117950E0,-7.173084259E0,-1.322034448E-1
3.892595245E0,6.843472958E0,-7.165905476E0,-1.022931710E-1
3.894837615E0,7.016354084E0,-7.111468792E0,-2.931207791E-2
3.897077361E0,7.257431030E0,-6.939185619E0,1.010967568E-1
3.899310271E0,7.485945702E0,-6.603592396E0,2.793620527E-1
3.901534576E0,7.457231998E0,-6.536593437E0,3.553341627E-1
3.903783904E0,7.324429989E0,-6.429514408E0,4.157529473E-1
3.906020416E0,7.214360237E0,-6.423532486E0,4.097708762E-1
3.908260284E0,6.925426960E0,-6.509674072E0,4.313062727E-1
3.910493926E0,6.727420807E0,-6.607181549E0,4.582255483E-1
3.912730437E0,6.659225464E0,-6.626324177E0,5.718846321E-1
3.914967315E0,6.621538639E0,-6.634698868E0,4.809573591E-1
3.917201507E0,6.694519520E0,-6.644868374E0,3.290131092E-1
3.919424895E0,6.780661106E0,-6.664609432E0,2.679961324E-1
3.921664458E0,6.930212498E0,-6.656832695E0,1.692921966E-1
3.923912750E0,7.088737011E0,-6.644868374E0,9.930214286E-2
3.926152679E0,7.176673412E0,-6.621538639E0,-6.699903309E-2
3.928389434E0,7.210771084E0,-6.611967087E0,-9.032905847E-2
3.930622893E0,7.095317364E0,-6.615556240E0,-1.495514158E-2
3.932860137E0,7.075576782E0,-6.605985165E0,6.101697683E-2
3.935097076E0,7.094718933E0,-6.563512325E0,1.136590764E-1
3.937332488E0,7.066603661E0,-6.510870457E0,1.369891018E-1
3.939566008E0,7.004988194E0,-6.457031727E0,1.316052526E-1
3.941793670E0,7.052844524E0,-6.458228111E0,1.698904037E-1
3.944042510E0,6.961319447E0,-6.475576401E0,1.501496136E-1
3.946279082E0,6.807580471E0,-6.530611038E0,1.633101404E-1
3.948518585E0,6.677171707E0,-6.576673031E0,2.099701911E-1
3.950752471E0,6.555736065E0,-6.675376892E0,2.327020019E-1
3.952989959E0,6.329015732E0,-6.734599113E0,3.212364316E-1
3.955222380E0,6.245266914E0,-6.829713821E0,4.301098585E-1
3.957448028E0,6.176473618E0,-6.876972198E0,5.443671346E-1
3.959686675E0,6.069993019E0,-6.946962357E0,5.431707501E-1
3.961923309E0,6.044867992E0,-7.046862602E0,5.240281820E-1
3.964174469E0,6.115456581E0,-7.167101860E0,4.534398913E-1
3.966410125E0,6.210571289E0,-7.254439831E0,4.115654826E-1
3.968648162E0,6.357729912E0,-7.323832035E0,4.606183469E-1
3.970882354E0,6.385247231E0,-7.396214962E0,4.468596280E-1
3.973118133E0,6.480361938E0,-7.445267677E0,4.576273263E-1
3.975354156E0,6.474380016E0,-7.474579811E0,5.335994363E-1
3.977590789E0,6.445665836E0,-7.483552933E0,5.712863803E-1
3.979827544E0,6.512066841E0,-7.475776196E0,6.532405615E-1
3.982064300E0,6.530611038E0,-7.452445984E0,7.818548083E-1
3.984300994E0,6.476772785E0,-7.447660446E0,9.008977413E-1
3.986537566E0,6.567699909E0,-7.472784996E0,9.206385016E-1
3.988774871E0,6.614958286E0,-7.516454220E0,9.212366939E-1
3.991010467E0,6.700501442E0,-7.541578770E0,8.985049129E-1
3.993247344E0,6.738786697E0,-7.608577728E0,8.081758618E-1
3.995483611E0,6.843472958E0,-7.663014412E0,7.806583643E-1
3.997720245E0,6.752545357E0,-7.699504852E0,6.987041831E-1
3.999957000E0,6.739385128E0,-7.679764271E0,6.412764788E-1
4.002193511E0,6.759125710E0,-7.641479015E0,5.988038778E-1
4.004430205E0,6.746563435E0,-7.583453178E0,4.983053207E-1
4.006667632E0,6.719046116E0,-7.487142086E0,4.689932466E-1
4.008902984E0,6.773482800E0,-7.401598454E0,4.121637046E-1
4.011139678E0,6.731009960E0,-7.348956585E0,4.402793646E-1
4.013376129E0,6.736393929E0,-7.286743164E0,4.881358147E-1
4.015614105E0,6.673582554E0,-7.243672371E0,6.400800347E-1
4.017853911E0,6.639484406E0,-7.258029461E0,7.208378315E-1
4.020079802E0,6.600003242E0,-7.248457909E0,8.632107973E-1
4.022308379E0,6.464808464E0,-7.270591736E0,9.625129104E-1
4.024544525E0,6.416353703E0,-7.289135933E0,1.000199914E0
4.026785797E0,6.343971252E0,-7.298109055E0,1.042672515E0
4.029035858E0,6.193821430E0,-7.320242882E0,1.155733347E0
4.031272673E0,6.135795593E0,-7.329215527E0,1.221535921E0
4.033506499E0,6.131010056E0,-7.314858913E0,1.245464206E0
4.035734771E0,6.030511379E0,-7.308876991E0,1.268195987E0
4.037978545E0,5.780461311E0,-7.366902828E0,1.247258782E0
4.040212859E0,5.641677380E0,-7.393223763E0,1.188634634E0
4.042442962E0,5.685346603E0,-7.350750923E0,1.226919770E0
4.044688384E0,5.776872158E0,-7.276573658E0,1.318445325E0
4.046924712E0,5.742774487E0,-7.267002583E0,1.408774376E0
4.049164214E0,5.689534187E0,-7.304090977E0,1.412961721E0
4.051397918E0,5.760720730E0,-7.353144169E0,1.361516118E0
4.053632903E0,5.827719688E0,-7.401598454E0,1.319043517E0
4.055863677E0,5.966503143E0,-7.441678524E0,1.268195987E0
4.058107940E0,5.894120216E0,-7.473981380E0,1.286740422E0
4.060345367E0,5.932405472E0,-7.474579811E0,1.277169108E0
4.062582671E0,6.072385788E0,-7.423732281E0,1.202393413E0
4.064817657E0,6.130411625E0,-7.386045456E0,1.198205948E0
4.067053924E0,6.126224041E0,-7.342974663E0,1.197607756E0
4.069290801E0,6.189633846E0,-7.310073376E0,1.107876897E0
4.071527373E0,6.359524250E0,-7.226324558E0,1.037886858E0
4.073764129E0,6.672984123E0,-7.092326164E0,9.643075466E-1
4.076000701E0,6.856633186E0,-6.999604225E0,9.846464992E-1
4.078238006E0,6.918846607E0,-6.966702938E0,9.948160052E-1
4.080473541E0,7.106084824E0,-6.932007313E0,1.053440213E0
4.082709502E0,7.326822758E0,-6.930212498E0,1.012762189E0
4.084943816E0,7.282555580E0,-6.996613503E0,1.045663476E0
4.087183318E0,7.261618614E0,-7.101299286E0,1.055234790E0
4.089419158E0,7.250252724E0,-7.230511665E0,1.026520967E0
4.091654265E0,7.124031067E0,-7.395018578E0,9.308080077E-1
4.093890654E0,7.054041386E0,-7.657032490E0,8.398807645E-1
4.096119109E0,7.130013466E0,-8.093124390E0,7.794619799E-1
4.098366912E0,6.971488953E0,-8.496912956E0,7.070791125E-1
4.100599456E0,6.704091072E0,-8.751151085E0,7.190431952E-1
4.102829071E0,6.242276192E0,-8.787641525E0,8.386843204E-1
4.105076080E0,5.961717606E0,-8.913264275E0,9.798609018E-1
4.107312225E0,5.977869034E0,-9.099904060E0,1.027717352E0
4.109549346E0,5.198407173E0,-8.907281876E0,1.197009563E0
4.111774138E0,4.797011375E0,-8.800801277E0,1.216750264E0
4.114023284E0,5.082355499E0,-9.034101486E0,1.115055323E0
4.116258025E0,4.819743156E0,-8.915657043E0,1.159920812E0
4.118498321E0,4.645665169E0,-8.683553696E0,1.186241865E0
4.120728850E0,4.829912663E0,-8.505288124E0,1.231107235E0
4.122953704E0,4.969892502E0,-8.516056061E0,1.131805062E0
4.125192962E0,4.959722996E0,-8.611170769E0,1.022333503E0
4.127441131E0,4.738985062E0,-8.678768158E0,9.014959335E-1
4.129678801E0,4.290929317E0,-8.590232849E0,8.063812256E-1
4.131907318E0,4.015754700E0,-8.442476273E0,7.082754970E-1
4.134151702E0,3.988835335E0,-8.379066467E0,6.221339107E-1
4.136387908E0,4.152145386E0,-8.391031265E0,5.377869010E-1
4.138627349E0,4.188635826E0,-8.506484032E0,5.718846321E-1
4.140858001E0,4.224528313E0,-8.622536659E0,6.819544435E-1
4.143085662E0,4.236492634E0,-8.746963501E0,7.106683254E-1
4.145334197E0,4.278367043E0,-8.848059654E0,7.256234884E-1
4.147571258E0,4.487140656E0,-8.942576408E0,7.561319470E-1
4.149811370E0,4.686343193E0,-9.074779510E0,7.824530005E-1
4.152044158E0,4.861617565E0,-9.206384659E0,7.986045480E-1
4.154280425E0,5.075176716E0,-9.339186668E0,8.386843204E-1
4.156516876E0,5.285147190E0,-9.342776299E0,9.170492887E-1
4.158753875E0,5.395814896E0,-9.291928291E0,9.990034699E-1
4.160990508E0,5.410770416E0,-9.225527763E0,1.046859860E0
4.163227080E0,5.468796253E0,-9.183054924E0,1.027717352E0
4.165463836E0,5.522634506E0,-9.154939651E0,8.949156404E-1
4.167701141E0,5.581258774E0,-9.188439369E0,7.094719410E-1
4.169936675E0,5.573482037E0,-9.192028046E0,5.090730190E-1
4.172173308E0,5.536393166E0,-9.185447693E0,3.134597540E-1
4.174410552E0,5.547759533E0,-9.175278664E0,1.417747438E-1
4.176646209E0,5.458028316E0,-9.154341698E0,2.392822644E-3
4.178883025E0,5.334797859E0,-9.128020287E0,-8.913264424E-2
4.181119048E0,5.167898655E0,-9.086744308E0,-1.477568001E-1
4.183356231E0,4.967499733E0,-9.078967094E0,-1.878365725E-1
4.185593719E0,4.689334393E0,-9.103493690E0,-2.093719840E-1
4.187826384E0,4.362713814E0,-9.150752068E0,-2.075773627E-1
4.190050933E0,4.073182583E0,-9.238089561E0,-1.148554832E-1
4.192290008E0,3.908077478E0,-9.317651749E0,5.084748194E-2
4.194538970E0,3.790829182E0,-9.349954605E0,2.165504545E-1
4.196778350E0,3.742374659E0,-9.316454887E0,3.972085714E-1
4.199015228E0,3.683750391E0,-9.292527199E0,5.635097623E-1
4.201248992E0,3.645465374E0,-9.254241943E0,6.681957245E-1
4.203486358E0,3.544966698E0,-9.219545364E0,6.717849374E-1
4.205721832E0,3.440280676E0,-9.193822861E0,6.376872063E-1
4.207958221E0,3.373879910E0,-9.206384659E0,5.030909777E-1
4.210194854E0,3.293122053E0,-9.200403214E0,4.456632137E-1
4.212431853E0,3.244069338E0,-9.280562401E0,4.354937077E-1
4.214668243E0,3.142374277E0,-9.375079155E0,4.540380836E-1
4.216903655E0,3.084348440E0,-9.436096191E0,4.007977843E-1
4.219134613E0,3.059223652E0,-9.492925644E0,4.055834413E-1
4.221368865E0,3.001197815E0,-9.563513756E0,3.906283081E-1
4.223614410E0,2.928216696E0,-9.614959717E0,4.043870270E-1
4.225851958E0,2.864806890E0,-9.624530792E0,5.042873621E-1
4.228090117E0,2.913261652E0,-9.568299294E0,5.904290080E-1
4.230324187E0,2.975475073E0,-9.521639824E0,6.957131624E-1
4.232560882E0,3.119044304E0,-9.419346809E0,8.638089895E-1
4.234797515E0,3.215355396E0,-9.240483284E0,1.112064362E0
4.237034148E0,3.384049416E0,-9.100502968E0,1.266401410E0
4.239271514E0,3.614956856E0,-8.979664803E0,1.325623751E0
4.241507293E0,3.891926050E0,-8.758927345E0,1.293918848E0
4.243744170E0,4.027120590E0,-8.627322197E0,1.362114310E0
4.245981170E0,4.234697819E0,-8.482556343E0,1.439880967E0
4.248216766E0,4.455435753E0,-8.391031265E0,1.594218135E0
4.250453521E0,4.567300320E0,-8.249256134E0,1.604387641E0
4.252687835E0,4.737190723E0,-8.094321251E0,1.620539188E0
4.254916411E0,4.886143684E0,-7.709076405E0,1.625923038E0
4.257151031E0,5.115854740E0,-7.454240799E0,1.584646821E0
4.259396453E0,5.236093998E0,-7.455437183E0,1.461416483E0
4.261625335E0,5.417350292E0,-7.543971539E0,1.411167145E0
4.263876007E0,5.415555954E0,-7.649255753E0,1.439880967E0
4.266109344E0,5.370690346E0,-7.791628838E0,1.396810174E0
4.268349151E0,5.431109428E0,-7.978867054E0,1.331007600E0
4.270582732E0,5.390431404E0,-8.221738815E0,1.211366415E0
4.272819549E0,5.368896008E0,-8.426324844E0,1.111466169E0
4.275056609E0,5.294120312E0,-8.659625053E0,1.063609719E0
4.277292144E0,5.302495003E0,-8.788239479E0,9.493523836E-1
4.279525786E0,5.358726501E0,-8.884550095E0,9.218349457E-1
4.281753997E0,5.402993679E0,-8.918049812E0,7.597211599E-1
4.284001433E0,5.372485161E0,-9.032307625E0,7.166503668E-1
4.286226775E0,5.420341492E0,-9.023334503E0,7.507480979E-1
4.288478118E0,5.444868088E0,-8.990432739E0,7.651050687E-1
4.290711822E0,5.455635548E0,-8.942576408E0,7.363911867E-1
4.292952362E0,5.400002480E0,-8.798408508E0,7.645068169E-1
4.295184783E0,5.376672268E0,-8.707481384E0,8.069794178E-1
4.297421294E0,5.487938881E0,-8.589634895E0,9.032905698E-1
4.299657867E0,5.660820007E0,-8.473583221E0,1.023529887E0
4.301894561E0,5.784648895E0,-8.376075745E0,1.291526079E0
4.304131377E0,6.074180126E0,-8.128418922E0,1.527817249E0
4.306367889E0,6.396014690E0,-7.722237110E0,1.563111424E0
4.308604766E0,6.747161865E0,-7.306483746E0,1.537388563E0
4.310842010E0,7.071389198E0,-6.860820770E0,1.310668588E0
4.313077544E0,7.337590694E0,-6.542575359E0,9.355936646E-1
4.315314239E0,7.444669247E0,-6.340980053E0,5.168496966E-1
4.317551727E0,7.495516777E0,-6.221338749E0,3.355933726E-1
4.319786712E0,7.448856831E0,-6.153741837E0,2.781656384E-1
4.322019194E0,7.545766354E0,-6.083153248E0,2.787638307E-1
4.324250884E0,7.780860901E0,-6.001199245E0,3.906283081E-1
4.326497283E0,8.015955925E0,-5.881557941E0,5.593222976E-1
4.328735198E0,8.166105270E0,-5.717051506E0,6.652047038E-1
4.330972503E0,8.191828728E0,-5.569294930E0,7.465606928E-1
4.333206756E0,8.198408127E0,-5.440680504E0,7.698906660E-1
4.335443084E0,8.112266541E0,-5.377270699E0,8.219345808E-1
4.337679900E0,8.040482521E0,-5.361717224E0,8.255237937E-1
4.339916473E0,7.896314621E0,-5.392824173E0,8.243274093E-1
4.342153045E0,7.708477974E0,-5.509474277E0,7.992027402E-1
4.344389861E0,7.433303356E0,-5.653641701E0,7.776673436E-1
4.346627166E0,7.052246571E0,-5.863013744E0,7.411768436E-1
4.348861297E0,6.612565517E0,-6.090332031E0,7.328019142E-1
4.351090484E0,6.269195557E0,-6.320042610E0,7.441678643E-1
4.353323699E0,6.007181168E0,-6.531209469E0,8.087740541E-1
4.355572417E0,5.836094379E0,-6.710670948E0,8.985049129E-1
4.357810272E0,5.752943993E0,-6.815357208E0,9.409775138E-1
4.360048614E0,5.699105263E0,-6.871588230E0,9.308080077E-1
4.362282500E0,5.627320766E0,-6.889534473E0,9.206385016E-1
4.364520110E0,5.507679462E0,-6.878168583E0,9.337990284E-1
4.366755584E0,5.407180786E0,-6.857829571E0,9.613165259E-1
4.368991912E0,5.388038158E0,-6.833303452E0,9.613165259E-1
4.371228179E0,5.369493961E0,-6.809374809E0,9.565308690E-1
4.373464996E0,5.384449005E0,-6.775875568E0,9.182456732E-1
4.375701629E0,5.413761139E0,-6.752545357E0,9.134600163E-1
4.377938262E0,5.423930645E0,-6.714260101E0,9.134600163E-1
4.380175323E0,5.447260857E0,-6.681957245E0,1.013958573E0
4.382412566E0,5.394618511E0,-6.647859573E0,1.094716311E0
4.384647918E0,5.391029358E0,-6.652047157E0,9.607182741E-1
4.386882354E0,5.467599869E0,-6.662216663E0,9.379864931E-1
4.389110992E0,5.423930645E0,-6.690331936E0,9.469595551E-1
4.391351836E0,5.400002480E0,-6.718447685E0,9.038887620E-1
4.393594451E0,5.422734261E0,-6.790830612E0,9.427721500E-1
4.395832854E0,5.417948723E0,-6.852446079E0,8.039883971E-1
4.398069122E0,5.450850010E0,-6.886543751E0,8.237292171E-1
4.400305083E0,5.421537876E0,-6.919445038E0,8.285148144E-1
4.402540557E0,5.382654667E0,-6.947560310E0,8.805587292E-1
4.404777373E0,5.397011280E0,-6.957131863E0,8.231309652E-1
4.407013580E0,5.548955917E0,-7.050451756E0,8.536394835E-1
4.409250274E0,5.557330608E0,-7.074978352E0,9.110672474E-1
4.411487090E0,5.546562672E0,-7.113861561E0,1.025324464E0
4.413723846E0,5.565107346E0,-7.109674454E0,1.121037364E0
4.415956634E0,5.464010715E0,-7.146164894E0,1.134197950E0
4.418179290E0,5.358726501E0,-7.068397999E0,1.209571838E0
4.420421050E0,5.249852657E0,-7.057032108E0,1.079761267E0
4.422669891E0,5.207978249E0,-7.012764931E0,1.031306505E0
4.424910003E0,5.339583874E0,-7.149155617E0,1.075573802E0
4.427145843E0,5.508277893E0,-7.357929707E0,1.187438250E0
4.429379607E0,5.515456200E0,-7.506284714E0,1.235294700E0
4.431616180E0,5.380859852E0,-7.514061451E0,1.291526079E0
4.433852996E0,5.331208706E0,-7.557132244E0,1.381855130E0
4.436090057E0,5.350351334E0,-7.519444942E0,1.472184181E0
4.438325835E0,5.517848969E0,-7.484150887E0,1.535593987E0
4.440562286E0,5.458028316E0,-7.305885792E0,1.554138303E0
4.442799102E0,5.657230854E0,-6.925426960E0,1.321436286E0
4.445035613E0,6.640082836E0,-6.178866386E0,1.322034448E-1
4.447272307E0,8.263014793E0,-6.374479294E0,-8.135596663E-2
4.449505950E0,6.257829189E0,-7.989036560E0,2.788236618E0
4.451733672E0,7.078567505E0,-7.883752346E0,2.218146563E0
4.453980132E0,6.623931408E0,-7.671389580E0,1.265205026E0
4.456202117E0,5.468197823E0,-7.896913052E0,1.011565804E0
4.458438079E0,4.746761799E0,-8.276175499E0,6.622136831E-1
4.460676604E0,4.771288395E0,-8.300103188E0,5.958128572E-1
4.462914398E0,4.377070904E0,-8.420941353E0,1.088136077E0
4.465169280E0,4.457230568E0,-8.691329956E0,1.418345571E0
4.467403777E0,4.732405186E0,-8.934201241E0,1.311864972E0
4.469639739E0,4.412364960E0,-9.197412491E0,1.304686546E0
4.471863921E0,4.155136585E0,-9.183054924E0,1.177866936E0
4.474111114E0,4.035495281E0,-9.171689034E0,1.129412293E0
4.476347625E0,4.126422882E0,-9.220742226E0,1.087537885E0
4.478587065E0,3.379862070E0,-9.247062683E0,9.421738982E-1
4.480817839E0,3.664607763E0,-8.934201241E0,6.484549642E-1
4.483042876E0,4.350749969E0,-8.763712883E0,7.884350419E-1
4.485282867E0,4.540380955E0,-8.979066849E0,1.252642632E0
4.487530791E0,4.080958843E0,-9.366703987E0,1.702493310E0
4.489771270E0,4.094119549E0,-9.428917885E0,1.726421595E0
4.492006621E0,4.094119549E0,-9.518648148E0,1.554736495E0
4.494240203E0,4.262215137E0,-9.466604233E0,1.041476011E0
4.496476470E0,4.378267288E0,-9.250652313E0,6.317051649E-1
4.498713287E0,4.573282242E0,-9.259625435E0,8.434699774E-1
4.500949981E0,4.989633560E0,-9.510871887E0,1.057627559E0
4.503186736E0,5.367101192E0,-9.602396965E0,9.942178130E-1
4.505423308E0,5.233701229E0,-9.556933403E0,9.547362328E-1
4.507660674E0,5.610570908E0,-9.122037888E0,7.668996453E-1
4.509896453E0,5.806184292E0,-8.659625053E0,5.054838061E-1
4.512133025E0,5.635097504E0,-8.326424599E0,3.415754437E-1
4.514369109E0,5.845665932E0,-7.990232944E0,3.762713671E-1
4.516605926E0,6.652047157E0,-7.322635651E0,2.057827413E-1
4.518839812E0,7.216155052E0,-6.723831654E0,2.386840582E-1
4.521064605E0,7.371089935E0,-6.606583118E0,2.494517565E-1
4.523301116E0,7.570292473E0,-6.111867428E0,1.453639716E-1
4.525539031E0,8.178668022E0,-4.993820667E0,4.115654826E-1
4.527777190E0,8.183453560E0,-4.832305431E0,7.214360237E-1
4.530013701E0,8.528617859E0,-4.847260475E0,6.861419082E-1
4.532250823E0,9.242876053E0,-4.450051785E0,1.359721422E0
4.534486907E0,7.932207108E0,-5.352744102E0,1.229910851E0
4.536724212E0,4.881358147E0,-8.127222061E0,-9.343972206E-1
4.538962921E0,3.447459221E0,-1.050808048E1,-1.477568030E0
4.541211700E0,3.394218922E0,-1.174576855E1,-6.077769399E-1
4.543448882E0,2.286342144E0,-1.287936783E1,-9.152546525E-2
4.545684721E0,2.261217356E0,-1.321855068E1,8.973085321E-3
4.547917876E0,2.327019930E0,-1.305942822E1,4.528416991E-1
4.550154266E0,2.488535643E0,-1.245045471E1,5.868397355E-1
4.552391265E0,3.140579700E0,-1.162732315E1,1.411167145E0
4.554627959E0,3.038884640E0,-1.098784161E1,2.057827473E0
4.556864532E0,3.230908871E0,-1.033041382E1,2.015354872E0
4.559101287E0,3.268595695E0,-9.723833084E0,1.990828395E0
4.561338592E0,3.463610888E0,-9.406784058E0,2.130808592E0
4.563574126E0,3.016751051E0,-9.826126099E0,2.175075769E0
4.565810516E0,3.224328518E0,-9.913464546E0,1.814357758E0
4.568047088E0,3.718446493E0,-9.950552940E0,1.051645517E0
4.570283904E0,3.534198999E0,-1.016411209E1,2.967100143E-1
4.572520538E0,3.114856958E0,-1.039681435E1,2.500499785E-1
4.574757049E0,4.278964996E0,-9.640682220E0,4.360919297E-1
4.576993865E0,5.044668198E0,-9.277571678E0,1.138983607E0
4.579231170E0,2.334198475E0,-1.160698414E1,-2.410768867E-1
4.581463836E0,1.730608940E0,-1.320419312E1,-1.293320656E0
4.583688628E0,1.808973908E0,-1.367258835E1,-5.904290080E-1
4.585927703E0,2.386840582E0,-1.341715431E1,1.244267747E-1
4.588176543E0,2.566900492E0,-1.305823135E1,4.498506486E-1
4.590416229E0,2.456232548E0,-1.277707481E1,9.732806087E-1
4.592652618E0,1.995614052E0,-1.270409393E1,1.250249863E0
4.594886443E0,1.304088354E0,-1.277528000E1,1.334596872E0
4.597123748E0,8.219345808E-1,-1.262991619E1,1.372882009E0
4.599359527E0,7.076773047E-1,-1.227338600E1,1.275374413E0
4.601594024E0,8.614161611E-1,-1.196949673E1,1.181456208E0
4.603825713E0,1.211964726E0,-1.169133186E1,9.643075466E-1
4.606069305E0,1.704886079E0,-1.122413254E1,7.298108935E-1
4.608305938E0,2.056631088E0,-1.058704376E1,3.936193287E-1
4.610543853E0,2.305484533E0,-1.004447079E1,1.848455518E-1
4.612778960E0,2.476571321E0,-9.960124016E0,-8.075776696E-2
4.615016265E0,2.586641312E0,-9.702896118E0,-1.752742529E-1
4.617251922E0,2.691925526E0,-9.020941734E0,-1.471585929E-1
4.619485137E0,2.682354212E0,-8.379665375E0,-1.531406492E-1
4.621711395E0,2.801995277E0,-7.994420528E0,-9.032905847E-2
4.623961639E0,2.960519791E0,-7.690532207E0,-1.465603858E-1
4.626198211E0,2.951546669E0,-7.637889862E0,-1.471585929E-1
4.628438201E0,2.991028309E0,-7.566703320E0,-1.800599098E-1
4.630669525E0,3.397808075E0,-7.190432072E0,-4.845465720E-2
4.632899627E0,3.750749588E0,-7.197012424E0,1.651047617E-1
4.635144500E0,3.643072367E0,-7.061219692E0,1.112662554E-1
4.637381072E0,3.605385542E0,-6.998407841E0,1.202393398E-1
4.639617034E0,3.601198196E0,-6.969694138E0,1.250249892E-1
4.641842498E0,3.671188116E0,-7.052246571E0,1.782652885E-1
4.644090789E0,3.602394581E0,-7.180262566E0,1.776670814E-1
4.646327361E0,3.171686411E0,-7.026523590E0,3.595215976E-1
4.648565338E0,2.663211584E0,-6.932605267E0,1.237089276E0
4.650793426E0,2.527418852E0,-6.988238335E0,1.331007600E0
4.653037078E0,2.526222467E0,-7.076174736E0,7.639086246E-1
4.655273650E0,2.536391973E0,-6.992425919E0,2.440679073E-1
4.657512237E0,2.764308453E0,-6.870990276E0,8.853443712E-2
4.659746795E0,2.986242771E0,-6.768697262E0,4.725824669E-2
4.661983367E0,3.172284603E0,-6.753143787E0,2.015953064E-1
4.664220000E0,3.262015581E0,-6.774080753E0,3.266202807E-1
4.666457305E0,3.241078377E0,-6.812964439E0,5.222335458E-1
4.668694305E0,3.092125177E0,-6.984649181E0,8.261220455E-1
4.670929717E0,3.211168051E0,-7.317251682E0,9.613165259E-1
4.673166717E0,3.427718401E0,-7.621140003E0,8.967102766E-1
4.675404022E0,3.313461065E0,-7.953742504E0,7.627122402E-1
4.677639678E0,3.164507866E0,-8.295916557E0,8.051848412E-1
