"Time (s)","Gyroscope x (rad/s)","Gyroscope y (rad/s)","Gyroscope z (rad/s)"
2.332636800E-2,-6.750060618E-2,-2.593123019E-1,1.437060535E-1
2.556295500E-2,-8.200865984E-2,-2.432770878E-1,1.485929638E-1
2.779954200E-2,-9.147707373E-2,-2.272418737E-1,1.485929638E-1
3.003612900E-2,-1.021672115E-1,-2.064724565E-1,1.472185254E-1
3.226106900E-2,-1.091921628E-1,-1.928807050E-1,1.459967941E-1
3.449801200E-2,-1.149953827E-1,-1.734857261E-1,1.461495161E-1
3.673678500E-2,-1.171334088E-1,-1.576032341E-1,1.424843222E-1
3.898129200E-2,-1.168279797E-1,-1.418734491E-1,1.351539344E-1
4.120657300E-2,-1.165225431E-1,-1.284344196E-1,1.304197311E-1
4.344375500E-2,-1.111774743E-1,-1.104138941E-1,1.255328059E-1
4.567922900E-2,-1.072068512E-1,-9.834930301E-2,1.195768714E-1
4.792037900E-2,-9.941831976E-2,-8.384125680E-2,1.136209369E-1
5.015426500E-2,-8.918632567E-2,-6.475171447E-2,1.101084575E-1
5.239053300E-2,-8.032877743E-2,-5.390885845E-2,1.027780771E-1
5.462533400E-2,-7.131851465E-2,-3.833179548E-2,9.804387391E-2
5.686282300E-2,-6.490442902E-2,-2.748893574E-2,8.964447677E-2
5.909927300E-2,-5.482515693E-2,-1.679879427E-2,8.613199741E-2
6.133590600E-2,-4.352414981E-2,-9.773843922E-3,7.757988572E-2
6.357247800E-2,-4.214970022E-2,-7.330383174E-3,6.780604273E-2
6.580917300E-2,-3.588833287E-2,-3.817907767E-3,6.307183951E-2
6.804568400E-2,-2.977968007E-2,-5.192354787E-3,5.329799280E-2
7.028341600E-2,-2.474004216E-2,-4.123340361E-3,4.841107130E-2
7.251901200E-2,-1.985312067E-2,-6.566801574E-3,4.108068720E-2
7.475668200E-2,-2.229658142E-2,-1.023199316E-2,3.375030309E-2
7.699203400E-2,-2.351831272E-2,-1.496619824E-2,2.764165215E-2
7.922927800E-2,-2.733621933E-2,-1.740965992E-2,2.504547499E-2
8.146511800E-2,-2.977968007E-2,-1.970040426E-2,2.260201424E-2
8.370327700E-2,-3.344487399E-2,-1.603521220E-2,2.138028294E-2
8.594326700E-2,-3.466660157E-2,-1.847867295E-2,2.138028294E-2
8.817660400E-2,-3.344487399E-2,-1.847867295E-2,2.015855350E-2
9.041311600E-2,-3.222314268E-2,-2.092213556E-2,2.015855350E-2
9.264785600E-2,-3.481931984E-2,-2.565634064E-2,2.504547499E-2
9.488632100E-2,-3.497203439E-2,-2.809980139E-2,2.626720630E-2
9.712289400E-2,-3.130684420E-2,-2.947424725E-2,3.237585723E-2
9.935879400E-2,-3.023782931E-2,-3.665191308E-2,3.481931984E-2
1.015944510E-1,-2.779436857E-2,-3.802636266E-2,3.726277873E-2
1.038315730E-1,-2.428189293E-2,-4.291328415E-2,3.970624134E-2
1.060693660E-1,-2.199114859E-2,-4.902193695E-2,4.337143153E-2
1.083044730E-1,-1.970040426E-2,-5.879577994E-2,4.459316283E-2
1.105411060E-1,-1.725694351E-2,-6.490442902E-2,4.214970022E-2
1.127767630E-1,-1.511891466E-2,-7.467827946E-2,4.581489414E-2
1.150137630E-1,-1.771509275E-2,-8.674286306E-2,4.688390717E-2
1.172522880E-1,-1.298088674E-2,-9.407325089E-2,4.688390717E-2
1.194917900E-1,-6.872233935E-3,-9.666942805E-2,4.581489414E-2
1.217236620E-1,-5.803219974E-3,-1.052215397E-1,4.703662544E-2
1.239621880E-1,-5.955935922E-3,-1.099557430E-1,4.444044828E-2
1.261967460E-1,1.527163113E-4,-1.125519201E-1,4.581489414E-2
1.284346610E-1,3.817907767E-3,-1.137736514E-1,4.337143153E-2
1.306705010E-1,5.039638374E-3,-1.174388453E-1,4.337143153E-2
1.329067070E-1,6.261368748E-3,-1.163698286E-1,4.337143153E-2
1.351430350E-1,7.635815535E-3,-1.114829108E-1,4.092797264E-2
1.373804010E-1,3.970623948E-3,-1.125519201E-1,3.970624134E-2
1.396166070E-1,7.483099122E-3,-1.163698286E-1,3.726277873E-2
1.418540950E-1,6.261368748E-3,-1.186605766E-1,3.481931984E-2
1.440896900E-1,2.596177394E-3,-1.186605766E-1,2.977968007E-2
1.463265680E-1,1.527163084E-3,-1.149953827E-1,2.611448988E-2
1.485630790E-1,-4.734205548E-3,-1.185078546E-1,2.000583708E-2
1.507990410E-1,-1.099557430E-2,-1.244637966E-1,1.863138936E-2
1.530370170E-1,-1.343903504E-2,-1.256855279E-1,1.252273750E-2
1.552722470E-1,-1.588249579E-2,-1.291979998E-1,1.007927675E-2
1.575098560E-1,-2.076941915E-2,-1.290452778E-1,7.635815535E-3
1.597480770E-1,-2.580905706E-2,-1.302670091E-1,3.817907767E-3
1.619818410E-1,-2.580905706E-2,-1.351539344E-1,1.527163113E-4
1.642201220E-1,-2.596177347E-2,-1.386664063E-1,-1.069014193E-3
1.664573670E-1,-2.718350291E-2,-1.423316002E-1,-5.955935922E-3
1.686925960E-1,-2.611448988E-2,-1.484402567E-1,-7.177666761E-3
1.709291680E-1,-2.367102914E-2,-1.557706445E-1,-8.399397135E-3
1.731669000E-1,-2.015855350E-2,-1.655444801E-1,-1.466076635E-2
1.754051810E-1,-1.542434748E-2,-1.740965992E-1,-1.695151068E-2
1.776391290E-1,-1.053742506E-2,-1.779145002E-1,-2.061670274E-2
1.798738090E-1,-4.428773187E-3,-1.803579628E-1,-2.428189293E-2
1.821104420E-1,1.679879380E-3,-1.853975952E-1,-2.672535367E-2
1.843475640E-1,1.145372353E-2,-1.904372424E-1,-3.039054573E-2
1.865845020E-1,1.740965992E-2,-1.977676302E-1,-3.512475267E-2
1.888206470E-1,2.229658142E-2,-2.052507252E-1,-3.756821156E-2
1.910570370E-1,2.825251780E-2,-2.113593817E-1,-4.123340547E-2
1.932940970E-1,3.558290005E-2,-2.188424766E-1,-4.123340547E-2
1.955343930E-1,4.153883830E-2,-2.298380435E-1,-4.489859566E-2
1.977817060E-1,4.260785133E-2,-2.371684313E-1,-4.612032697E-2
2.000180350E-1,4.489859566E-2,-2.444988191E-1,-4.489859566E-2
2.022546070E-1,4.963280261E-2,-2.554943860E-1,-4.856378585E-2
2.044884940E-1,5.054909736E-2,-2.664899528E-1,-4.627304152E-2
2.067250660E-1,5.054909736E-2,-2.712241709E-1,-4.382958263E-2
2.089614550E-1,5.283984542E-2,-2.797762752E-1,-4.260785133E-2
2.111986990E-1,5.131268129E-2,-2.919935882E-1,-4.016438872E-2
2.134356990E-1,5.238169432E-2,-3.003929853E-1,-3.649919853E-2
2.156682420E-1,5.467243865E-2,-3.052799106E-1,-3.283400834E-2
2.178961480E-1,5.436700583E-2,-3.162754774E-1,-3.039054573E-2
2.201442560E-1,5.192354694E-2,-3.162754774E-1,-3.054326214E-2
2.223811330E-1,5.054909736E-2,-3.271183372E-1,-3.176499158E-2
2.246205130E-1,4.673119262E-2,-3.330742717E-1,-2.932153270E-2
2.268539730E-1,4.657847434E-2,-3.404046595E-1,-2.947424725E-2
2.290910330E-1,4.031710699E-2,-3.439171314E-1,-3.191770986E-2
2.313282770E-1,3.405573592E-2,-3.486513495E-1,-3.573561832E-2
2.335637500E-1,2.550362423E-2,-3.448334336E-1,-3.695734590E-2
2.358007500E-1,1.710422710E-2,-3.397938013E-1,-4.184427112E-2
2.380378720E-1,3.665191587E-3,-3.310889602E-1,-4.321871698E-2
2.402738940E-1,-9.621127509E-3,-3.187189400E-1,-4.321871698E-2
2.425099780E-1,-1.908953860E-2,-3.039054573E-1,-4.566217586E-2
2.447465510E-1,-3.359758854E-2,-2.915354371E-1,-4.581489414E-2
2.469836110E-1,-4.688390717E-2,-2.790127099E-1,-4.459316283E-2
2.492212210E-1,-6.139195710E-2,-2.641992271E-1,-4.352414981E-2
2.514565120E-1,-7.101308554E-2,-2.530509233E-1,-4.352414981E-2
2.536930840E-1,-8.674286306E-2,-2.382374406E-1,-4.230241850E-2
2.559293510E-1,-9.758572280E-2,-2.283108830E-1,-4.245513305E-2
2.581662280E-1,-1.096503139E-1,-2.171625942E-1,-4.001167417E-2
2.604028010E-1,-1.182024255E-1,-2.109012306E-1,-3.756821156E-2
2.626393730E-1,-1.241583601E-1,-2.035708427E-1,-3.772092983E-2
2.648761890E-1,-1.276708394E-1,-1.937969923E-1,-3.634648025E-2
2.671134940E-1,-1.287398487E-1,-1.840231568E-1,-3.756821156E-2
2.693490900E-1,-1.250746548E-1,-1.817324162E-1,-3.756821156E-2
2.715856620E-1,-1.186605766E-1,-1.757764816E-1,-3.985895589E-2
2.738219900E-1,-1.111774743E-1,-1.649336219E-1,-3.863722831E-2
2.760588070E-1,-9.987647086E-2,-1.566869318E-1,-4.214970022E-2
2.782953790E-1,-9.101892263E-2,-1.495092660E-1,-4.566217586E-2
2.805319510E-1,-8.109235764E-2,-1.437060535E-1,-5.054909736E-2
2.827657760E-1,-6.597344577E-2,-1.330159009E-1,-5.406157300E-2
2.849941090E-1,-5.726861581E-2,-1.296561509E-1,-5.757404864E-2
2.872416680E-1,-4.749477282E-2,-1.273654103E-1,-5.864306539E-2
2.894770800E-1,-3.512475267E-2,-1.301143020E-1,-6.230825558E-2
2.917129210E-1,-2.779436857E-2,-1.337794960E-1,-6.475171447E-2
2.939513850E-1,-1.939497143E-2,-1.412625909E-1,-6.582073122E-2
2.961879570E-1,-1.588249579E-2,-1.510364264E-1,-6.826419383E-2
2.984256890E-1,-1.603521220E-2,-1.608102769E-1,-6.963863969E-2
3.006581720E-1,-1.252273750E-2,-1.693623960E-1,-7.086037099E-2
3.028859550E-1,-1.023199316E-2,-1.766927689E-1,-6.963863969E-2
3.051343070E-1,-1.771509275E-2,-1.824959964E-1,-6.841690838E-2
3.073713670E-1,-2.412917651E-2,-1.921171248E-1,-6.734789163E-2
3.096086110E-1,-3.161227703E-2,-2.029599845E-1,-6.383541971E-2
3.118313890E-1,-4.169155285E-2,-2.075414658E-1,-5.894849449E-2
3.140770560E-1,-4.688390717E-2,-2.171625942E-1,-5.421429127E-2
3.163168020E-1,-5.558873713E-2,-2.267837226E-1,-4.932736978E-2
3.185568540E-1,-6.688974798E-2,-2.325869352E-1,-4.337143153E-2
3.207891530E-1,-7.681630552E-2,-2.383901626E-1,-4.108068720E-2
3.230151050E-1,-9.071348608E-2,-2.490803003E-1,-3.512475267E-2
3.252633960E-1,-1.032362282E-1,-2.561052442E-1,-3.039054573E-2
3.274997250E-1,-1.218676195E-1,-2.654209435E-1,-2.809980139E-2
3.297394710E-1,-1.417207420E-1,-2.747366428E-1,-2.580905706E-2
3.319731740E-1,-1.641700417E-1,-2.840523422E-1,-2.489275858E-2
3.342099300E-1,-1.912008226E-1,-2.872593701E-1,-2.626720630E-2
3.364465630E-1,-2.196060568E-1,-2.915354371E-1,-2.290744707E-2
3.386840510E-1,-2.516764700E-1,-2.932153046E-1,-2.687807009E-2
3.409193410E-1,-2.861903608E-1,-2.950479090E-1,-3.084869497E-2
3.431559750E-1,-3.170390725E-1,-2.981022298E-1,-3.604105115E-2
3.453922420E-1,-3.527746797E-1,-3.046690524E-1,-4.001167417E-2
3.476263110E-1,-3.897320330E-1,-3.075706363E-1,-4.520402849E-2
3.498540950E-1,-4.231768847E-1,-3.190243840E-1,-5.283984542E-2
3.521007990E-1,-4.552473128E-1,-3.245221674E-1,-6.047565863E-2
3.543391410E-1,-4.885394871E-1,-3.286454976E-1,-6.826419383E-2
3.565794360E-1,-5.219843388E-1,-3.437644243E-1,-7.956519723E-2
3.588123460E-1,-5.528330207E-1,-3.565925956E-1,-9.453139454E-2
3.610486140E-1,-5.827654600E-1,-3.729332387E-1,-1.058324054E-1
3.632850640E-1,-6.125451326E-1,-3.953825235E-1,-1.209513173E-1
3.655216970E-1,-6.436992288E-1,-4.202753007E-1,-1.383609772E-1
3.677582690E-1,-6.727153659E-1,-4.537201524E-1,-1.547016203E-1
3.699947810E-1,-6.942483783E-1,-4.944954216E-1,-1.684460938E-1
3.722317190E-1,-7.148650289E-1,-5.378668308E-1,-1.798998117E-1
3.744692070E-1,-7.292203903E-1,-5.861251950E-1,-1.924225539E-1
3.767027280E-1,-7.365507483E-1,-6.466008425E-1,-2.000583708E-1
3.789341120E-1,-7.389942408E-1,-7.060074806E-1,-2.064724565E-1
3.811786800E-1,-7.290676832E-1,-7.657195926E-1,-2.139555514E-1
3.834145190E-1,-7.131851912E-1,-8.315402865E-1,-2.177734673E-1
3.856526790E-1,-6.885978580E-1,-8.950703144E-1,-2.189951837E-1
3.878871150E-1,-6.579018831E-1,-9.648616314E-1,-2.202169150E-1
3.901241750E-1,-6.247624159E-1,-1.025031924E0,-2.165517360E-1
3.923615410E-1,-5.881105065E-1,-1.098488450E0,-2.092213482E-1
3.945971370E-1,-5.519167781E-1,-1.187827468E0,-1.957823038E-1
3.968307180E-1,-5.082398653E-1,-1.280984402E0,-1.811215430E-1
3.990580740E-1,-4.645630121E-1,-1.366811037E0,-1.689042449E-1
4.013039230E-1,-4.240931869E-1,-1.431868076E0,-1.577559561E-1
4.035317680E-1,-3.854559660E-1,-1.467756510E0,-1.490511149E-1
4.057832940E-1,-3.538436890E-1,-1.481806397E0,-1.426370293E-1
4.080171190E-1,-3.316998184E-1,-1.485777020E0,-1.473712474E-1
4.102572930E-1,-3.130684495E-1,-1.483791709E0,-1.582140923E-1
4.124897150E-1,-3.031418920E-1,-1.481500983E0,-1.740965992E-1
4.147236010E-1,-3.003929853E-1,-1.474323273E0,-1.960877478E-1
4.169511410E-1,-3.060434759E-1,-1.462105989E0,-2.229658216E-1
4.191996760E-1,-3.115412891E-1,-1.442558289E0,-2.547308207E-1
4.214360040E-1,-3.245221674E-1,-1.419192672E0,-2.852740586E-1
4.236757500E-1,-3.420845270E-1,-1.384831548E0,-3.171917796E-1
4.259095760E-1,-3.895792961E-1,-1.312291265E0,-3.466660380E-1
4.281467580E-1,-4.515821338E-1,-1.218981624E0,-3.724750876E-1
4.303825370E-1,-5.250386596E-1,-1.149495721E0,-3.973678350E-1
4.326191090E-1,-5.907067060E-1,-1.115439892E0,-4.185954034E-1
4.348554990E-1,-6.533203721E-1,-1.119105101E0,-4.434881806E-1
4.370921930E-1,-7.188356519E-1,-1.138500094E0,-4.662429094E-1
4.393285210E-1,-7.869471312E-1,-1.167363524E0,-4.902193546E-1
4.415652150E-1,-8.600982428E-1,-1.192714334E0,-5.093088746E-1
4.438024590E-1,-9.366091490E-1,-1.211803913E0,-5.271766782E-1
4.460395800E-1,-1.019381404E0,-1.227228284E0,-5.413793325E-1
4.482751150E-1,-1.108109593E0,-1.236391306E0,-5.580254197E-1
4.505116260E-1,-1.193172574E0,-1.246928692E0,-5.710062981E-1
4.527489310E-1,-1.274570346E0,-1.260978580E0,-5.839871764E-1
4.549845270E-1,-1.348943233E0,-1.292285442E0,-5.994115472E-1
4.572211600E-1,-1.418887258E0,-1.340696454E0,-6.113234162E-1
4.594561450E-1,-1.482875347E0,-1.403768301E0,-6.145304441E-1
4.616895440E-1,-1.536326051E0,-1.487762332E0,-6.116288304E-1
4.639294730E-1,-1.587486029E0,-1.583820820E0,-6.027712822E-1
4.661560360E-1,-1.625359654E0,-1.686140776E0,-5.874996781E-1
4.684056090E-1,-1.654833913E0,-1.797318220E0,-5.699372888E-1
4.706405330E-1,-1.668425679E0,-1.902539849E0,-5.300782919E-1
4.728803390E-1,-1.660789847E0,-1.990198970E0,-4.520402849E-1
4.751139820E-1,-1.640936732E0,-2.070680380E0,-3.726277947E-1
4.773504940E-1,-1.610240817E0,-2.107637882E0,-2.904664278E-1
4.795842580E-1,-1.572061658E0,-2.140013695E0,-2.070833147E-1
4.818113700E-1,-1.532660842E0,-2.178345442E0,-1.310305893E-1
4.840530080E-1,-1.487456918E0,-2.227825642E0,-6.108652428E-2
4.862971490E-1,-1.437213182E0,-2.283414364E0,-3.359758761E-3
4.885359790E-1,-1.384373307E0,-2.336559534E0,3.970624134E-2
4.907715140E-1,-1.331533551E0,-2.388635874E0,6.673702598E-2
4.930062550E-1,-1.275028467E0,-2.453998327E0,7.437284291E-2
4.952431330E-1,-1.218370676E0,-2.521957159E0,5.864306539E-2
4.974800710E-1,-1.155909777E0,-2.541352034E0,3.711006418E-2
4.997175590E-1,-1.086271167E0,-2.513557673E0,1.450804994E-2
5.019529110E-1,-1.015410781E0,-2.496758938E0,-1.664607786E-2
5.041896050E-1,-9.474520087E-1,-2.494468212E0,-5.146539584E-2
5.064254450E-1,-8.846855760E-1,-2.504089355E0,-8.399397135E-2
5.086625660E-1,-8.219192028E-1,-2.515084982E0,-1.165225431E-1
5.108960870E-1,-7.637342811E-1,-2.513710499E0,-1.478293836E-1
5.131238090E-1,-7.104362845E-1,-2.505158424E0,-1.805106848E-1
5.153725880E-1,-6.592763066E-1,-2.485457897E0,-2.118175179E-1
5.176100760E-1,-6.152940392E-1,-2.452318430E0,-2.467895597E-1
5.198484190E-1,-5.800165534E-1,-2.420248032E0,-2.829833329E-1
5.220823050E-1,-5.470298529E-1,-2.386955976E0,-3.217732608E-1
5.243194880E-1,-5.177083015E-1,-2.352289438E0,-3.630066812E-1
5.265551440E-1,-4.946481287E-1,-2.324800491E0,-4.091269970E-1
5.287917170E-1,-4.792237878E-1,-2.309376001E0,-4.517348409E-1
5.310279840E-1,-4.712825418E-1,-2.298533201E0,-4.969388843E-1
5.332651660E-1,-4.747950137E-1,-2.300976753E0,-5.386304259E-1
5.354997240E-1,-4.883867502E-1,-2.317622662E0,-5.815436840E-1
5.377263480E-1,-5.097670555E-1,-2.349998713E0,-6.223189831E-1
5.399748220E-1,-5.510004759E-1,-2.394133568E0,-6.583600044E-1
5.422108450E-1,-5.986479521E-1,-2.450180531E0,-6.895141602E-1
5.444506530E-1,-6.551529765E-1,-2.514626741E0,-7.171558142E-1
5.466816700E-1,-7.238753438E-1,-2.572659016E0,-7.425066829E-1
5.489105520E-1,-7.977899909E-1,-2.640465021E0,-7.593054771E-1
5.511575000E-1,-8.791878223E-1,-2.711630821E0,-7.738135457E-1
5.533952320E-1,-9.570731521E-1,-2.787836313E0,-7.808384895E-1
5.556331470E-1,-1.030224204E0,-2.875037193E0,-7.841982841E-1
5.578672170E-1,-1.098488450E0,-2.963459969E0,-7.840455174E-1
5.601004930E-1,-1.160796642E0,-3.062878370E0,-7.812966704E-1
5.623286430E-1,-1.211040378E0,-3.169932365E0,-7.747298479E-1
5.645771780E-1,-1.246928692E0,-3.299130440E0,-7.634288669E-1
5.668136890E-1,-1.276708364E0,-3.419929028E0,-7.469354868E-1
5.690531920E-1,-1.302212000E0,-3.522554398E0,-7.267768979E-1
5.712875050E-1,-1.315803766E0,-3.639993191E0,-7.102835774E-1
5.735231010E-1,-1.324508548E0,-3.758806467E0,-6.887505651E-1
5.757567430E-1,-1.329548240E0,-3.878841639E0,-6.685920358E-1
5.779841000E-1,-1.327410221E0,-4.009871960E0,-6.446155310E-1
5.802328790E-1,-1.315040112E0,-4.179997921E0,-6.316346526E-1
5.824695120E-1,-1.295797944E0,-4.383111000E0,-6.139195561E-1
5.847092590E-1,-1.275944829E0,-4.549724579E0,-5.925393105E-1
5.869429010E-1,-1.257160664E0,-4.703051567E0,-5.610797405E-1
5.891803890E-1,-1.234558702E0,-4.849048138E0,-5.271766782E-1
5.914156790E-1,-1.208138704E0,-4.995197773E0,-4.871650338E-1
5.936526780E-1,-1.173319459E0,-5.139209270E0,-4.434881806E-1
5.958901060E-1,-1.135445833E0,-5.263673306E0,-3.933972120E-1
5.981257010E-1,-1.087492824E0,-5.366603851E0,-3.445279896E-1
6.003620290E-1,-1.042594314E0,-5.446321964E0,-2.930625975E-1
6.025982360E-1,-9.950994849E-1,-5.515196800E0,-2.415972054E-1
6.048354180E-1,-9.413433671E-1,-5.579337597E0,-1.960877478E-1
6.070729670E-1,-8.837692738E-1,-5.638744354E0,-1.530217379E-1
6.093083180E-1,-8.235990405E-1,-5.695860386E0,-1.136209369E-1
6.115448910E-1,-7.658722997E-1,-5.745492935E0,-7.528914511E-2
6.137793270E-1,-7.066183686E-1,-5.787948132E0,-4.321871698E-2
6.160107110E-1,-6.484334469E-1,-5.827806950E0,-1.466076635E-2
6.182546070E-1,-5.928447247E-1,-5.866597176E0,1.374446787E-2
6.204911800E-1,-5.386304259E-1,-5.918673515E0,3.970624134E-2
6.227298880E-1,-4.870123267E-1,-5.973040581E0,6.444628537E-2
6.249655450E-1,-4.367686510E-1,-6.037181377E0,8.903361112E-2
6.272009570E-1,-3.856086731E-1,-6.115829945E0,1.172861308E-1
6.294347830E-1,-3.373503387E-1,-6.207765102E0,1.528690308E-1
6.316620170E-1,-2.843577862E-1,-6.320469856E0,1.919644028E-1
6.339076220E-1,-2.367102802E-1,-6.441574097E0,2.396118939E-1
6.361351620E-1,-1.773036420E-1,-6.584669113E0,3.006984293E-1
6.383866880E-1,-1.169806942E-1,-6.744868755E0,3.727805018E-1
6.406170950E-1,-5.329799280E-2,-6.917285442E0,4.497495294E-1
6.428425590E-1,2.138028294E-2,-7.094588757E0,5.316054821E-1
6.450758960E-1,1.020144969E-1,-7.277084827E0,6.185010672E-1
6.473300470E-1,1.789835095E-1,-7.455762863E0,7.101308703E-1
6.495669240E-1,2.611449063E-1,-7.617642403E0,8.032878041E-1
6.517958680E-1,3.416263759E-1,-7.751421928E0,8.975137472E-1
6.540367730E-1,4.189008474E-1,-7.851298332E0,9.981538057E-1
6.562643730E-1,4.932736754E-1,-7.908566952E0,1.101390004E0
6.585160820E-1,5.613851547E-1,-7.913606644E0,1.207222462E0
6.607475880E-1,6.206390858E-1,-7.870998859E0,1.313054800E0
6.629775080E-1,6.747006774E-1,-7.776314735E0,1.422857881E0
6.652226860E-1,7.225008607E-1,-7.632761002E0,1.528995752E0
6.674601740E-1,7.625125647E-1,-7.447974682E0,1.635438919E0
6.696986380E-1,7.870998979E-1,-7.227604866E0,1.742951274E0
6.719324030E-1,8.100073338E-1,-6.975623131E0,1.846951127E0
6.741686090E-1,8.319984674E-1,-6.701802731E0,1.950950861E0
6.764057910E-1,8.457429409E-1,-6.419277191E0,2.050216436E0
6.786432790E-1,8.584184051E-1,-6.123466015E0,2.143220663E0
6.808763120E-1,8.747590184E-1,-5.836206436E0,2.233934164E0
6.831059260E-1,8.846855760E-1,-5.564524174E0,2.317011833E0
6.853515310E-1,8.990409374E-1,-5.314833164E0,2.398867846E0
6.875885920E-1,9.152288437E-1,-5.095532417E0,2.483167171E0
6.898273000E-1,9.330966473E-1,-4.915021896E0,2.564870358E0
6.920596610E-1,9.549350739E-1,-4.777119160E0,2.647490025E0
6.942900080E-1,9.735664725E-1,-4.679227829E0,2.732553005E0
6.965358570E-1,9.903652668E-1,-4.611574650E0,2.822350264E0
6.987711480E-1,1.004109740E0,-4.570646286E0,2.914285421E0
7.010099170E-1,1.012661815E0,-4.542851925E0,3.004998922E0
7.032443540E-1,1.018465042E0,-4.528496742E0,3.101820946E0
7.054812310E-1,1.025337338E0,-4.522541046E0,3.192534447E0
7.077177420E-1,1.024726391E0,-4.518875599E0,3.281873465E0
7.099510790E-1,1.026711702E0,-4.512919903E0,3.366325617E0
7.121791680E-1,1.026558995E0,-4.495968342E0,3.450777769E0
7.144284350E-1,1.031445980E0,-4.471686363E0,3.529273987E0
7.166640920E-1,1.034042120E0,-4.439004898E0,3.604104996E0
7.189035330E-1,1.036791086E0,-4.398993492E0,3.676492453E0
7.211366880E-1,1.047023058E0,-4.355621815E0,3.747658253E0
7.233736870E-1,1.057407737E0,-4.303545475E0,3.818976879E0
7.256100760E-1,1.070388675E0,-4.252843857E0,3.885255575E0
7.278469540E-1,1.089325428E0,-4.207181454E0,3.949243784E0
7.300837700E-1,1.110705733E0,-4.161519527E0,4.016897202E0
7.323213190E-1,1.133154988E0,-4.119522572E0,4.084550381E0
7.345566090E-1,1.160491228E0,-4.084856033E0,4.152356625E0
7.367934260E-1,1.186452985E0,-4.056145191E0,4.220009804E0
7.390304250E-1,1.218523502E0,-4.031404972E0,4.288885117E0
7.412663260E-1,1.251815557E0,-4.005290508E0,4.356538296E0
7.435028980E-1,1.287703991E0,-3.974442005E0,4.420526505E0
7.457392270E-1,1.324966669E0,-3.938858986E0,4.482223511E0
7.479762870E-1,1.362534881E0,-3.891058922E0,4.542699337E0
7.502135920E-1,1.401172161E0,-3.846923828E0,4.594623089E0
7.524491870E-1,1.436144233E0,-3.805079699E0,4.643950462E0
7.546857600E-1,1.471116185E0,-3.762013674E0,4.690987110E0
7.569220880E-1,1.501048565E0,-3.731164932E0,4.737870693E0
7.591589040E-1,1.534646153E0,-3.702606916E0,4.774981022E0
7.613954770E-1,1.564425945E0,-3.677714109E0,4.808425903E0
7.636321100E-1,1.592983842E0,-3.652821541E0,4.840496063E0
7.658691090E-1,1.618029356E0,-3.627928734E0,4.864167213E0
7.681061700E-1,1.636813402E0,-3.602730513E0,4.881423950E0
7.703417050E-1,1.655750275E0,-3.578906775E0,4.896390438E0
7.725780330E-1,1.669800162E0,-3.546378136E0,4.905247688E0
7.748146660E-1,1.677894115E0,-3.512475252E0,4.909065723E0
7.770528250E-1,1.686140776E0,-3.465438604E0,4.910593033E0
7.792934870E-1,1.686140776E0,-3.403435707E0,4.912120342E0
7.815246270E-1,1.676366925E0,-3.338989496E0,4.913494587E0
7.837614430E-1,1.663080573E0,-3.269503593E0,4.914868832E0
7.859974660E-1,1.647350907E0,-3.192839861E0,4.917465210E0
7.882345880E-1,1.631773829E0,-3.112358332E0,4.923879147E0
7.904709160E-1,1.605201125E0,-3.019659519E0,4.931362629E0
7.927073050E-1,1.576185107E0,-2.930473328E0,4.937470913E0
7.949442440E-1,1.548543453E0,-2.834109306E0,4.940067291E0
7.971806330E-1,1.516167521E0,-2.732705593E0,4.942663193E0
7.994170830E-1,1.480126500E0,-2.632523775E0,4.936707497E0
8.016535330E-1,1.445307136E0,-2.529898405E0,4.923421383E0
8.038915700E-1,1.405753613E0,-2.425898552E0,4.901430130E0
8.061269220E-1,1.368490815E0,-2.325716734E0,4.873330116E0
8.083638600E-1,1.326493859E0,-2.227825642E0,4.839121819E0
8.106007380E-1,1.278082848E0,-2.136959314E0,4.794986725E0
8.128365780E-1,1.233489633E0,-2.051132679E0,4.747339249E0
8.150699760E-1,1.186147571E0,-1.970193148E0,4.694652081E0
8.172975760E-1,1.140027285E0,-1.896431208E0,4.638146877E0
8.195436690E-1,1.095128655E0,-1.827556133E0,4.581794739E0
8.217722460E-1,1.054811597E0,-1.772120118E0,4.521777153E0
8.240224910E-1,1.018006921E0,-1.720502019E0,4.462828636E0
8.262569260E-1,9.851729274E-1,-1.660331726E0,4.409072399E0
8.284969160E-1,9.610437751E-1,-1.589471340E0,4.361424923E0
8.307343420E-1,9.329439402E-1,-1.534340739E0,4.314846516E0
8.329717680E-1,9.080511928E-1,-1.503492117E0,4.260937691E0
8.352091940E-1,8.817839622E-1,-1.484707952E0,4.204432964E0
8.374466200E-1,8.579602242E-1,-1.468520045E0,4.138306618E0
8.396840460E-1,8.330674767E-1,-1.453401089E0,4.051258087E0
8.419214720E-1,8.190175891E-1,-1.443474531E0,3.961766481E0
8.441588980E-1,8.100073338E-1,-1.432326317E0,3.866318941E0
8.463963240E-1,8.061894178E-1,-1.412778616E0,3.774688959E0
8.486337500E-1,8.083274364E-1,-1.394605398E0,3.684128284E0
8.508531180E-1,8.129089475E-1,-1.386205912E0,3.601050615E0
8.530987230E-1,8.208501935E-1,-1.381471753E0,3.516751289E0
8.553348080E-1,8.324565887E-1,-1.381777167E0,3.437186003E0
8.575694270E-1,8.426886201E-1,-1.390482068E0,3.361438751E0
8.598092950E-1,8.527678847E-1,-1.403921008E0,3.285538673E0
8.620491630E-1,8.619308472E-1,-1.401630282E0,3.222008705E0
8.642890310E-1,8.712465763E-1,-1.387274981E0,3.167183638E0
8.665078420E-1,8.791878223E-1,-1.375363111E0,3.115870953E0
8.687533860E-1,8.859072924E-1,-1.363298535E0,3.075553894E0
8.709862960E-1,8.813258410E-1,-1.358411551E0,3.042567015E0
8.732114560E-1,8.739954233E-1,-1.360702276E0,3.015536308E0
8.754538870E-1,8.629998565E-1,-1.365283847E0,2.992170572E0
8.776974780E-1,8.506298661E-1,-1.374752283E0,2.971248627E0
8.799343550E-1,8.319984674E-1,-1.391398311E0,2.955060720E0
8.821595150E-1,8.142833710E-1,-1.416443825E0,2.938872576E0
8.843996270E-1,8.037459254E-1,-1.458746195E0,2.924059153E0
8.866438290E-1,7.942775488E-1,-1.501048565E0,2.913980007E0
8.888827810E-1,7.861835957E-1,-1.545794487E0,2.900235415E0
8.911188040E-1,7.791585922E-1,-1.592983842E0,2.887712717E0
8.933544610E-1,7.757988572E-1,-1.637882471E0,2.870455742E0
8.955900570E-1,7.748825550E-1,-1.687515259E0,2.851824284E0
8.978263850E-1,7.730499506E-1,-1.728748679E0,2.829680443E0
9.000627130E-1,7.736608386E-1,-1.766469598E0,2.803718805E0
9.022997730E-1,7.732026577E-1,-1.797929168E0,2.770579338E0
9.045363460E-1,7.756461501E-1,-1.816255093E0,2.735149145E0
9.067726740E-1,7.732026577E-1,-1.824654460E0,2.697122812E0
9.090064990E-1,7.773260474E-1,-1.821141958E0,2.653140545E0
9.112350760E-1,7.767151594E-1,-1.805259466E0,2.607936382E0
9.134826350E-1,7.738135457E-1,-1.782199383E0,2.561510801E0
9.157190240E-1,7.722864151E-1,-1.750587106E0,2.510198116E0
9.179585260E-1,7.646505833E-1,-1.723708987E0,2.461328745E0
9.201922910E-1,7.568620443E-1,-1.699274421E0,2.413528681E0
9.224287410E-1,7.539604306E-1,-1.672549009E0,2.362215996E0
9.246654960E-1,7.498371005E-1,-1.651779652E0,2.313346624E0
9.269023120E-1,7.481572032E-1,-1.632384658E0,2.265699148E0
9.291396780E-1,7.451028824E-1,-1.612836957E0,2.214386463E0
9.313752130E-1,7.423539758E-1,-1.586111665E0,2.165517330E0
9.336117240E-1,7.357872128E-1,-1.561676979E0,2.119091511E0
9.358478690E-1,7.330383062E-1,-1.532508135E0,2.071444035E0
9.380848690E-1,7.252497673E-1,-1.503186703E0,2.026240110E0
9.403211970E-1,7.163922191E-1,-1.471421719E0,1.979814291E0
9.425578910E-1,7.014260292E-1,-1.438434958E0,1.933235765E0
9.447948900E-1,6.875288486E-1,-1.411404133E0,1.888031721E0
9.470302420E-1,6.721044779E-1,-1.391703725E0,1.843896747E0
9.492597950E-1,6.543893814E-1,-1.372003317E0,1.800983429E0
9.515046070E-1,6.365215778E-1,-1.357037187E0,1.759291887E0
9.537416680E-1,6.160575747E-1,-1.346957922E0,1.715156913E0
9.559794610E-1,5.943718553E-1,-1.342834473E0,1.673312664E0
9.582137750E-1,5.737552047E-1,-1.341154695E0,1.632842779E0
9.604501640E-1,5.542075038E-1,-1.344514370E0,1.592220306E0
9.626846000E-1,5.297728777E-1,-1.352455616E0,1.551597714E0
9.649104300E-1,5.100724697E-1,-1.360549569E0,1.510975242E0
9.671487110E-1,4.880813360E-1,-1.367421865E0,1.474017859E0
9.693944380E-1,4.699080884E-1,-1.365894675E0,1.435991526E0
9.716261280E-1,4.505131245E-1,-1.364214778E0,1.396743417E0
9.738688650E-1,4.410447180E-1,-1.357953429E0,1.359938741E0
9.760871270E-1,4.318817258E-1,-1.338405728E0,1.319468975E0
9.783310240E-1,4.262312353E-1,-1.323745012E0,1.285260439E0
9.805681450E-1,4.282165468E-1,-1.301906586E0,1.248761296E0
9.828217460E-1,4.326453209E-1,-1.272890449E0,1.213331103E0
9.850558150E-1,4.482223690E-1,-1.247692227E0,1.181718826E0
9.872922050E-1,4.700607955E-1,-1.215316415E0,1.149037480E0
9.895228570E-1,5.016731024E-1,-1.185536742E0,1.115134478E0
9.917519220E-1,5.395467281E-1,-1.149953842E0,1.081384182E0
9.939992970E-1,5.873469114E-1,-1.113301873E0,1.048855662E0
9.962358700E-1,6.485861540E-1,-1.078024387E0,1.012814522E0
9.984753110E-1,7.173085213E-1,-1.041677952E0,9.769262671E-1
1.000706939E0,7.921395302E-1,-1.004415154E0,9.422596693E-1
1.002933562E0,8.768970370E-1,-9.683741331E-1,9.039278626E-1
1.005182037E0,9.689850211E-1,-9.349292517E-1,8.619308472E-1
1.007418182E0,1.073442936E0,-8.946121335E-1,8.202393055E-1
1.009658172E0,1.176679134E0,-8.588765264E-1,7.796167731E-1
1.011888518E0,1.290910959E0,-8.235990405E-1,7.367035151E-1
1.014116729E0,1.403921008E0,-7.893906236E-1,6.950119138E-1
1.016367156E0,1.514334917E0,-7.586946487E-1,6.556110978E-1
1.018602569E0,1.621541739E0,-7.073819637E-1,6.236934066E-1
1.020838164E0,1.726457953E0,-6.452264190E-1,5.919284225E-1
1.023062469E0,1.823127270E0,-5.633704662E-1,5.685628057E-1
1.025311981E0,1.916284323E0,-4.668537676E-1,5.439754725E-1
1.027547820E0,1.999820113E0,-3.579670191E-1,5.280929804E-1
1.029787384E0,2.064113617E0,-2.318233550E-1,5.157229900E-1
1.032020660E0,2.118480682E0,-9.819658846E-2,5.129740834E-1
1.034254668E0,2.158339739E0,5.268712714E-2,5.273294449E-1
1.036483672E0,2.183690548E0,2.185370475E-1,5.613851547E-1
1.038730865E0,2.191937208E0,3.978259861E-1,5.988006592E-1
1.040964385E0,2.179872513E0,6.056728959E-1,6.498079300E-1
1.043192779E0,2.147191286E0,8.368853927E-1,7.041749358E-1
1.045428680E0,2.090533495E0,1.094059706E0,7.635815740E-1
1.047677276E0,2.014175415E0,1.361313224E0,8.251262307E-1
1.049916228E0,1.910939217E0,1.627803206E0,8.804095387E-1
1.052153350E0,1.790446043E0,1.891086102E0,9.221010804E-1
1.054387847E0,1.657430172E0,2.143678904E0,9.512699246E-1
1.056623260E0,1.505782843E0,2.379625559E0,9.668469429E-1
1.058859832E0,1.345430732E0,2.604882240E0,9.676105380E-1
1.061093169E0,1.175152063E0,2.825404406E0,9.486737251E-1
1.063321258E0,9.986119866E-1,3.031571388E0,9.138544202E-1
1.065569549E0,8.171849847E-1,3.232851505E0,8.628471494E-1
1.067806121E0,6.414085031E-1,3.411071539E0,8.032878041E-1
1.070045867E0,4.692972302E-1,3.578295946E0,7.328855991E-1
1.072280242E0,3.090978265E-1,3.729485035E0,6.550002694E-1
1.074515899E0,1.609629989E-1,3.865860701E0,5.710062981E-1
1.076752654E0,3.222314268E-2,3.978870869E0,4.847215712E-1
1.078988188E0,-8.216137439E-2,4.074624062E0,3.947716653E-1
1.081223357E0,-1.773036420E-1,4.152967453E0,3.049744666E-1
1.083462066E0,-2.506074607E-1,4.209014416E0,2.128865421E-1
1.085698699E0,-3.058907688E-1,4.243986130E0,1.195768714E-1
1.087936125E0,-3.379611969E-1,4.270100594E0,2.886338346E-2
1.090173125E0,-3.581197560E-1,4.279110909E0,-5.696318299E-2
1.092408721E0,-3.601050675E-1,4.277889252E0,-1.414152980E-1
1.094645537E0,-3.535382748E-1,4.265672207E0,-2.246456891E-1
1.096882476E0,-3.336851299E-1,4.243375301E0,-3.052799106E-1
1.099118133E0,-3.029891551E-1,4.218635559E0,-3.822489381E-1
1.101354888E0,-2.661845386E-1,4.183968544E0,-4.531092942E-1
1.103590972E0,-2.222022265E-1,4.146706104E0,-5.164865851E-1
1.105828155E0,-1.710422635E-1,4.099516869E0,-5.713117123E-1
1.108063140E0,-1.175915599E-1,4.048814774E0,-6.261368990E-1
1.110291228E0,-5.833763257E-2,3.979634285E0,-6.675229669E-1
1.112537566E0,3.207042580E-3,3.904345274E0,-7.028004527E-1
1.114773834E0,6.582073122E-2,3.824321985E0,-7.344127297E-1
1.117013152E0,1.256855279E-1,3.735746384E0,-7.562511563E-1
1.119247283E0,1.879937798E-1,3.644727468E0,-7.744244337E-1
1.121483916E0,2.487748712E-1,3.544087410E0,-7.840455174E-1
1.123720977E0,3.069597781E-1,3.436116934E0,-7.889324427E-1
1.125958221E0,3.625485301E-1,3.325855732E0,-7.852672935E-1
1.128193572E0,4.167627990E-1,3.207042456E0,-7.816020846E-1
1.130430144E0,4.694499373E-1,3.079829931E0,-7.730499506E-1
1.132666656E0,5.233588219E-1,2.946508408E0,-7.608326674E-1
1.134903289E0,5.746715069E-1,2.814409018E0,-7.451028824E-1
1.137139922E0,6.259841323E-1,2.681087494E0,-7.267768979E-1
1.139376617E0,6.760751009E-1,2.544253826E0,-7.086036801E-1
1.141613250E0,7.309002876E-1,2.401158571E0,-6.867652535E-1
1.143850555E0,7.846564054E-1,2.261728525E0,-6.733261943E-1
1.146083098E0,8.358163834E-1,2.118786097E0,-6.600399017E-1
1.148310760E0,8.869763613E-1,1.976912618E0,-6.504187584E-1
1.150559051E0,9.418014884E-1,1.827861547E0,-6.469063163E-1
1.152795867E0,9.993755221E-1,1.687209845E0,-6.481280327E-1
1.155035491E0,1.058018565E0,1.545183659E0,-6.556110978E-1
1.157268523E0,1.114370942E0,1.406975389E0,-6.690501571E-1
1.159499968E0,1.172097683E0,1.269988894E0,-6.899722815E-1
1.161731475E0,1.232420683E0,1.142623425E0,-7.119634151E-1
1.163978912E0,1.295492411E0,1.022435665E0,-7.388415337E-1
1.166213409E0,1.353677392E0,9.095783234E-1,-7.718282342E-1
1.168441192E0,1.414611220E0,8.077165484E-1,-8.035932183E-1
1.170674041E0,1.475850463E0,7.191411257E-1,-8.388707042E-1
1.172910674E0,1.537395120E0,6.378960609E-1,-8.790351152E-1
1.175149871E0,1.600161552E0,5.699372888E-1,-9.155342579E-1
1.177386992E0,1.663386106E0,5.152648091E-1,-9.531024694E-1
1.179624419E0,1.720654726E0,4.752531648E-1,-9.943358898E-1
1.181859588E0,1.774716258E0,4.500549734E-1,-1.033278584E0
1.184096709E0,1.829999566E0,4.379903674E-1,-1.067028880E0
1.186334258E0,1.881923079E0,4.334088862E-1,-1.096045017E0
1.188571075E0,1.923614621E0,4.240931869E-1,-1.115287185E0
1.190806365E0,1.957975864E0,4.100432992E-1,-1.134529471E0
1.193043426E0,1.989435434E0,3.778201640E-1,-1.145525098E0
1.195279998E0,2.027767181E0,3.237585723E-1,-1.146594048E0
1.197519256E0,2.061975718E0,2.538145185E-1,-1.140485406E0
1.199752105E0,2.079996109E0,1.722639948E-1,-1.139416456E0
1.201988921E0,2.074498415E0,8.124507964E-2,-1.150870085E0
1.204226104E0,2.058005095E0,-1.175915636E-2,-1.162323833E0
1.206464080E0,2.042580605E0,-1.049161032E-1,-1.180038929E0
1.208699859E0,2.029752493E0,-1.945605874E-1,-1.187827468E0
1.210936004E0,2.020895004E0,-2.707660198E-1,-1.191798091E0
1.213173614E0,2.008830309E0,-3.190243840E-1,-1.185994864E0
1.215409454E0,1.992795110E0,-3.174972236E-1,-1.173930287E0
1.217646087E0,1.973858356E0,-2.674062550E-1,-1.147052169E0
1.219881194E0,1.947285652E0,-1.685988009E-1,-1.101542711E0
1.222118438E0,1.904983282E0,-4.046982154E-2,-1.032820463E0
1.224354644E0,1.857641220E0,8.063421398E-2,-9.434813857E-1
1.226591521E0,1.799456239E0,1.655444801E-1,-8.359690905E-1
1.228828826E0,1.735773563E0,2.212859392E-1,-7.200574279E-1
1.231065825E0,1.661248088E0,2.277000248E-1,-6.030766964E-1
1.233305266E0,1.590693116E0,1.829541475E-1,-4.864014387E-1
1.235539275E0,1.519069195E0,9.453139454E-2,-3.686571717E-1
1.237776763E0,1.457066298E0,-1.237002108E-2,-2.545780838E-1
1.240013030E0,1.397354245E0,-1.240056455E-1,-1.492038369E-1
1.242248381E0,1.350164890E0,-2.347249687E-1,-5.085453019E-2
1.244487396E0,1.308015227E0,-3.384193480E-1,3.405573592E-2
1.246720611E0,1.263880134E0,-4.297437072E-1,1.114829108E-1
1.248959258E0,1.224479437E0,-5.248859525E-1,1.792889535E-1
1.251194793E0,1.193783402E0,-6.249151230E-1,2.386955917E-1
1.253432281E0,1.164156437E0,-7.287622094E-1,2.857322097E-1
1.255667632E0,1.142165303E0,-8.327620625E-1,3.254384696E-1
1.257904448E0,1.121243119E0,-9.414960742E-1,3.529273868E-1
1.260142913E0,1.108109593E0,-1.039539933E0,3.707951903E-1
1.262376800E0,1.098793864E0,-1.127962708E0,3.802636266E-1
1.264613616E0,1.099710107E0,-1.208138704E0,3.785837293E-1
1.266849456E0,1.114218235E0,-1.283580542E0,3.637702465E-1
1.269088286E0,1.127657294E0,-1.356731653E0,3.391829133E-1
1.271324370E0,1.149801135E0,-1.432326317E0,3.097086847E-1
1.273561919E0,1.186452985E0,-1.515556693E0,2.704605758E-1
1.275796661E0,1.228144526E0,-1.602604985E0,2.228130996E-1
1.278033416E0,1.273348570E0,-1.698052645E0,1.652390510E-1
1.280268585E0,1.323134065E0,-1.816713214E0,1.052215397E-1
1.282505157E0,1.377348423E0,-1.951256275E0,4.764748737E-2
1.284742949E0,1.433853388E0,-2.101681948E0,-1.374446787E-3
1.286982512E0,1.489900351E0,-2.267837286E0,-4.566217586E-2
1.289217193E0,1.549459696E0,-2.438879490E0,-8.872817457E-2
1.291452727E0,1.620167375E0,-2.607783794E0,-1.291979998E-1
1.293689544E0,1.700190663E0,-2.742784977E0,-1.632537395E-1
1.295925811E0,1.777159691E0,-2.837774515E0,-1.924225539E-1
1.298163115E0,1.854128718E0,-2.880535126E0,-2.139555514E-1
1.300400543E0,1.924378276E0,-2.878244400E0,-2.280054539E-1
1.302635772E0,1.987908244E0,-2.841897726E0,-2.309070677E-1
1.304874419E0,2.038151979E0,-2.786920071E0,-2.229658216E-1
1.307107939E0,2.076178312E0,-2.733163834E0,-2.052507252E-1
1.309344512E0,2.098780155E0,-2.698344469E0,-1.780672222E-1
1.311581329E0,2.107790470E0,-2.668259382E0,-1.411098689E-1
1.313819121E0,2.110844851E0,-2.628247738E0,-1.116356254E-1
1.316055632E0,2.120313168E0,-2.577393293E0,-7.941248268E-2
1.318292632E0,2.120465994E0,-2.555554867E0,-5.009094998E-2
1.320527923E0,2.113288403E0,-2.539672375E0,-1.572977938E-2
1.322765899E0,2.094504118E0,-2.541810274E0,1.710422710E-2
1.325001251E0,2.055561543E0,-2.565328598E0,4.734205827E-2
1.327237395E0,1.998140216E0,-2.603049517E0,6.994406879E-2
1.329474029E0,1.919491291E0,-2.646420956E0,9.468411654E-2
1.331709747E0,1.838704348E0,-2.675131559E0,1.146899462E-1
1.333947234E0,1.759750009E0,-2.674826145E0,1.336267740E-1
1.336183623E0,1.700648785E0,-2.616641283E0,1.443169117E-1
1.338421843E0,1.666898489E0,-2.512794256E0,1.530217379E-1
1.340658965E0,1.629635811E0,-2.406503677E0,1.592831165E-1
1.342893035E0,1.605964780E0,-2.293188095E0,1.681406647E-1
1.345132415E0,1.572061658E0,-2.201558352E0,1.756237596E-1
1.347373504E0,1.530370116E0,-2.132683277E0,1.815796942E-1
1.349604522E0,1.482417226E0,-2.072360277E0,1.814269722E-1
1.351839690E0,1.430188298E0,-2.033723116E0,1.860084683E-1
1.354076751E0,1.381929874E0,-1.983021259E0,1.821905524E-1
1.356312591E0,1.355051875E0,-1.923003793E0,1.711949855E-1
1.358550323E0,1.332602501E0,-1.877647042E0,1.565342247E-1
1.360785185E0,1.318552613E0,-1.842216849E0,1.479821056E-1
1.363022246E0,1.310916781E0,-1.799609065E0,1.333213449E-1
1.365259124E0,1.299463034E0,-1.760513663E0,1.259909570E-1
1.367496184E0,1.299463034E0,-1.703397751E0,1.153008118E-1
1.369735565E0,1.283427835E0,-1.646129131E0,1.128573567E-1
1.371983001E0,1.241278172E0,-1.595579982E0,1.226311997E-1
1.374216888E0,1.173624873E0,-1.529911995E0,1.406517178E-1
1.376445586E0,1.076039076E0,-1.474628687E0,1.754710376E-1
1.378689910E0,9.579893947E-1,-1.389718413E0,2.163990140E-1
1.380923064E0,8.310821652E-1,-1.258687854E0,2.562579811E-1
1.383152068E0,7.069237828E-1,-1.116661668E0,2.875648141E-1
1.385399932E0,5.879577994E-1,-9.650143981E-1,3.068070710E-1
1.387636504E0,4.961752892E-1,-8.237518072E-1,3.003929853E-1
1.389876495E0,4.182899892E-1,-7.177666426E-1,2.866485119E-1
1.392109832E0,3.350595832E-1,-7.015787363E-1,2.701551616E-1
1.394344573E0,2.501493096E-1,-7.631233931E-1,2.570215464E-1
1.396572478E0,1.660026312E-1,-8.475755453E-1,2.498438805E-1
1.398819244E0,5.497787148E-2,-9.825767279E-1,2.470949888E-1
1.401055389E0,-9.224065393E-2,-1.192103505E0,2.693915665E-1
1.403295012E0,-2.646573782E-1,-1.427744746E0,3.086396754E-1
1.405529021E0,-4.037819207E-1,-1.590082288E0,3.544545472E-1
1.407765594E0,-4.737260044E-1,-1.623985291E0,3.929390609E-1
1.410002227E0,-4.885394871E-1,-1.561676979E0,4.163046777E-1
1.412239532E0,-4.654793143E-1,-1.449277759E0,4.352414906E-1
1.414473602E0,-4.185954034E-1,-1.324050426E0,4.386012554E-1
1.416711883E0,-3.455969989E-1,-1.191950798E0,4.056145251E-1
1.418947845E0,-2.402227521E-1,-1.066570759E0,3.262020350E-1
1.421185210E0,-8.964447677E-2,-9.676105380E-1,2.055561543E-1
1.423421600E0,1.107193232E-1,-9.046914577E-1,6.551529467E-2
1.425658233E0,3.500257730E-1,-8.681922555E-1,-7.422012836E-2
1.427895049E0,5.910121202E-1,-8.655960560E-1,-1.835650057E-1
1.430132293E0,8.026769161E-1,-8.915578127E-1,-2.466368377E-1
1.432367889E0,9.793697000E-1,-9.253081083E-1,-2.784018219E-1
1.434604461E0,1.133918643E0,-9.634872079E-1,-3.052799106E-1
1.436840789E0,1.293507099E0,-9.944885969E-1,-3.284927905E-1
1.439077605E0,1.455691934E0,-1.017090678E0,-3.492622077E-1
1.441309600E0,1.618029356E0,-1.031293273E0,-3.503312171E-1
1.443532439E0,1.734704614E0,-1.035874724E0,-3.286454976E-1
1.445787566E0,1.789987922E0,-1.027322650E0,-2.950479090E-1
1.448024871E0,1.804037809E0,-9.972375035E-1,-2.654209435E-1
1.450264984E0,1.798387289E0,-9.582948685E-1,-2.371684313E-1
1.452497039E0,1.766927719E0,-9.225592613E-1,-1.982257664E-1
1.454734283E0,1.713171601E0,-8.849910498E-1,-1.470658034E-1
1.456969939E0,1.622458100E0,-8.469646573E-1,-8.903361112E-2
1.459206878E0,1.495703578E0,-8.200865984E-1,-2.015855350E-2
1.461440398E0,1.326799273E0,-8.058840036E-1,5.803219974E-2
1.463665619E0,1.123228431E0,-7.971791625E-1,1.382082552E-1
1.465906036E0,8.915578127E-1,-7.793113589E-1,2.196060568E-1
1.468153228E0,6.539312601E-1,-7.564038634E-1,2.935207486E-1
1.470392485E0,4.225660264E-1,-7.276932001E-1,3.613267839E-1
1.472628569E0,2.147191316E-1,-6.931793094E-1,4.196644127E-1
1.474862701E0,2.916881628E-2,-6.617197990E-1,4.732678533E-1
1.477095489E0,-1.232420653E-1,-6.308710575E-1,5.174028873E-1
1.479317595E0,-2.458732575E-1,-5.955936313E-1,5.531384945E-1
1.481560821E0,-3.240640163E-1,-5.589417219E-1,5.758932233E-1
1.483810271E0,-3.700316250E-1,-5.180137157E-1,5.818491578E-1
1.486049468E0,-3.741549551E-1,-4.815145433E-1,5.734497309E-1
1.488285124E0,-3.365867436E-1,-4.628831446E-1,5.383250117E-1
1.490518218E0,-2.547308207E-1,-4.583016634E-1,4.631885588E-1
1.492755340E0,-1.459967941E-1,-4.749477208E-1,3.587306142E-1
1.494991912E0,-4.031710699E-2,-5.146539807E-1,2.677116990E-1
1.497228545E0,5.543602258E-2,-5.517640114E-1,2.023491114E-1
1.499461944E0,1.398881376E-1,-5.849034786E-1,1.649336219E-1
1.501689178E0,2.083050460E-1,-6.203336716E-1,1.543961912E-1
1.503938201E0,2.617557645E-1,-6.479753256E-1,1.608102769E-1
1.506171721E0,3.017674387E-1,-6.717990637E-1,1.782199293E-1
1.508402252E0,3.271183372E-1,-6.930266023E-1,2.003637999E-1
1.510647918E0,3.411682248E-1,-7.211264372E-1,2.249511331E-1
1.512884490E0,3.478877544E-1,-7.480044961E-1,2.431243658E-1
1.515124114E0,3.521638215E-1,-7.771732807E-1,2.553416789E-1
1.517357879E0,3.564398587E-1,-8.064948320E-1,2.564106882E-1
1.519592315E0,3.558290005E-1,-8.379544020E-1,2.489275932E-1
1.521819366E0,3.640756905E-1,-8.562803864E-1,2.403754741E-1
1.524067840E0,3.701843321E-1,-8.662069440E-1,2.293798923E-1
1.526304595E0,3.750712574E-1,-8.735373020E-1,2.098322064E-1
1.528543120E0,3.875939846E-1,-8.726209998E-1,1.843285859E-1
1.530777007E0,4.004221559E-1,-8.619308472E-1,1.415680200E-1
1.533010528E0,4.195117056E-1,-8.561276197E-1,7.696902007E-2
1.535239165E0,4.445571899E-1,-8.578075171E-1,3.665191587E-3
1.537488250E0,4.793764949E-1,-8.645270467E-1,-6.826419383E-2
1.539723357E0,5.102251768E-1,-8.834638596E-1,-1.389718503E-1
1.541962860E0,5.287038684E-1,-9.056077003E-1,-2.086104751E-1
1.544193938E0,5.445863605E-1,-9.385944605E-1,-2.869539559E-1
1.546420318E0,5.615378618E-1,-9.790642858E-1,-3.628539443E-1
1.548657684E0,5.734497309E-1,-1.020450354E0,-4.302018583E-1
1.550906158E0,5.900958180E-1,-1.068097830E0,-4.853324294E-1
1.553145537E0,6.091853380E-1,-1.111011147E0,-5.221370459E-1
1.555380828E0,6.284276247E-1,-1.146594048E0,-5.429064631E-1
1.557602019E0,6.412557960E-1,-1.177137375E0,-5.490151644E-1
1.559837859E0,6.482807398E-1,-1.199128509E0,-5.404630303E-1
1.562074248E0,6.417139173E-1,-1.201419234E0,-5.013676286E-1
1.564317230E0,6.097962260E-1,-1.177748203E0,-4.353941977E-1
1.566565460E0,5.545129180E-1,-1.141554475E0,-3.428481221E-1
1.568801971E0,4.859432876E-1,-1.087950945E0,-2.440406680E-1
1.571038543E0,4.150829315E-1,-1.028391600E0,-1.513418704E-1
1.573270537E0,3.503312171E-1,-9.749409556E-1,-6.734789163E-2
1.575497222E0,2.842050493E-1,-9.323330522E-1,6.872233935E-3
1.577745086E0,2.165517360E-1,-9.056077003E-1,6.520986557E-2
1.579981353E0,1.638645977E-1,-8.778133392E-1,1.113301888E-1
1.582221344E0,1.273654103E-1,-8.480336666E-1,1.429424733E-1
1.584455047E0,1.082758680E-1,-8.161159754E-1,1.600466967E-1
1.586691375E0,1.110247597E-1,-7.979426980E-1,1.663080603E-1
1.588928252E0,1.246165112E-1,-7.958046794E-1,1.701259762E-1
1.591165984E0,1.464549452E-1,-8.058840036E-1,1.788308024E-1
1.593401336E0,1.769981980E-1,-8.150469661E-1,1.826487035E-1
1.595637969E0,2.073887438E-1,-8.301658630E-1,1.927279830E-1
1.597875091E0,2.376265824E-1,-8.550586104E-1,1.977676302E-1
1.600110809E0,2.704605758E-1,-8.715519905E-1,2.125810981E-1
1.602347686E0,2.997821271E-1,-8.756753206E-1,2.336559594E-1
1.604583892E0,3.292563558E-1,-8.689557910E-1,2.706133127E-1
1.606820830E0,3.448334336E-1,-8.680394888E-1,3.271183372E-1
1.609058257E0,3.555235863E-1,-8.646797538E-1,3.920227587E-1
1.611290679E0,3.573561609E-1,-8.732318878E-1,4.642575979E-1
1.613518523E0,3.565925956E-1,-8.828529716E-1,5.387831330E-1
1.615766570E0,3.532328308E-1,-8.998045325E-1,6.157521605E-1
1.618003692E0,3.425426781E-1,-9.190467596E-1,6.927211881E-1
1.620243133E0,3.368921876E-1,-9.323330522E-1,7.586946487E-1
1.622476531E0,3.349068761E-1,-9.505063295E-1,8.161159754E-1
1.624713408E0,3.402519524E-1,-9.724974632E-1,8.649851680E-1
1.626951080E0,3.515529633E-1,-1.009149432E0,9.065240026E-1
1.629186248E0,3.703370690E-1,-1.042288780E0,9.323330522E-1
1.631422820E0,3.953825235E-1,-1.081536889E0,9.445503950E-1
1.633659027E0,4.192062616E-1,-1.122006774E0,9.434813857E-1
1.635895965E0,4.454734921E-1,-1.161407590E0,9.324858189E-1
1.638132598E0,4.744895697E-1,-1.199586630E0,9.153815508E-1
1.640368498E0,4.995350540E-1,-1.240209222E0,8.921687007E-1
1.642599639E0,5.212207437E-1,-1.272126913E0,8.703302741E-1
1.644831817E0,5.369505286E-1,-1.296714187E0,8.458956480E-1
1.647079009E0,5.416847467E-1,-1.313818455E0,8.200865984E-1
1.649316252E0,5.416847467E-1,-1.319774389E0,7.980954647E-1
1.651554717E0,5.442809463E-1,-1.323439598E0,7.809911966E-1
1.653789031E0,5.395467281E-1,-1.317330956E0,7.710646391E-1
1.656025420E0,5.384777188E-1,-1.307557106E0,7.638869882E-1
1.658261993E0,5.375614166E-1,-1.291827321E0,7.602217793E-1
1.660498748E0,5.332853794E-1,-1.263880134E0,7.565566301E-1
1.662736297E0,5.229006410E-1,-1.232115149E0,7.567093372E-1
1.664971587E0,5.088507533E-1,-1.195463300E0,7.591527700E-1
1.667208221E0,4.862487316E-1,-1.151328325E0,7.591527700E-1
1.669442534E0,4.601342380E-1,-1.104597092E0,7.640396953E-1
1.671669646E0,4.265366495E-1,-1.059087634E0,7.651087046E-1
1.673915007E0,3.992004395E-1,-1.012356400E0,7.651087046E-1
1.676142303E0,3.743076921E-1,-9.682214260E-1,7.673994899E-1
1.678391265E0,3.480404615E-1,-9.240863919E-1,7.698429227E-1
1.680615569E0,3.194825351E-1,-8.761335015E-1,7.735081315E-1
1.682862823E0,2.872593701E-1,-8.281805515E-1,7.721336484E-1
1.685100799E0,2.548835278E-1,-7.838928103E-1,7.745771408E-1
1.687340117E0,2.200642079E-1,-7.394523621E-1,7.719809413E-1
1.689572173E0,1.890627891E-1,-6.904304624E-1,7.669413090E-1
1.691799041E0,1.617265791E-1,-6.461427212E-1,7.632761002E-1
1.694044097E0,1.366810948E-1,-6.067419052E-1,7.596109509E-1
1.696271941E0,1.165225431E-1,-5.700899959E-1,7.533495426E-1
1.698524078E0,9.880745411E-2,-5.345070958E-1,7.484626174E-1
1.700753814E0,8.720101416E-2,-5.039638281E-1,7.399105430E-1
1.702984405E0,7.544185966E-2,-4.769330323E-1,7.289149761E-1
1.705229705E0,6.994406879E-2,-4.514294267E-1,7.156286240E-1
1.707466521E0,6.429356337E-2,-4.257730842E-1,7.095199823E-1
1.709706085E0,5.375614017E-2,-4.025602043E-1,7.058547735E-1
1.711939666E0,4.673119262E-2,-3.854559660E-1,7.009678483E-1
1.714176543E0,2.993239649E-2,-3.692680299E-1,6.971499324E-1
1.716414031E0,1.404990070E-2,-3.593414724E-1,7.057020664E-1
1.718649383E0,1.985312067E-2,-3.727805018E-1,7.154759169E-1
1.720885955E0,5.803219974E-2,-4.231768847E-1,7.266241908E-1
1.723122222E0,1.131627858E-1,-5.007568002E-1,7.328855991E-1
1.725359100E0,1.742493063E-1,-5.856670737E-1,7.244861722E-1
1.727595672E0,2.289217561E-1,-6.850853562E-1,7.073819637E-1
1.729832244E0,2.739730477E-1,-7.854200006E-1,6.756169796E-1
1.732069060E0,3.057380617E-1,-8.721628785E-1,6.388123035E-1
1.734306365E0,3.280346394E-1,-9.358455539E-1,5.983424783E-1
1.736541961E0,3.397938013E-1,-9.784533978E-1,5.639813542E-1
1.738778777E0,3.443752825E-1,-1.001666307E0,5.393940210E-1
1.741015899E0,3.419318199E-1,-1.002735257E0,5.296201706E-1
1.743251922E0,3.240640163E-1,-9.732610583E-1,5.332853794E-1
1.745486297E0,2.784018219E-1,-9.166033268E-1,5.429064631E-1
1.747716827E0,2.266310006E-1,-8.475755453E-1,5.598580241E-1
1.749961883E0,1.652390510E-1,-7.771732807E-1,5.768095255E-1
1.752199187E0,1.122464910E-1,-7.119634151E-1,5.949827433E-1
1.754436492E0,6.276640296E-2,-6.575964093E-1,6.107125282E-1
1.756671050E0,2.046398632E-2,-6.142250299E-1,6.238461137E-1
1.758907379E0,-1.130100712E-2,-5.978843570E-1,6.285803318E-1
1.761144317E0,-2.260201424E-2,-6.085745096E-1,6.296493411E-1
1.763381072E0,-1.466076635E-2,-6.462954283E-1,6.284276247E-1
1.765617400E0,1.023199316E-2,-6.953173876E-1,6.308710575E-1
1.767854278E0,3.741549700E-2,-7.432702780E-1,6.345362663E-1
1.770091705E0,5.390885845E-2,-7.835873961E-1,6.369797587E-1
1.772327117E0,6.414084882E-2,-8.190175891E-1,6.467535496E-1
1.774564238E0,7.574728876E-2,-8.532260060E-1,6.577491760E-1
1.776802215E0,8.353582025E-2,-8.860600591E-1,6.685920358E-1
1.779037078E0,9.040805697E-2,-9.117164016E-1,6.783658266E-1
1.781273467E0,9.728029370E-2,-9.337075353E-1,6.795876026E-1
1.783509735E0,1.105666086E-1,-9.460775256E-1,6.820310354E-1
1.785747039E0,1.229366288E-1,-9.511171579E-1,6.724098921E-1
1.787984344E0,1.340849251E-1,-9.489791393E-1,6.675229669E-1
1.790219695E0,1.415680200E-1,-9.430232048E-1,6.603453159E-1
1.792456451E0,1.443169117E-1,-9.297369123E-1,6.530149579E-1
1.794692596E0,1.458440721E-1,-9.176723361E-1,6.482807398E-1
1.796929717E0,1.450804919E-1,-9.007207751E-1,6.421720982E-1
1.799166167E0,1.418734491E-1,-8.762862086E-1,6.372851729E-1
1.801402618E0,1.411098689E-1,-8.568912148E-1,6.288857460E-1
1.803639617E0,1.366810948E-1,-8.349000812E-1,6.154467463E-1
1.805876922E0,1.311833113E-1,-8.106181622E-1,6.032294035E-1
1.808112579E0,1.255328059E-1,-7.849618196E-1,5.873469114E-1
1.810349273E0,1.238529310E-1,-7.557930350E-1,5.728389025E-1
1.812586516E0,1.206458881E-1,-7.339546084E-1,5.545129180E-1
1.814823699E0,1.189660057E-1,-7.060074806E-1,5.351179838E-1
1.817058746E0,1.171334088E-1,-6.803511381E-1,5.143485069E-1
1.819294952E0,1.250746548E-1,-6.598871946E-1,4.925101101E-1
1.821531829E0,1.356120855E-1,-6.383541822E-1,4.682282209E-1
1.823769500E0,1.507309973E-1,-6.276640296E-1,4.488332272E-1
1.826005096E0,1.620320082E-1,-6.206390858E-1,4.353941977E-1
1.828241424E0,1.745547503E-1,-6.148358583E-1,4.233296216E-1
1.830477996E0,1.844813079E-1,-6.101016402E-1,4.137084782E-1
1.832714812E0,1.919644028E-1,-6.065891981E-1,4.100432992E-1
1.834951446E0,1.947132945E-1,-5.981897712E-1,4.088215530E-1
1.837187957E0,1.960877478E-1,-5.897904038E-1,4.101960063E-1
1.839423613E0,1.863138974E-1,-5.847507715E-1,4.161519408E-1
1.841655058E0,1.815796942E-1,-5.688682795E-1,4.260784984E-1
1.843885405E0,1.632537395E-1,-5.551238060E-1,4.369213581E-1
1.846123199E0,1.487456858E-1,-5.390886068E-1,4.466952085E-1
1.848371428E0,1.331686229E-1,-5.206099153E-1,4.528038502E-1
1.850609465E0,1.087340117E-1,-5.042692423E-1,4.587597847E-1
1.852846465E0,8.689557761E-2,-4.868595898E-1,4.634940028E-1
1.855080596E0,6.765332818E-2,-4.659374654E-1,4.757113159E-1
1.857317412E0,4.810563847E-2,-4.473060668E-1,4.938845634E-1
1.859551726E0,2.489275858E-2,-4.334088862E-1,5.108360648E-1
1.861778289E0,1.527163084E-3,-4.245513380E-1,5.303837657E-1
1.864026824E0,-2.458732575E-2,-4.312708676E-1,5.508477092E-1
1.866263091E0,-4.474587739E-2,-4.503603876E-1,5.726861954E-1
1.868502716E0,-6.047565863E-2,-4.851797223E-1,5.919284225E-1
1.870736480E0,-7.864890248E-2,-5.248859525E-1,6.136141419E-1
1.872972869E0,-9.056077152E-2,-5.623014569E-1,6.317873597E-1
1.875209990E0,-9.773843735E-2,-6.033821702E-1,6.510296464E-1
1.877444426E0,-1.000291854E-1,-6.519459486E-1,6.704245806E-1
1.879671661E0,-1.061378345E-1,-7.015787363E-1,6.898195744E-1
1.881919707E0,-1.058324054E-1,-7.428121567E-1,7.055493593E-1
1.884156951E0,-1.041525230E-1,-7.805330753E-1,7.212791443E-1
1.886395354E0,-9.773843735E-2,-8.219192028E-1,7.334964275E-1
1.888626128E0,-9.498954564E-2,-8.643743396E-1,7.431175709E-1
1.890853484E0,-8.827003092E-2,-8.949176073E-1,7.564038634E-1
1.893102752E0,-7.284568250E-2,-9.170614481E-1,7.663304210E-1
1.895339751E0,-5.360342562E-2,-9.379835725E-1,7.761042714E-1
1.897578155E0,-4.184427112E-2,-9.613491893E-1,7.884743214E-1
1.899811919E0,-3.130684420E-2,-9.796751142E-1,8.043568134E-1
1.902048309E0,-1.802052557E-2,-9.909761548E-1,8.214610219E-1
1.904285186E0,-6.261368748E-3,-1.005789638E0,8.436049223E-1
1.906521514E0,6.719517522E-3,-1.025337338E0,8.692612648E-1
1.908757537E0,1.481348183E-2,-1.045037746E0,8.914051056E-1
1.910995147E0,1.786780916E-2,-1.068097830E0,9.156870246E-1
1.913232574E0,1.970040426E-2,-1.093601465E0,9.376781583E-1
1.915467986E0,2.138028294E-2,-1.120326877E0,9.560040832E-1
1.917704803E0,2.321287990E-2,-1.145830512E0,9.753990769E-1
1.919940826E0,2.993239649E-2,-1.172708511E0,9.937250614E-1
1.922177825E0,3.817907721E-2,-1.191034555E0,1.009607553E0
1.924414458E0,5.742133409E-2,-1.207222462E0,1.024420977E0
1.926650848E0,7.788532227E-2,-1.225853801E0,1.038012743E0
1.928887664E0,9.957103431E-2,-1.242041707E0,1.049161077E0
1.931124969E0,1.189660057E-1,-1.252121091E0,1.056644201E0
1.933360809E0,1.334740520E-1,-1.263269305E0,1.066418052E0
1.935597198E0,1.417207420E-1,-1.278082848E0,1.077413559E0
1.937833709E0,1.548543423E-1,-1.295339704E0,1.081231475E0
1.940067290E0,1.679879427E-1,-1.317483664E0,1.086118460E0
1.942295196E0,1.797471046E-1,-1.345583439E0,1.084896684E0
1.944540679E0,1.866193265E-1,-1.371239781E0,1.077413559E0
1.946768584E0,1.934915632E-1,-1.400408626E0,1.066418052E0
1.949020659E0,2.029599845E-1,-1.427286625E0,1.052978992E0
1.951252837E0,2.098322064E-1,-1.457829952E0,1.033278584E0
1.953492950E0,2.105957866E-1,-1.485777020E0,1.016021609E0
1.955727203E0,2.090686262E-1,-1.506240964E0,9.914342761E-1
1.957962920E0,2.101376504E-1,-1.527010441E0,9.692904353E-1
1.960196563E0,2.061670274E-1,-1.545030951E0,9.485210180E-1
1.962421355E0,2.034181207E-1,-1.566869378E0,9.239336848E-1
1.964661407E0,1.983784884E-1,-1.578933954E0,9.005680680E-1
1.966910369E0,1.886046380E-1,-1.588402390E0,8.698720932E-1
1.969148590E0,1.763873398E-1,-1.592983842E0,8.416196108E-1
1.971386504E0,1.606575549E-1,-1.586569786E0,8.121453524E-1
1.973623931E0,1.450804919E-1,-1.582751870E0,7.788531780E-1
1.975855498E0,1.246165112E-1,-1.570076346E0,7.457137704E-1
1.978092254E0,1.055269688E-1,-1.554041147E0,7.089090943E-1
1.980327239E0,7.528914511E-2,-1.541213036E0,6.658431292E-1
1.982565459E0,4.612032697E-2,-1.533424497E0,6.241515875E-1
1.984802886E0,1.343903504E-2,-1.524261475E0,5.786421299E-1
1.987038299E0,-1.679879427E-2,-1.511586070E0,5.319108963E-1
1.989274871E0,-4.688390717E-2,-1.490358472E0,4.839579761E-1
1.991511138E0,-7.559457421E-2,-1.465465665E0,4.349360466E-1
1.993748016E0,-1.039998084E-1,-1.429730058E0,3.859141171E-1
1.995984649E0,-1.311833113E-1,-1.390329242E0,3.368921876E-1
1.998221404E0,-1.531744599E-1,-1.340085626E0,2.866485119E-1
2.000458037E0,-1.763873398E-1,-1.283886075E0,2.377792895E-1
2.002695586E0,-1.957823038E-1,-1.226464748E0,1.864666194E-1
2.004931182E0,-2.113593817E-1,-1.164156437E0,1.339322031E-1
2.007155914E0,-2.293798923E-1,-1.097113967E0,8.384125680E-2
2.009394988E0,-2.460259795E-1,-1.026406288E0,3.390302137E-2
2.011642302E0,-2.553416789E-1,-9.570731521E-1,-1.618792862E-2
2.013881559E0,-2.648100853E-1,-8.949176073E-1,-6.368270516E-2
2.016120816E0,-2.695443034E-1,-8.378016949E-1,-1.111774743E-1
2.018360073E0,-2.755002379E-1,-7.866417170E-1,-1.588249654E-1
2.020579009E0,-2.805398703E-1,-7.429648638E-1,-2.050980031E-1
2.022814788E0,-2.819143236E-1,-7.064656615E-1,-2.466368377E-1
2.025051421E0,-2.822197378E-1,-6.713408828E-1,-2.806925774E-1
2.027292327E0,-2.811507285E-1,-6.264423132E-1,-3.098613918E-1
2.029546905E0,-2.814561725E-1,-5.862779021E-1,-3.316998184E-1
2.031758513E0,-2.805398703E-1,-5.474879742E-1,-3.437644243E-1
2.033998382E0,-2.835941911E-1,-5.183191895E-1,-3.498730659E-1
2.036232146E0,-2.901609838E-1,-4.805982411E-1,-3.497203588E-1
2.038470427E0,-2.956587672E-1,-4.465425014E-1,-3.460551500E-1
2.040705658E0,-2.987131178E-1,-4.124867618E-1,-3.410155177E-1
2.042939239E0,-3.055853248E-1,-3.843869567E-1,-3.335324228E-1
2.045177520E0,-3.100140989E-1,-3.601050675E-1,-3.310889602E-1
2.047415130E0,-3.086396754E-1,-3.455969989E-1,-3.248275816E-1
2.049651153E0,-3.061962128E-1,-3.517056704E-1,-3.187189400E-1
2.051887786E0,-2.932153046E-1,-3.700316250E-1,-3.126102984E-1
2.054125396E0,-2.787072659E-1,-3.825543523E-1,-3.052799106E-1
2.056360442E0,-2.671008408E-1,-3.633120954E-1,-3.124575615E-1
2.058592986E0,-2.619084716E-1,-2.918408811E-1,-3.304781020E-1
2.060833282E0,-2.582432926E-1,-1.814269722E-1,-3.605632186E-1
2.063070220E0,-2.528982162E-1,-5.528330430E-2,-3.929390609E-1
2.065309600E0,-2.451096773E-1,7.681630552E-2,-4.242459238E-1
2.067543487E0,-2.411390543E-1,2.029599845E-1,-4.518875778E-1
2.069780303E0,-2.397646159E-1,3.242167234E-1,-4.732678533E-1
2.072016509E0,-2.448042482E-1,4.335615933E-1,-4.973970354E-1
2.074254607E0,-2.562579811E-1,5.236642361E-1,-5.216789246E-1
2.076489959E0,-2.693915665E-1,6.003278494E-1,-5.384777188E-1
2.078727569E0,-2.805398703E-1,6.514877677E-1,-5.555819273E-1
2.080962737E0,-2.921462953E-1,6.808093190E-1,-5.714644194E-1
2.083199798E0,-3.089450896E-1,6.994407177E-1,-5.838344693E-1
2.085437408E0,-3.211624026E-1,7.020368576E-1,-5.948300362E-1
2.087673614E0,-3.344487250E-1,7.084509730E-1,-6.023131609E-1
2.089910003E0,-3.454442918E-1,7.086036801E-1,-6.122397184E-1
2.092147002E0,-3.602577746E-1,7.089090943E-1,-6.221662760E-1
2.094382720E0,-3.700316250E-1,7.102835774E-1,-6.307183504E-1
2.096618926E0,-3.798054755E-1,7.104362845E-1,-6.394231915E-1
2.098857085E0,-3.908010423E-1,7.082982659E-1,-6.469063163E-1
2.101093108E0,-3.995058835E-1,7.023423314E-1,-6.481280327E-1
2.103329009E0,-4.043927789E-1,7.073819637E-1,-6.542366743E-1
2.105565887E0,-4.089742899E-1,7.195992470E-1,-6.530149579E-1
2.107804656E0,-4.173736870E-1,7.354817390E-1,-6.517932415E-1
2.110040618E0,-4.195117056E-1,7.513642311E-1,-6.469063163E-1
2.112275908E0,-4.240931869E-1,7.707592249E-1,-6.420193911E-1
2.114512542E0,-4.298964143E-1,7.915286422E-1,-6.357579827E-1
2.116748504E0,-4.283692539E-1,8.060367107E-1,-6.259841323E-1
2.118987945E0,-4.306600094E-1,8.170322776E-1,-6.149885654E-1
2.121222320E0,-4.329507351E-1,8.280278444E-1,-6.026185751E-1
2.123458099E0,-4.353941977E-1,8.341364861E-1,-5.916230083E-1
2.125693633E0,-4.392121136E-1,8.330674767E-1,-5.818491578E-1
2.127932769E0,-4.430300295E-1,8.306240439E-1,-5.696318150E-1
2.130170562E0,-4.471533597E-1,8.173376918E-1,-5.600107312E-1
2.132404876E0,-4.524984360E-1,7.968736887E-1,-5.491678715E-1
2.134642547E0,-4.555527568E-1,7.690793276E-1,-5.406157374E-1
2.136878325E0,-4.563163519E-1,7.338019013E-1,-5.285511613E-1
2.139119659E0,-4.561636150E-1,6.901249886E-1,-5.164865851E-1
2.141350921E0,-4.584543705E-1,6.415612102E-1,-5.021312237E-1
2.143589995E0,-4.581489265E-1,5.978843570E-1,-4.864014387E-1
2.145824980E0,-4.581489265E-1,5.458080769E-1,-4.731151462E-1
2.148063628E0,-4.532620013E-1,4.885394871E-1,-4.586070776E-1
2.150298492E0,-4.470006526E-1,4.326453209E-1,-4.440990388E-1
2.152535003E0,-4.408919811E-1,3.804163337E-1,-4.320344329E-1
2.154774138E0,-4.346306324E-1,3.255911767E-1,-4.224133193E-1
2.157012542E0,-4.234823287E-1,2.719877362E-1,-4.140139222E-1
2.159243804E0,-4.147774875E-1,2.160935849E-1,-4.079052806E-1
2.161473114E0,-4.036292136E-1,1.600466967E-1,-4.043927789E-1
2.163717315E0,-3.912591934E-1,1.050688252E-1,-4.045455158E-1
2.165960784E0,-3.848451078E-1,5.650503561E-2,-4.022547603E-1
2.168194304E0,-3.784310222E-1,5.345070735E-3,-4.024074674E-1
2.170431975E0,-3.744603992E-1,-3.726277873E-2,-4.050036669E-1
2.172661590E0,-3.775147200E-1,-7.238753140E-2,-4.039346576E-1
2.174900176E0,-3.830125034E-1,-9.896016866E-2,-4.016439021E-1
2.177139617E0,-3.958406746E-1,-1.192714423E-1,-3.993531466E-1
2.179373992E0,-4.057672322E-1,-1.240056455E-1,-3.909537494E-1
2.181613006E0,-4.219551682E-1,-1.261436790E-1,-3.788891733E-1
2.183846099E0,-4.392121136E-1,-1.256855279E-1,-3.605632186E-1
2.186085479E0,-4.528038502E-1,-1.206458881E-1,-3.387247920E-1
2.188322234E0,-4.702135324E-1,-1.142318025E-1,-3.130684495E-1
2.190561309E0,-4.860960245E-1,-1.017090604E-1,-2.863430977E-1
2.192793670E0,-5.006040931E-1,-8.445212245E-2,-2.631302178E-1
2.195029083E0,-5.152648091E-1,-6.475171447E-2,-2.386955917E-1
2.197266754E0,-5.259549618E-1,-4.276056588E-2,-2.191479057E-1
2.199504425E0,-5.367978215E-1,-2.550362423E-2,-2.008219510E-1
2.201738189E0,-5.537493229E-1,-7.024950348E-3,-1.861611903E-1
2.203977264E0,-5.684100986E-1,7.788531948E-3,-1.715004146E-1
2.206212859E0,-5.804746747E-1,2.382374369E-2,-1.556179225E-1
2.208448394E0,-5.965099335E-1,2.901609987E-2,-1.423316002E-1
2.210683319E0,-6.099489331E-1,3.649919853E-2,-1.301143020E-1
2.212922393E0,-6.246097088E-1,4.291328415E-2,-1.192714423E-1
2.215163177E0,-6.429356933E-1,5.299255997E-2,-1.058324054E-1
2.217396636E0,-6.527095437E-1,6.169738993E-2,-9.743300825E-2
2.219635589E0,-6.600399017E-1,6.902777404E-2,-8.643743396E-2
2.221866667E0,-6.710354686E-1,7.773260027E-2,-8.032877743E-2
2.224106475E0,-6.769914031E-1,8.643743396E-2,-7.422012836E-2
2.226340423E0,-6.794348955E-1,9.132435173E-2,-7.299839705E-2
2.228576629E0,-6.817256212E-1,9.865473956E-2,-7.299839705E-2
2.230813811E0,-6.803511381E-1,1.058324054E-1,-7.422012836E-2
2.233053435E0,-6.824892163E-1,1.192714423E-1,-7.910704613E-2
2.235290618E0,-6.856962442E-1,1.398881376E-1,-8.994990587E-2
2.237529144E0,-6.914994717E-1,1.522581577E-1,-9.972374886E-2
2.239759185E0,-7.000515461E-1,1.560760736E-1,-1.084285825E-1
2.241998748E0,-7.171558142E-1,1.551597714E-1,-1.195768714E-1
2.244236052E0,-7.354817390E-1,1.566869318E-1,-1.343903542E-1
2.246472686E0,-7.550294399E-1,1.583668143E-1,-1.540907621E-1
2.248713653E0,-7.771732807E-1,1.563815027E-1,-1.702786833E-1
2.250944487E0,-7.991644740E-1,1.566869318E-1,-1.887573600E-1
2.253186492E0,-8.187121153E-1,1.583668143E-1,-2.084577680E-1
2.255415923E0,-8.321511745E-1,1.537853181E-1,-2.270891517E-1
2.257651763E0,-8.481863737E-1,1.528690308E-1,-2.394591719E-1
2.259887176E0,-8.578075171E-1,1.554652005E-1,-2.480112910E-1
2.262125396E0,-8.675813675E-1,1.592831165E-1,-2.554943860E-1
2.264364044E0,-8.770498037E-1,1.740965992E-1,-2.603813112E-1
2.266602813E0,-8.779660463E-1,1.898263693E-1,-2.628247738E-1
2.268837859E0,-8.849910498E-1,2.093740702E-1,-2.687807083E-1
2.271077850E0,-8.880453706E-1,2.338086665E-1,-2.724458873E-1
2.273309966E0,-8.886561990E-1,2.640464902E-1,-2.796235681E-1
2.275551360E0,-8.828529716E-1,3.028364480E-1,-2.892446816E-1
2.277780913E0,-8.746063113E-1,3.439171314E-1,-2.952006161E-1
2.280018951E0,-8.674286604E-1,3.911064863E-1,-3.058907688E-1
2.282253936E0,-8.541423082E-1,4.369213581E-1,-3.141374588E-1
2.284493804E0,-8.347473741E-1,4.827362597E-1,-3.248275816E-1
2.286735564E0,-8.078693151E-1,5.319108963E-1,-3.304781020E-1
2.288968536E0,-7.785477638E-1,5.774203539E-1,-3.373503387E-1
2.291206878E0,-7.469354868E-1,6.181956530E-1,-3.407101035E-1
2.293437347E0,-7.102835774E-1,6.586654782E-1,-3.414736688E-1
2.295674346E0,-6.664539576E-1,6.966918111E-1,-3.396410644E-1
2.297911955E0,-6.264423132E-1,7.322747111E-1,-3.330742717E-1
2.300157256E0,-5.842925906E-1,7.509061098E-1,-3.240640163E-1
2.302384429E0,-5.396994352E-1,7.681630254E-1,-3.138320148E-1
2.304621855E0,-4.977024496E-1,7.757988572E-1,-2.987131178E-1
2.306858062E0,-4.572326243E-1,7.787004709E-1,-2.825251818E-1
2.309096099E0,-4.214970171E-1,7.803803682E-1,-2.661845386E-1
2.311336882E0,-3.946189582E-1,7.811439037E-1,-2.489275932E-1
2.313569122E0,-3.714060783E-1,7.770205736E-1,-2.241875380E-1
2.315806182E0,-3.507893682E-1,7.718282342E-1,-1.959350258E-1
2.318041106E0,-3.350595832E-1,7.690793276E-1,-1.652390510E-1
2.320279021E0,-3.231477141E-1,7.602217793E-1,-1.357648075E-1
2.322517913E0,-3.199406862E-1,7.481572032E-1,-1.064432710E-1
2.324749176E0,-3.141374588E-1,7.370089293E-1,-8.078692853E-2
2.326986663E0,-3.095559776E-1,7.272350788E-1,-5.497787148E-2
2.329225188E0,-3.063489199E-1,7.125743032E-1,-3.665191308E-2
2.331461516E0,-3.019201458E-1,6.919575930E-1,-2.336559631E-2
2.333697356E0,-3.011565804E-1,6.688974500E-1,-1.359175146E-2
2.335935210E0,-2.967278063E-1,6.456845403E-1,-6.261368748E-3
2.338168914E0,-2.910772860E-1,6.212499738E-1,-7.635815535E-3
2.340407012E0,-2.864958048E-1,6.041457057E-1,-1.252273750E-2
2.342643524E0,-2.794708610E-1,5.833762884E-1,-2.474004216E-2
2.344880706E0,-2.686280012E-1,5.699372888E-1,-3.451388702E-2
2.347116851E0,-2.554943860E-1,5.453499556E-1,-4.062253982E-2
2.349352996E0,-2.414444834E-1,5.123631954E-1,-4.306599870E-2
2.351591033E0,-2.202169150E-1,4.633412957E-1,-5.283984542E-2
2.353826262E0,-1.965458989E-1,4.106541574E-1,-6.765332818E-2
2.356065826E0,-1.753183305E-1,3.520110846E-1,-8.842274547E-2
2.358299346E0,-1.577559561E-1,2.994766831E-1,-1.154535338E-1
2.360535613E0,-1.375973970E-1,2.542726696E-1,-1.374446750E-1
2.362771148E0,-1.272126883E-1,2.176207453E-1,-1.510364264E-1
2.365012664E0,-1.168279797E-1,1.809688359E-1,-1.620320082E-1
2.367245818E0,-1.052215397E-1,1.408044398E-1,-1.744020283E-1
2.369481231E0,-9.712757170E-2,1.078177169E-1,-1.878410578E-1
2.371716277E0,-9.147707373E-2,7.987063378E-2,-2.002110779E-1
2.373953643E0,-9.071348608E-2,5.314527452E-2,-2.089159191E-1
2.376190887E0,-9.483683109E-2,2.519819140E-2,-2.225076705E-1
2.378428740E0,-1.003346145E-1,-3.817907767E-3,-2.360994220E-1
2.380665008E0,-1.046106741E-1,-3.283400834E-2,-2.460259795E-1
2.382900969E0,-1.125519201E-1,-6.414084882E-2,-2.535090744E-1
2.385139800E0,-1.159116775E-1,-1.139263660E-1,-2.562579811E-1
2.387376251E0,-1.114829108E-1,-1.855503172E-1,-2.344195396E-1
2.389610625E0,-1.064432710E-1,-2.365575731E-1,-2.211332172E-1
2.391846466E0,-1.021672115E-1,-2.718350291E-1,-2.188424766E-1
2.394083587E0,-1.038470939E-1,-2.936734557E-1,-2.214386463E-1
2.396321258E0,-1.108720452E-1,-2.826778889E-1,-2.348776907E-1
2.398556975E0,-1.200350225E-1,-2.509129047E-1,-2.507601976E-1
2.400793548E0,-1.316414624E-1,-2.191479057E-1,-2.666426897E-1
2.403029693E0,-1.446223408E-1,-1.994474977E-1,-2.764165103E-1
2.405267486E0,-1.594358236E-1,-2.003637999E-1,-2.790127099E-1
2.407503692E0,-1.768454909E-1,-2.073887438E-1,-2.755002379E-1
2.409742157E0,-2.029599845E-1,-2.153300047E-1,-2.660318017E-1
2.411990691E0,-2.336559594E-1,-2.134974003E-1,-2.539672256E-1
2.414227995E0,-2.641992271E-1,-1.996002197E-1,-2.504547536E-1
2.416463896E0,-2.910772860E-1,-1.820378453E-1,-2.469422817E-1
2.418697539E0,-3.164281845E-1,-1.572978050E-1,-2.458732575E-1
2.420934051E0,-3.405573666E-1,-1.350012124E-1,-2.423607856E-1
2.423170623E0,-3.599523604E-1,-1.188132912E-1,-2.388483137E-1
2.425404326E0,-3.793473244E-1,-1.050688252E-1,-2.437352389E-1
2.427629180E0,-3.988949955E-1,-9.743300825E-2,-2.426662147E-1
2.429868438E0,-4.147774875E-1,-9.224065393E-2,-2.391537428E-1
2.432118133E0,-4.393648207E-1,-8.323039114E-2,-2.307543457E-1
2.434356353E0,-4.650211632E-1,-7.544185966E-2,-2.235766798E-1
2.436593170E0,-4.883867502E-1,-7.024950534E-2,-2.102903575E-1
2.438826568E0,-5.154175758E-1,-5.757404864E-2,-1.933388561E-1
2.441063201E0,-5.383250117E-1,-2.672535367E-2,-1.652390510E-1
2.443299834E0,-5.623014569E-1,1.252273750E-2,-1.346957833E-1
2.445536529E0,-5.957463384E-1,1.802052557E-2,-1.105666086E-1
2.447773223E0,-6.307183504E-1,-3.054326167E-3,-9.743300825E-2
2.450010711E0,-6.606507897E-1,-2.794708498E-2,-9.651670605E-2
2.452246001E0,-6.792821288E-1,-3.848451003E-2,-1.041525230E-1
2.454482696E0,-6.855435371E-1,-4.092797264E-2,-1.053742543E-1
2.456719207E0,-6.866125464E-1,-3.481931984E-2,-1.053742543E-1
2.458953154E0,-6.840163469E-1,-2.397646010E-2,-1.017090604E-1
2.461177947E0,-6.736316681E-1,7.483099122E-3,-9.040805697E-2
2.463417205E0,-6.516404748E-1,6.520986557E-2,-7.406741381E-2
2.465665923E0,-6.360634565E-1,1.085812971E-1,-5.910121277E-2
2.467905975E0,-6.281222105E-1,1.339322031E-1,-5.161811411E-2
2.470141815E0,-6.255260110E-1,1.424843222E-1,-5.406157300E-2
2.472375152E0,-6.243042946E-1,1.398881376E-1,-6.872233748E-2
2.474608550E0,-6.220135093E-1,1.278235465E-1,-8.460483700E-2
2.476836394E0,-6.160575747E-1,1.058324054E-1,-1.079704314E-1
2.479085235E0,-6.017022729E-1,7.880161703E-2,-1.262963861E-1
2.481321807E0,-5.839871764E-1,4.092797264E-2,-1.397354305E-1
2.483561553E0,-5.664247870E-1,-7.941247895E-3,-1.495092660E-1
2.485795623E0,-5.490151644E-1,-6.169738993E-2,-1.533271819E-1
2.488031463E0,-5.256495476E-1,-1.240056455E-1,-1.557706445E-1
2.490267974E0,-5.059491396E-1,-1.924225539E-1,-1.620320082E-1
2.492499602E0,-4.838052690E-1,-2.498438805E-1,-1.656972021E-1
2.494722808E0,-4.601342380E-1,-3.037527502E-1,-1.705841124E-1
2.496977447E0,-4.378376603E-1,-3.527746797E-1,-1.754710376E-1
2.499214141E0,-4.115704596E-1,-4.017966092E-1,-1.840231568E-1
2.501455718E0,-3.842342496E-1,-4.471533597E-1,-1.889100820E-1
2.503688506E0,-3.495676219E-1,-5.048801303E-1,-1.999056488E-1
2.505924041E0,-3.138320148E-1,-5.650503635E-1,-2.107485086E-1
2.508160369E0,-2.732094824E-1,-6.290385127E-1,-2.168571651E-1
2.510394011E0,-2.299907655E-1,-6.893614531E-1,-2.277000248E-1
2.512622039E0,-1.918116808E-1,-7.507534027E-1,-2.362521291E-1
2.514870330E0,-1.597412676E-1,-8.107708693E-1,-2.423607856E-1
2.517106658E0,-1.250746548E-1,-8.672759533E-1,-2.495384514E-1
2.519346649E0,-9.285151958E-2,-9.201157689E-1,-2.617557645E-1
2.521576689E0,-6.307183951E-2,-9.692904353E-1,-2.788599730E-1
2.523796416E0,-2.687807009E-2,-1.014799833E0,-2.970332205E-1
2.526038787E0,-4.123340361E-3,-1.052978992E0,-3.214678466E-1
2.528275847E0,1.634064503E-2,-1.084896684E0,-3.495676219E-1
2.530519011E0,3.100141138E-2,-1.103375316E0,-3.801108897E-1
2.532766020E0,3.955352306E-2,-1.118036151E0,-4.167627990E-1
2.535001922E0,3.985895589E-2,-1.118036151E0,-4.560109079E-1
2.537239227E0,3.543018550E-2,-1.108262300E0,-4.987714589E-1
2.539473785E0,2.519819140E-2,-1.082605958E0,-5.380195379E-1
2.541710296E0,7.788531948E-3,-1.043357849E0,-5.758932233E-1
2.543946014E0,-1.695151068E-2,-9.955576062E-1,-6.088799238E-1
2.546182098E0,-4.382958263E-2,-9.379835725E-1,-6.383541822E-1
2.548418670E0,-7.819075137E-2,-8.765916228E-1,-6.554583907E-1
2.550655425E0,-1.137736514E-1,-8.092437387E-1,-6.615670323E-1
2.552891998E0,-1.516472995E-1,-7.344127297E-1,-6.641632318E-1
2.555128631E0,-1.834122837E-1,-6.586654782E-1,-6.493497491E-1
2.557363189E0,-2.139555514E-1,-5.791002512E-1,-6.223189831E-1
2.559586943E0,-2.434297949E-1,-4.960225821E-1,-5.781839490E-1
2.561826934E0,-2.703078687E-1,-4.105014503E-1,-5.206099153E-1
2.564074676E0,-2.900082767E-1,-3.228422701E-1,-4.543310404E-1
2.566314544E0,-3.130684495E-1,-2.215913683E-1,-3.831652105E-1
2.568551178E0,-3.347541690E-1,-1.143845171E-1,-3.168863356E-1
2.570784637E0,-3.576616049E-1,-7.177666761E-3,-2.493857294E-1
2.573021453E0,-3.782783151E-1,9.025534242E-2,-1.878410578E-1
2.575258697E0,-3.988949955E-1,1.780672222E-1,-1.351539344E-1
2.577494292E0,-4.199698567E-1,2.524400651E-1,-9.346238524E-2
2.579730682E0,-4.445571899E-1,3.184134960E-1,-6.276640296E-2
2.581967315E0,-4.755585790E-1,3.785837293E-1,-3.955352306E-2
2.584204375E0,-5.053382516E-1,4.349360466E-1,-2.733621933E-2
2.586437957E0,-5.448917747E-1,4.842634201E-1,-2.626720630E-2
2.588665191E0,-5.835290551E-1,5.225952268E-1,-3.130684420E-2
2.590913726E0,-6.330091357E-1,5.648976564E-1,-4.871650413E-2
2.593151275E0,-6.850853562E-1,6.010913849E-1,-7.590000331E-2
2.595389923E0,-7.394523621E-1,6.397286057E-1,-1.067487001E-1
2.597623870E0,-7.925976515E-1,6.795876026E-1,-1.424843222E-1
2.599861053E0,-8.481863737E-1,7.134906054E-1,-1.820378453E-1
2.602096648E0,-9.040805697E-1,7.400632501E-1,-2.264782935E-1
2.604333221E0,-9.587529898E-1,7.605272532E-1,-2.660318017E-1
2.606569549E0,-1.012203693E0,7.799221873E-1,-3.019201458E-1
2.608806853E0,-1.063516378E0,7.918340564E-1,-3.341432810E-1
2.611043914E0,-1.111163855E0,8.035932183E-1,-3.588833213E-1
2.613279510E0,-1.149037480E0,8.104654551E-1,-3.799581826E-1
2.615516021E0,-1.179733515E0,8.074111342E-1,-3.912591934E-1
2.617752410E0,-1.202030063E0,7.968736887E-1,-3.952298164E-1
2.619989288E0,-1.222188592E0,7.779368758E-1,-3.953825235E-1
2.622226104E0,-1.231198907E0,7.599163651E-1,-3.869831264E-1
2.624458220E0,-1.232878804E0,7.441865802E-1,-3.724750876E-1
2.626681670E0,-1.228297234E0,7.307475209E-1,-3.578143120E-1
2.628936675E0,-1.210276723E0,7.194465399E-1,-3.405573666E-1
2.631172088E0,-1.190881848E0,7.081455588E-1,-3.269656301E-1
2.633413360E0,-1.161713004E0,6.881396770E-1,-3.145956099E-1
2.635645172E0,-1.126740932E0,6.608034968E-1,-2.996293902E-1
2.637881805E0,-1.085660219E0,6.247624159E-1,-2.897028327E-1
2.640118316E0,-1.041067123E0,5.789475441E-1,-2.871066630E-1
2.642354949E0,-9.989174008E-1,5.357288122E-1,-2.880229652E-1
2.644592010E0,-9.578366876E-1,4.923573732E-1,-2.890919745E-1
2.646829131E0,-9.108000994E-1,4.489859641E-1,-2.852740586E-1
2.649064910E0,-8.684976697E-1,4.092797041E-1,-2.861903608E-1
2.651301238E0,-8.188648820E-1,3.683517575E-1,-2.848159075E-1
2.653535369E0,-7.741189599E-1,3.298672438E-1,-2.771801054E-1
2.655764556E0,-7.244861722E-1,2.924517393E-1,-2.695443034E-1
2.658011016E0,-6.785185933E-1,2.515237629E-1,-2.583959997E-1
2.660247710E0,-6.241515875E-1,2.092213482E-1,-2.470949888E-1
2.662486847E0,-5.682573915E-1,1.753183305E-1,-2.283108830E-1
2.664721954E0,-5.137376785E-1,1.414152980E-1,-2.096794993E-1
2.666957488E0,-4.529565871E-1,1.087340117E-1,-1.884519309E-1
2.669194365E0,-3.897320330E-1,7.834346592E-2,-1.672243625E-1
2.671431365E0,-3.225368559E-1,5.757404864E-2,-1.459967941E-1
2.673667205E0,-2.564106882E-1,4.780020565E-2,-1.246165112E-1
2.675903777E0,-1.889100820E-1,4.413501546E-2,-1.056796908E-1
2.678140106E0,-1.111774743E-1,5.467243865E-2,-8.781187981E-2
2.680377227E0,-3.711006418E-2,7.391469181E-2,-7.131851465E-2
2.682614715E0,3.817907721E-2,9.056077152E-2,-5.222897977E-2
2.684850005E0,1.134682223E-1,1.024726480E-1,-3.069597855E-2
2.687086394E0,1.838704348E-1,1.217148975E-1,-1.038470957E-2
2.689322845E0,2.454151064E-1,1.351539344E-1,1.466076635E-2
2.691556670E0,3.046690524E-1,1.496619880E-1,3.726277873E-2
2.693784942E0,3.565925956E-1,1.681406647E-1,5.849034712E-2
2.696032928E0,4.025602043E-1,1.915062517E-1,7.742717117E-2
2.698269805E0,4.386012554E-1,2.113593817E-1,9.483683109E-2
2.700509917E0,4.758640230E-1,2.336559594E-1,1.099557430E-1
2.702740691E0,5.057964325E-1,2.634356320E-1,1.250746548E-1
2.704971404E0,5.283984542E-1,2.860376537E-1,1.327104717E-1
2.707215545E0,5.546656251E-1,3.049744666E-1,1.354593635E-1
2.709448211E0,5.781839490E-1,3.142901659E-1,1.331686229E-1
2.711674285E0,5.856670737E-1,3.178026378E-1,1.369865239E-1
2.713922515E0,5.955936313E-1,3.248275816E-1,1.382082552E-1
2.716150420E0,6.042984724E-1,3.258966208E-1,1.408044398E-1
2.718404021E0,6.105598211E-1,3.294090927E-1,1.420261711E-1
2.720632232E0,6.108652353E-1,3.439171314E-1,1.397354305E-1
2.722862762E0,6.087272167E-1,3.610213697E-1,1.409571618E-1
2.725107757E0,6.139195561E-1,3.790418804E-1,1.423316002E-1
2.727344695E0,6.155994534E-1,3.984368443E-1,1.437060535E-1
2.729582061E0,6.207917929E-1,4.129449129E-1,1.437060535E-1
2.731808379E0,6.272059083E-1,4.260784984E-1,1.487456858E-1
2.734052031E0,6.322455406E-1,4.356996417E-1,1.537853181E-1
2.736280547E0,6.421720982E-1,4.428772926E-1,1.586722434E-1
2.738530486E0,6.508769393E-1,4.462370574E-1,1.734857261E-1
2.740761687E0,6.580545902E-1,4.473060668E-1,1.907426715E-1
2.742992889E0,6.592763066E-1,4.509712756E-1,2.127338201E-1
2.745237518E0,6.629415154E-1,4.569272101E-1,2.397646159E-1
2.747474273E0,6.664539576E-1,4.605923891E-1,2.703078687E-1
2.749710174E0,6.664539576E-1,4.714352489E-1,2.936734557E-1
2.751935760E0,6.740897894E-1,4.906775057E-1,3.145956099E-1
2.754184722E0,6.769914031E-1,5.137376785E-1,3.257438838E-1
2.756420440E0,6.824892163E-1,5.439754725E-1,3.295617998E-1
2.758656951E0,6.856962442E-1,5.839871764E-1,3.370448947E-1
2.760878509E0,6.853908300E-1,6.301075220E-1,3.471241891E-1
2.763117889E0,6.827946305E-1,6.860016584E-1,3.594942093E-1
2.765366668E0,6.666067243E-1,7.481572032E-1,3.743076921E-1
2.767606169E0,6.470590234E-1,8.200865984E-1,3.952298164E-1
2.769841216E0,6.214026809E-1,8.994990587E-1,4.234823287E-1
2.772069854E0,5.907067060E-1,9.776898026E-1,4.554000497E-1
2.774313201E0,5.575672388E-1,1.056033254E0,4.944954216E-1
2.776549590E0,5.206099153E-1,1.129642606E0,5.361869931E-1
2.778787994E0,4.834998548E-1,1.193477988E0,5.789475441E-1
2.781022674E0,4.473060668E-1,1.246317863E0,6.290385127E-1
2.783259490E0,4.057672322E-1,1.283580542E0,6.850853562E-1
2.785495818E0,3.539963961E-1,1.297935963E0,7.446447611E-1
2.787728607E0,3.019201458E-1,1.302517414E0,8.017606139E-1
2.789952789E0,2.487748712E-1,1.306029916E0,8.501716852E-1
2.792205535E0,2.015855312E-1,1.308167934E0,8.950703144E-1
2.794442046E0,1.632537395E-1,1.313665748E0,9.364564419E-1
2.796682708E0,1.325577646E-1,1.324050426E0,9.680687189E-1
2.798915313E0,1.143845171E-1,1.346194267E0,9.911288619E-1
2.801152129E0,1.113301888E-1,1.381471753E0,1.005942345E0
2.803388702E0,1.232420653E-1,1.427286625E0,1.017243385E0
2.805625518E0,1.438587606E-1,1.474323273E0,1.020144939E0
2.807862701E0,1.643227488E-1,1.517542005E0,1.024115562E0
2.810098113E0,1.884519309E-1,1.549765110E0,1.026864529E0
2.812335235E0,2.112066597E-1,1.578475833E0,1.021061301E0
2.814572479E0,2.351831198E-1,1.602299571E0,1.015258074E0
2.816808135E0,2.541199327E-1,1.620167375E0,9.996809959E-1
2.819044585E0,2.667953968E-1,1.634522676E0,9.740246534E-1
2.821280670E0,2.897028327E-1,1.655902982E0,9.425650835E-1
2.823517974E0,3.178026378E-1,1.691791296E0,9.037751555E-1
2.825754242E0,3.497203588E-1,1.740813255E0,8.614727259E-1
2.827987518E0,3.755294085E-1,1.781588435E0,8.214610219E-1
2.830227264E0,3.746131063E-1,1.784031987E0,7.907650471E-1
2.832463897E0,3.477350473E-1,1.734857321E0,7.757988572E-1
2.834701445E0,3.054326177E-1,1.644754648E0,7.615962625E-1
2.836937041E0,2.623666227E-1,1.522887111E0,7.484626174E-1
2.839173797E0,2.214386463E-1,1.382998943E0,7.365507483E-1
2.841410613E0,1.915062517E-1,1.233031511E0,7.221954465E-1
2.843647918E0,1.676825136E-1,1.085507512E0,7.031059265E-1
2.845883269E0,1.516472995E-1,9.498954415E-1,6.766859889E-1
2.848120086E0,1.430951804E-1,8.226827979E-1,6.479753256E-1
2.850356475E0,1.447750628E-1,7.121161819E-1,6.143777370E-1
2.852593475E0,1.514945775E-1,6.076582074E-1,5.713117123E-1
2.854829498E0,1.647808999E-1,5.189300179E-1,5.306891799E-1
2.857066070E0,1.820378453E-1,4.457789063E-1,4.876231849E-1
2.859302886E0,2.083050460E-1,3.869831264E-1,4.424191415E-1
2.861540557E0,2.373211533E-1,3.463605940E-1,4.021020532E-1
2.863776092E0,2.677116990E-1,3.165809214E-1,3.666718602E-1
2.866012481E0,3.043636084E-1,2.976440787E-1,3.437644243E-1
2.868248992E0,3.423899710E-1,2.860376537E-1,3.268128932E-1
2.870485809E0,3.769038618E-1,2.780964077E-1,2.965750694E-1
2.872722442E0,4.080579877E-1,2.799290121E-1,2.625193298E-1
2.874958953E0,4.367686510E-1,2.890919745E-1,2.298380435E-1
2.877195769E0,4.579962194E-1,2.996293902E-1,2.031126916E-1
2.879430083E0,4.731151462E-1,3.089450896E-1,1.776090711E-1
2.881656707E0,4.893030524E-1,3.098613918E-1,1.592831165E-1
2.883905486E0,5.004513264E-1,3.023782969E-1,1.423316002E-1
2.886142486E0,5.140430927E-1,3.020728528E-1,1.264491081E-1
2.888381134E0,5.239696503E-1,3.043636084E-1,1.094975919E-1
2.890615813E0,5.352706909E-1,3.029891551E-1,9.361509979E-2
2.892854705E0,5.462662578E-1,3.002402782E-1,8.017606288E-2
2.895088469E0,5.551238060E-1,3.025310040E-1,6.200282276E-2
2.897325896E0,5.665774941E-1,3.119994104E-1,4.260785133E-2
2.899557464E0,5.742133260E-1,3.191770911E-1,2.061670274E-2
2.901786102E0,5.818491578E-1,3.287982047E-1,3.512475174E-3
2.904034088E0,5.870414972E-1,3.347541690E-1,-1.588249579E-2
2.906271026E0,5.820018649E-1,3.214678466E-1,-3.313944116E-2
2.908510771E0,5.700899959E-1,2.756529450E-1,-5.665775016E-2
2.910744414E0,5.597052574E-1,2.382374406E-1,-7.651086897E-2
2.912981170E0,5.496259928E-1,1.571450830E-1,-9.773843735E-2
2.915218169E0,5.505422950E-1,8.063421398E-2,-1.175915599E-1
2.917453765E0,5.688682795E-1,6.566801667E-2,-1.237002090E-1
2.919687773E0,5.897904038E-1,6.887505949E-2,-1.221730486E-1
2.921913482E0,6.059783101E-1,7.590000331E-2,-1.183551401E-1
2.924151641E0,6.236934066E-1,9.865473956E-2,-1.194241568E-1
2.926400359E0,6.406449080E-1,1.418734491E-1,-1.288925707E-1
2.928639311E0,6.478226185E-1,1.879937798E-1,-1.420261711E-1
2.930876800E0,6.475171447E-1,2.292271852E-1,-1.638645977E-1
2.933111053E0,6.435465217E-1,2.716823220E-1,-1.870774776E-1
2.935346648E0,6.346889734E-1,3.046690524E-1,-2.151772827E-1
2.937582977E0,6.142250299E-1,3.257438838E-1,-2.408336252E-1
2.939819549E0,6.000223756E-1,3.405573666E-1,-2.654209435E-1
2.942056304E0,5.948300362E-1,3.795000315E-1,-2.860376537E-1
2.944292693E0,5.881105065E-1,4.075998366E-1,-3.080287874E-1
2.946529266E0,5.821545720E-1,4.040873647E-1,-3.387247920E-1
2.948766326E0,5.766568184E-1,3.677408695E-1,-3.756821156E-1
2.951003692E0,5.734497309E-1,3.193297982E-1,-4.163046777E-1
2.953239227E0,5.740606189E-1,2.707660198E-1,-4.592179358E-1
2.955475799E0,5.769622326E-1,2.222022265E-1,-4.973970354E-1
2.957710174E0,5.849034786E-1,1.734857261E-1,-5.280929804E-1
2.959934173E0,5.902485251E-1,1.296561509E-1,-5.514585972E-1
2.962170379E0,5.946773291E-1,9.315694869E-2,-5.723807216E-1
2.964409881E0,5.942191482E-1,6.643159688E-2,-5.896376967E-1
2.966661834E0,5.949827433E-1,4.092797264E-2,-6.068946123E-1
2.968899261E0,5.885686874E-1,1.679879427E-2,-6.241515875E-1
2.971134796E0,5.783366561E-1,-2.443460980E-3,-6.401867867E-1
2.973368316E0,5.609270334E-1,-2.031126991E-2,-6.612616181E-1
2.975604400E0,5.422956347E-1,-3.451388702E-2,-6.772968173E-1
2.977841277E0,5.114469528E-1,-4.352414981E-2,-6.936374903E-1
2.980078094E0,4.796819389E-1,-3.924809024E-2,-7.108944058E-1
2.982314666E0,4.416555762E-1,-3.375030309E-2,-7.296785116E-1
2.984551299E0,4.037819207E-1,-2.809980139E-2,-7.434229851E-1
2.986788787E0,3.656028509E-1,-2.855795063E-2,-7.547240257E-1
2.989024383E0,3.249803185E-1,-3.619376570E-2,-7.599163651E-1
2.991261016E0,2.828305960E-1,-4.627304152E-2,-7.664831877E-1
2.993497283E0,2.420553565E-1,-6.139195710E-2,-7.742717266E-1
2.995734100E0,2.011273801E-1,-7.635815442E-2,-7.808384895E-1
2.997970733E0,1.601994038E-1,-9.132435173E-2,-7.884743214E-1
3.000207488E0,1.232420653E-1,-1.001819000E-1,-7.974845767E-1
3.002444060E0,8.368854225E-2,-1.091921628E-1,-8.063421249E-1
3.004681426E0,3.909537569E-2,-1.276708394E-1,-8.153523803E-1
3.006917083E0,2.901609987E-3,-1.525636017E-1,-8.219192028E-1
3.009153289E0,-3.359758854E-2,-1.869247705E-1,-8.211556077E-1
3.011389922E0,-6.643159688E-2,-2.299907655E-1,-8.179485798E-1
3.013626861E0,-9.941831976E-2,-2.791654170E-1,-8.122980595E-1
3.015863250E0,-1.278235465E-1,-3.320052624E-1,-7.968736887E-1
3.018099578E0,-1.487456858E-1,-3.886630237E-1,-7.751879692E-1
3.020333647E0,-1.660026312E-1,-4.392121136E-1,-7.535023093E-1
3.022559295E0,-1.843285859E-1,-4.886921942E-1,-7.220427394E-1
3.024794890E0,-2.026545405E-1,-5.308418870E-1,-6.881396770E-1
3.027031523E0,-2.162462920E-1,-5.754350424E-1,-6.530149579E-1
3.029274931E0,-2.295326144E-1,-6.163630486E-1,-6.201809645E-1
3.031522430E0,-2.356412709E-1,-6.588181853E-1,-5.812382698E-1
3.033758819E0,-2.377792895E-1,-6.963863969E-1,-5.496259928E-1
3.035995025E0,-2.362521291E-1,-7.316638231E-1,-5.192354321E-1
3.038229156E0,-2.310597748E-1,-7.657195926E-1,-4.923573732E-1
3.040466460E0,-2.232712507E-1,-7.985535860E-1,-4.691445231E-1
3.042701873E0,-2.153300047E-1,-8.315402865E-1,-4.471533597E-1
3.044938750E0,-2.026545405E-1,-8.645270467E-1,-4.251621962E-1
3.047175262E0,-1.925752759E-1,-9.048441648E-1,-4.033237696E-1
3.049413177E0,-1.788308024E-1,-9.451612234E-1,-3.776674271E-1
3.051653594E0,-1.600466967E-1,-9.807441235E-1,-3.530801237E-1
3.053884612E0,-1.437060535E-1,-1.021061301E0,-3.237585723E-1
3.056119597E0,-1.301143020E-1,-1.068708777E0,-2.932153046E-1
3.058354827E0,-1.116356254E-1,-1.112691045E0,-2.614503205E-1
3.060581267E0,-9.178250283E-2,-1.159269571E0,-2.321287990E-1
3.062826201E0,-7.696902007E-2,-1.209207773E0,-2.015855312E-1
3.065067657E0,-5.849034712E-2,-1.259451389E0,-1.734857261E-1
3.067307647E0,-4.260785133E-2,-1.313054800E0,-1.514945775E-1
3.069539458E0,-2.916881628E-2,-1.380097270E0,-1.369865239E-1
3.071765838E0,-2.871066704E-2,-1.535409808E0,-1.327104717E-1
3.074010589E0,-4.245513305E-2,-1.792431355E0,-1.412625909E-1
3.076236846E0,-1.588249579E-2,-1.936137438E0,-1.440114826E-1
3.078490448E0,3.405573592E-2,-2.023338318E0,-1.366810948E-1
3.080720977E0,9.193521738E-2,-2.082745075E0,-1.278235465E-1
3.082952483E0,1.499674171E-1,-2.129934311E0,-1.226311997E-1
3.085194182E0,2.047925740E-1,-2.158950567E0,-1.137736514E-1
3.087421600E0,2.522873580E-1,-2.176818371E0,-9.987647086E-2
3.089670196E0,2.942843437E-1,-2.169182539E0,-9.834930301E-2
3.091895721E0,3.355177343E-1,-2.139708281E0,-1.039998084E-1
3.094147552E0,3.788891733E-1,-2.073734760E0,-1.168279797E-1
3.096380096E0,4.192062616E-1,-1.971414804E0,-1.356120855E-1
3.098619537E0,4.579962194E-1,-1.827708840E0,-1.518000066E-1
3.100850982E0,4.973970354E-1,-1.645212770E0,-1.690569520E-1
3.103077850E0,5.287038684E-1,-1.448056102E0,-1.864666194E-1
3.105326385E0,5.485569835E-1,-1.261589408E0,-2.002110779E-1
3.107562408E0,5.505422950E-1,-1.107498646E0,-2.105957866E-1
3.109802520E0,5.372560024E-1,-9.761626720E-1,-2.186897546E-1
3.112037078E0,5.189300179E-1,-8.520042896E-1,-2.293798923E-1
3.114272674E0,4.978551865E-1,-7.435756922E-1,-2.425135076E-1
3.116509002E0,4.815145433E-1,-6.449210048E-1,-2.619084716E-1
3.118745269E0,4.747950137E-1,-5.549710989E-1,-2.811507285E-1
3.120982085E0,4.729624093E-1,-4.725042582E-1,-2.979495227E-1
3.123216094E0,4.697553813E-1,-3.886630237E-1,-3.159700334E-1
3.125444793E0,4.726569951E-1,-3.159700334E-1,-3.303253949E-1
3.127692168E0,4.731151462E-1,-2.382374406E-1,-3.483459055E-1
3.129929717E0,4.721988440E-1,-1.629483104E-1,-3.628539443E-1
3.132167876E0,4.665483236E-1,-8.765916526E-2,-3.747658134E-1
3.134401641E0,4.607451260E-1,-1.099557430E-2,-3.878994286E-1
3.136638152E0,4.524984360E-1,6.429356337E-2,-3.999640048E-1
3.138874969E0,4.418082833E-1,1.409571618E-1,-4.108068645E-1
3.141111541E0,4.363104999E-1,2.296853364E-1,-4.227187634E-1
3.143347869E0,4.271475375E-1,3.220787048E-1,-4.334088862E-1
3.145584929E0,4.071416855E-1,4.221078753E-1,-4.392121136E-1
3.147822234E0,3.897320330E-1,5.352706909E-1,-4.413501322E-1
3.150057891E0,3.663664162E-1,6.594290137E-1,-4.422664344E-1
3.152290862E0,3.344487250E-1,7.863363028E-1,-4.286746979E-1
3.154516509E0,2.985603809E-1,9.083566070E-1,-4.173736870E-1
3.156767303E0,2.602286041E-1,1.023199320E0,-4.123340547E-1
3.159004119E0,2.218967974E-1,1.133154988E0,-4.123340547E-1
3.161241301E0,1.808161139E-1,1.235933065E0,-4.097378552E-1
3.163465972E0,1.383609772E-1,1.325272202E0,-4.085161388E-1
3.165715301E0,9.453139454E-2,1.407433510E0,-4.060726762E-1
3.167950408E0,4.764748737E-2,1.470352650E0,-4.025602043E-1
3.170190215E0,1.985311974E-3,1.520901799E0,-4.004221559E-1
3.172424346E0,-4.306599870E-2,1.550986886E0,-4.042400718E-1
3.174659881E0,-8.078692853E-2,1.563814998E0,-4.143193662E-1
3.176896697E0,-1.154535338E-1,1.553583026E0,-4.294382632E-1
3.179132964E0,-1.455386430E-1,1.518916488E0,-4.419609904E-1
3.181370147E0,-1.725694388E-1,1.457677245E0,-4.523457289E-1
3.183607391E0,-2.026545405E-1,1.374446750E0,-4.515821338E-1
3.185842986E0,-2.318233550E-1,1.273043156E0,-4.450153410E-1
3.188079559E0,-2.612976134E-1,1.158353209E0,-4.273002446E-1
3.190311614E0,-2.872593701E-1,1.038776398E0,-4.097378552E-1
3.192532622E0,-3.144428730E-1,9.167560339E-1,-3.920227587E-1
3.194777312E0,-3.451388776E-1,8.068002462E-1,-3.720169365E-1
3.197025909E0,-3.743076921E-1,7.079927921E-1,-3.579670191E-1
3.199267181E0,-4.021020532E-1,6.247624159E-1,-3.400992155E-1
3.201501617E0,-4.280638099E-1,5.597052574E-1,-3.234531581E-1
3.203730193E0,-4.462370574E-1,5.212207437E-1,-3.115412891E-1
3.205972076E0,-4.613559842E-1,5.021312237E-1,-3.043636084E-1
3.208208465E0,-4.784601927E-1,5.097670555E-1,-3.008511364E-1
3.210446685E0,-4.963280261E-1,5.392413139E-1,-3.045163155E-1
3.212682098E0,-5.152648091E-1,5.783366561E-1,-3.118467033E-1
3.214918426E0,-5.309945941E-1,6.394231915E-1,-3.313944042E-1
3.217155242E0,-5.441282392E-1,7.148650289E-1,-3.630066812E-1
3.219392608E0,-5.480988622E-1,8.060367107E-1,-4.030183554E-1
3.221625640E0,-5.543602109E-1,9.117164016E-1,-4.405865669E-1
3.223852752E0,-5.555819273E-1,1.025795460E0,-4.682282209E-1
3.226101043E0,-5.606215596E-1,1.132696867E0,-4.911356568E-1
3.228337798E0,-5.682573915E-1,1.233642340E0,-5.054910183E-1
3.230577728E0,-5.823072791E-1,1.327257514E0,-5.088507533E-1
3.232811309E0,-5.980370641E-1,1.406517267E0,-5.001459122E-1
3.235048064E0,-6.200281978E-1,1.484555244E0,-4.718934000E-1
3.237285125E0,-6.409503818E-1,1.561371565E0,-4.302018583E-1
3.239517974E0,-6.632469296E-1,1.632231951E0,-3.762930036E-1
3.241745818E0,-6.832527518E-1,1.700648785E0,-3.124575615E-1
3.243994842E0,-6.995934248E-1,1.770134807E0,-2.437352389E-1
3.246230315E0,-7.084509730E-1,1.840689659E0,-1.725694388E-1
3.248469696E0,-7.113525867E-1,1.903761506E0,-9.773843735E-2
3.250703338E0,-7.110471725E-1,1.948660135E0,-2.046398632E-2
3.252940703E0,-7.096726894E-1,1.977676272E0,5.436700583E-2
3.255178008E0,-7.049384713E-1,1.994627714E0,1.253800988E-1
3.257411041E0,-7.014260292E-1,2.000583649E0,1.792889535E-1
3.259637969E0,-6.957755089E-1,1.992031574E0,2.295326144E-1
3.261871978E0,-6.869179606E-1,1.963931799E0,2.722931802E-1
3.264108428E0,-6.780604124E-1,1.924836397E0,3.113885522E-1
3.266347502E0,-6.606507897E-1,1.886962771E0,3.407101035E-1
3.268584624E0,-6.429356933E-1,1.853823304E0,3.663664162E-1
3.270824554E0,-6.191119552E-1,1.824196339E0,3.897320330E-1
3.273073638E0,-5.962044597E-1,1.804343224E0,4.094324410E-1
3.275308746E0,-5.658139586E-1,1.791667819E0,4.292855561E-1
3.277545379E0,-5.316054821E-1,1.789682508E0,4.515821338E-1
3.279778961E0,-4.949535728E-1,1.781741261E0,4.751004577E-1
3.282015960E0,-4.631885588E-1,1.778686881E0,5.035057068E-1
3.284252654E0,-4.253149331E-1,1.773036361E0,5.306891799E-1
3.286485747E0,-3.889684379E-1,1.757764697E0,5.590944290E-1
3.288713836E0,-3.536909819E-1,1.741271377E0,5.838344693E-1
3.290963042E0,-3.174972236E-1,1.712713480E0,6.010913849E-1
3.293198821E0,-2.750420868E-1,1.682780981E0,6.148358583E-1
3.295438507E0,-2.301434875E-1,1.656361103E0,6.188064814E-1
3.297671600E0,-1.814269722E-1,1.628719449E0,6.215553880E-1
3.299908355E0,-1.266018152E-1,1.597259879E0,6.145304441E-1
3.302144683E0,-7.086037099E-2,1.552514076E0,6.013968587E-1
3.304381560E0,-1.038470957E-2,1.491885662E0,5.868887901E-1
3.306618377E0,3.940080851E-2,1.396285176E0,5.907067060E-1
3.308855743E0,9.743300825E-2,1.290758252E0,6.078109145E-1
3.311091277E0,1.637118906E-1,1.163240194E0,6.177374721E-1
3.313328094E0,2.371684313E-1,1.019839525E0,6.189591885E-1
3.315565093E0,3.129157126E-1,8.727737069E-1,6.128505468E-1
3.317800750E0,3.885102868E-1,7.098253965E-1,6.030766964E-1
3.320037566E0,4.627304375E-1,5.360342264E-1,5.870414972E-1
3.322273834E0,5.319108963E-1,3.648392558E-1,5.648976564E-1
3.324510772E0,5.952881575E-1,1.973094791E-1,5.366451144E-1
3.326748260E0,6.450737119E-1,3.497203439E-2,5.021312237E-1
3.328983855E0,6.878342628E-1,-1.200350225E-1,4.639521539E-1
3.331220489E0,7.195992470E-1,-2.649627924E-1,4.208861589E-1
3.333456756E0,7.370089293E-1,-3.952298164E-1,3.703370690E-1
3.335693572E0,7.498371005E-1,-5.131267905E-1,3.100140989E-1
3.337930144E0,7.470881939E-1,-6.078109145E-1,2.409863323E-1
3.340166717E0,7.400632501E-1,-6.743952036E-1,1.745547503E-1
3.342403594E0,7.321220040E-1,-7.215845585E-1,1.180497110E-1
3.344641082E0,7.244861722E-1,-7.480044961E-1,7.269296050E-2
3.346876434E0,7.195992470E-1,-7.564038634E-1,4.321871698E-2
3.349113006E0,7.223481536E-1,-7.480044961E-1,2.855795063E-2
3.351349273E0,7.279986739E-1,-7.177666426E-1,2.504547499E-2
3.353582671E0,7.309002876E-1,-6.875288486E-1,3.619376570E-2
3.355808868E0,7.290676832E-1,-6.522513628E-1,6.078109145E-2
3.358059600E0,7.110471725E-1,-6.166684628E-1,1.024726480E-1
3.360296416E0,6.918048859E-1,-5.751296282E-1,1.537853181E-1
3.362537139E0,6.601926088E-1,-5.320636034E-1,2.112066597E-1
3.364768951E0,6.252205968E-1,-4.792237878E-1,2.637410760E-1
3.367005584E0,5.867360830E-1,-4.176791012E-1,3.138320148E-1
3.369242095E0,5.496259928E-1,-3.562871516E-1,3.553708494E-1
3.371478789E0,5.198463202E-1,-2.938261926E-1,3.846924007E-1
3.373715545E0,4.973970354E-1,-2.388483137E-1,4.117231667E-1
3.375951812E0,4.786129296E-1,-1.875356287E-1,4.373795092E-1
3.378188750E0,4.644103050E-1,-1.484402567E-1,4.570799172E-1
3.380426177E0,4.566217661E-1,-1.069014147E-1,4.731151462E-1
3.382661590E0,4.486805201E-1,-6.551529467E-2,4.903720617E-1
3.384898528E0,4.407392740E-1,-2.657263726E-2,5.038111210E-1
3.387135894E0,4.376849532E-1,9.926560335E-3,5.222898126E-1
3.389370025E0,4.334088862E-1,4.886921868E-2,5.383250117E-1
3.391602752E0,4.317290187E-1,9.621127695E-2,5.581781268E-1
3.393844085E0,4.387539625E-1,1.434006095E-1,5.729916096E-1
3.396081328E0,4.494441152E-1,1.904372424E-1,5.867360830E-1
3.398320159E0,4.674646258E-1,2.325869352E-1,5.945246220E-1
3.400554473E0,4.889976382E-1,2.600758672E-1,5.923865438E-1
3.402790984E0,5.216789246E-1,2.898555696E-1,5.853615999E-1
3.405027007E0,5.508477092E-1,3.280346394E-1,5.833762884E-1
3.407263885E0,5.823072791E-1,3.627012372E-1,5.849034786E-1
3.409497649E0,6.137668490E-1,4.021020532E-1,5.878050923E-1
3.411725127E0,6.427829266E-1,4.366159439E-1,5.931501389E-1
3.413974151E0,6.644686460E-1,4.738787115E-1,6.032294035E-1
3.416211394E0,6.795876026E-1,5.002986193E-1,6.145304441E-1
3.418446135E0,6.863071322E-1,5.244278312E-1,6.207917929E-1
3.420664214E0,6.890559793E-1,5.413793325E-1,6.307183504E-1
3.422904998E0,6.879869699E-1,5.522221923E-1,6.368269920E-1
3.425156707E0,6.818783283E-1,5.560401082E-1,6.441574097E-1
3.427397124E0,6.756169796E-1,5.537493229E-1,6.476698518E-1
3.429630400E0,6.669121385E-1,5.539020896E-1,6.476698518E-1
3.431855010E0,6.621779203E-1,5.624541640E-1,6.476698518E-1
3.434104217E0,6.511823535E-1,5.664247870E-1,6.450737119E-1
3.436339629E0,6.389650702E-1,5.690209866E-1,6.377432942E-1
3.438576751E0,6.269004345E-1,5.765040517E-1,6.302602291E-1
3.440800444E0,6.099489331E-1,5.829181671E-1,6.203336716E-1
3.443038543E0,5.902485251E-1,5.858197808E-1,6.104071140E-1
3.445285857E0,5.684100986E-1,5.958990455E-1,6.029239893E-1
3.447524749E0,5.453499556E-1,6.084218025E-1,5.954409242E-1
3.449761993E0,5.222898126E-1,6.198754907E-1,5.867360830E-1
3.451996795E0,4.964807332E-1,6.227771044E-1,5.766568184E-1
3.454232146E0,4.757113159E-1,6.269004345E-1,5.655084848E-1
3.456466094E0,4.535674453E-1,6.261368990E-1,5.531384945E-1
3.458691497E0,4.338670373E-1,6.191119552E-1,5.381723046E-1
3.460926909E0,4.127921760E-1,6.062837839E-1,5.258022547E-1
3.463166534E0,3.917173445E-1,5.957463384E-1,5.120577812E-1
3.465417937E0,3.694207668E-1,5.827654600E-1,4.970915914E-1
3.467655059E0,3.434589803E-1,5.736024380E-1,4.847215712E-1
3.469892120E0,3.272710443E-1,5.618433356E-1,4.734205604E-1
3.472124664E0,3.098613918E-1,5.451972485E-1,4.586070776E-1
3.474361236E0,3.008511364E-1,5.210680366E-1,4.399756789E-1
3.476597625E0,2.990185320E-1,4.896084964E-1,4.300491214E-1
3.478834502E0,2.994766831E-1,4.470006526E-1,4.176791012E-1
3.481071258E0,3.097086847E-1,3.982841372E-1,4.114177525E-1
3.483307647E0,3.258966208E-1,3.506366611E-1,4.089742899E-1
3.485544707E0,3.483459055E-1,2.993239760E-1,4.077525437E-1
3.487781951E0,3.741549551E-1,2.368630022E-1,4.089742899E-1
3.490017547E0,3.998112977E-1,1.672243625E-1,4.051563740E-1
3.492253814E0,4.228714705E-1,9.147707373E-2,4.037819207E-1
3.494490203E0,4.384485185E-1,1.114829071E-2,4.048509300E-1
3.496727264E0,4.503603876E-1,-7.040221989E-2,4.046982229E-1
3.498963836E0,4.573853612E-1,-1.470658034E-1,4.031710625E-1
3.501197173E0,4.644103050E-1,-2.284636050E-1,4.016439021E-1
3.503424956E0,4.677700698E-1,-3.086396754E-1,3.964515328E-1
3.505674285E0,4.686863720E-1,-3.898847401E-1,3.863722682E-1
3.507910125E0,4.673119187E-1,-4.627304375E-1,3.738495409E-1
3.510149505E0,4.647157490E-1,-5.343543887E-1,3.601050675E-1
3.512383025E0,4.586070776E-1,-5.948300362E-1,3.439171314E-1
3.514619537E0,4.514294267E-1,-6.530149579E-1,3.313944042E-1
3.516856170E0,4.419609904E-1,-6.963863969E-1,3.200933933E-1
3.519091888E0,4.239404798E-1,-7.360926270E-1,3.136793077E-1
3.521323516E0,4.034765065E-1,-7.733554244E-1,3.145956099E-1
3.523552398E0,3.769038618E-1,-8.068002462E-1,3.153591752E-1
3.525790557E0,3.480404615E-1,-8.353582025E-1,3.138320148E-1
3.528040434E0,3.142901659E-1,-8.602510095E-1,3.194825351E-1
3.530276824E0,2.755002379E-1,-8.921687007E-1,3.226895630E-1
3.532503753E0,2.354885489E-1,-9.181304574E-1,3.222314119E-1
3.534745940E0,1.919644028E-1,-9.427177906E-1,3.205515444E-1
3.536973052E0,1.472185254E-1,-9.637926221E-1,3.139847219E-1
3.539225250E0,9.392052889E-2,-9.833403230E-1,3.086396754E-1
3.541459441E0,3.573561832E-2,-1.000444531E0,3.031418920E-1
3.543698272E0,-2.244929783E-2,-1.018617749E0,3.037527502E-1
3.545931670E0,-8.674286306E-2,-1.033125877E0,3.068070710E-1
3.548168426E0,-1.560760736E-1,-1.047633886E0,3.086396754E-1
3.550404754E0,-2.289217561E-1,-1.058323979E0,3.141374588E-1
3.552641631E0,-3.029891551E-1,-1.069014192E0,3.158173263E-1
3.554877044E0,-3.820962012E-1,-1.077108145E0,3.200933933E-1
3.557110808E0,-4.599815309E-1,-1.092685223E0,3.217732608E-1
3.559352019E0,-5.427537560E-1,-1.106735110E0,3.246748745E-1
3.561587859E0,-6.246097088E-1,-1.136820197E0,3.251330256E-1
3.563825470E0,-6.882924438E-1,-1.182787776E0,3.280346394E-1
3.566060760E0,-7.455610037E-1,-1.214552879E0,3.286454976E-1
3.568297332E0,-7.901542187E-1,-1.229366302E0,3.269656301E-1
3.570534148E0,-8.211556077E-1,-1.237307549E0,3.181080818E-1
3.572770782E0,-8.472700715E-1,-1.258535147E0,3.055853248E-1
3.575007842E0,-8.674286604E-1,-1.289689302E0,2.857322097E-1
3.577244903E0,-8.813258410E-1,-1.308931470E0,2.634356320E-1
3.579478973E0,-8.924741149E-1,-1.320843339E0,2.364048511E-1
3.581710174E0,-9.020952582E-1,-1.321912408E0,2.130392492E-1
3.583953521E0,-9.132435322E-1,-1.328937292E0,1.945605874E-1
3.586186797E0,-9.303477407E-1,-1.332144380E0,1.809688359E-1
3.588416167E0,-9.535606503E-1,-1.326951981E0,1.698205322E-1
3.590662994E0,-9.902125597E-1,-1.313971162E0,1.658499092E-1
3.592900176E0,-1.034347534E0,-1.305877209E0,1.643227488E-1
3.595140472E0,-1.087034702E0,-1.289078355E0,1.638645977E-1
3.597373077E0,-1.151939154E0,-1.273195863E0,1.646281779E-1
3.599606902E0,-1.220355988E0,-1.247692227E0,1.653917581E-1
3.601835174E0,-1.294728875E0,-1.212262034E0,1.624901593E-1
3.604082732E0,-1.373988628E0,-1.180344343E0,1.545489132E-1
3.606319305E0,-1.447292447E0,-1.153466344E0,1.392772794E-1
3.608558562E0,-1.521665335E0,-1.128878951E0,1.192714423E-1
3.610792754E0,-1.589929461E0,-1.103222609E0,9.056077152E-2
3.613030242E0,-1.651932359E0,-1.070541382E0,6.200282276E-2
3.615265594E0,-1.706604719E0,-1.050077319E0,2.367102914E-2
3.617502227E0,-1.755321264E0,-1.035722017E0,-2.061670274E-2
3.619738677E0,-1.789224267E0,-1.026558995E0,-6.612616032E-2
3.621976958E0,-1.813353539E0,-1.021214008E0,-1.189660057E-1
3.624218475E0,-1.830152273E0,-1.012356400E0,-1.716531366E-1
3.626448394E0,-1.844354868E0,-1.006095052E0,-2.269364446E-1
3.628685271E0,-1.860237360E0,-1.021519423E0,-2.834414840E-1
3.630920989E0,-1.871232986E0,-1.034653068E0,-3.397938013E-1
3.633158416E0,-1.880854130E0,-1.044121385E0,-3.900374472E-1
3.635394744E0,-1.904066920E0,-1.047328472E0,-4.440990388E-1
3.637631133E0,-1.923461914E0,-1.049313784E0,-4.908302128E-1
3.639868072E0,-1.953852534E0,-1.047481179E0,-5.387831330E-1
3.642104522E0,-1.991878867E0,-1.055269718E0,-5.893322229E-1
3.644341338E0,-2.029752493E0,-1.059393048E0,-6.435465217E-1
3.646578033E0,-2.067626238E0,-1.061072946E0,-6.902777553E-1
3.648815215E0,-2.112982988E0,-1.072373986E0,-7.385360599E-1
3.651050933E0,-2.153605461E0,-1.082453251E0,-7.780895829E-1
3.653287261E0,-2.187966585E0,-1.095128655E0,-8.187121153E-1
3.655523650E0,-2.226451159E0,-1.119868755E0,-8.570439219E-1
3.657760467E0,-2.259285212E0,-1.167668939E0,-8.759807348E-1
3.659997283E0,-2.285552263E0,-1.243721604E0,-8.703302741E-1
3.662233611E0,-2.309528828E0,-1.335351467E0,-8.562803864E-1
3.664470489E0,-2.324953079E0,-1.422552466E0,-8.420777321E-1
3.666707977E0,-2.328007460E0,-1.503797531E0,-8.167268038E-1
3.668943572E0,-2.326174736E0,-1.583820820E0,-7.803803682E-1
3.671180205E0,-2.315942764E0,-1.664149642E0,-7.365507483E-1
3.673417388E0,-2.300518513E0,-1.738522530E0,-6.827946305E-1
3.675653045E0,-2.282497883E0,-1.800830722E0,-6.241515875E-1
3.677889922E0,-2.264172077E0,-1.852143407E0,-5.679519773E-1
3.680126129E0,-2.237141132E0,-1.892765999E0,-5.103778839E-1
3.682363128E0,-2.203543663E0,-1.915215254E0,-4.477642179E-1
3.684600799E0,-2.162004709E0,-1.914757133E0,-3.886630237E-1
3.686836089E0,-2.117259026E0,-1.871996522E0,-3.404046595E-1
3.689068755E0,-2.071596861E0,-1.800067186E0,-3.066543639E-1
3.691293792E0,-2.023032904E0,-1.699121714E0,-2.837468982E-1
3.693545562E0,-1.988366365E0,-1.566258430E0,-2.634356320E-1
3.695782256E0,-1.956143260E0,-1.423774123E0,-2.393064648E-1
3.698022796E0,-1.916131616E0,-1.264338374E0,-2.260201424E-1
3.700255889E0,-1.865582466E0,-1.084438562E0,-2.273945808E-1
3.702493194E0,-1.809841037E0,-8.901833892E-1,-2.396118939E-1
3.704728667E0,-1.750434399E0,-6.947064996E-1,-2.565633953E-1
3.706965118E0,-1.682322860E0,-4.995350540E-1,-2.773328125E-1
3.709201812E0,-1.618334770E0,-3.272710443E-1,-2.895501256E-1
3.711438262E0,-1.550070524E0,-1.792889535E-1,-2.968805134E-1
3.713675323E0,-1.479821086E0,-5.085453019E-2,-2.982549667E-1
3.715911529E0,-1.404990077E0,5.329799280E-2,-2.947424948E-1
3.718145476E0,-1.326035738E0,1.270599663E-1,-2.851213515E-1
3.720373076E0,-1.243721604E0,1.788308024E-1,-2.744311988E-1
3.722618865E0,-1.159727693E0,1.977676302E-1,-2.590068579E-1
3.724857879E0,-1.072373986E0,1.997529417E-1,-2.448042482E-1
3.727097197E0,-9.818131924E-1,1.821905524E-1,-2.293798923E-1
3.729331694E0,-8.901833892E-1,1.560760736E-1,-2.127338201E-1
3.731567840E0,-7.962628603E-1,1.178969890E-1,-1.962404549E-1
3.733804168E0,-7.021896243E-1,8.200865984E-2,-1.846340150E-1
3.736040984E0,-6.131559610E-1,4.505131021E-2,-1.679879427E-1
3.738278228E0,-5.241223574E-1,8.246680722E-3,-1.514945775E-1
3.740513885E0,-4.363104999E-1,-2.626720630E-2,-1.374446750E-1
3.742750762E0,-3.484986126E-1,-6.200282276E-2,-1.258382350E-1
3.744988006E0,-2.631302178E-1,-9.773843735E-2,-1.142318025E-1
3.747223602E0,-1.766927689E-1,-1.394299865E-1,-1.050688252E-1
3.749458221E0,-9.025534242E-2,-1.860084683E-1,-1.009454802E-1
3.751688629E0,-7.330383174E-3,-2.252565622E-1,-9.789115191E-2
3.753930571E0,7.437284291E-2,-2.692388594E-1,-1.010981947E-1
3.756156829E0,1.525636017E-1,-3.023782969E-1,-1.065959856E-1
3.758400115E0,2.258674204E-1,-3.268128932E-1,-1.159116775E-1
3.760639922E0,2.996293902E-1,-3.440698385E-1,-1.325577646E-1
3.762869903E0,3.636175394E-1,-3.452915847E-1,-1.453859210E-1
3.765118255E0,4.268420935E-1,-3.332269788E-1,-1.705841124E-1
3.767352752E0,4.825835526E-1,-3.257438838E-1,-1.895209402E-1
3.769589690E0,5.384777188E-1,-3.074179292E-1,-2.061670274E-1
3.771815215E0,5.868887901E-1,-2.866485119E-1,-2.154827118E-1
3.774060759E0,6.256787181E-1,-2.631302178E-1,-2.260201424E-1
3.776287322E0,6.569855809E-1,-2.370157093E-1,-2.306016237E-1
3.778538421E0,6.834055185E-1,-2.084577680E-1,-2.364048511E-1
3.780769195E0,7.014260292E-1,-1.783726513E-1,-2.446515262E-1
3.782997039E0,7.156286240E-1,-1.470658034E-1,-2.553416789E-1
3.785230681E0,7.186829448E-1,-1.168279797E-1,-2.649627924E-1
3.787470123E0,7.269296646E-1,-8.063421398E-2,-2.672535479E-1
3.789718780E0,7.298312783E-1,-5.513058975E-2,-2.719877362E-1
3.791947540E0,7.289149761E-1,-4.550946131E-2,-2.768746614E-1
3.794194792E0,7.226535678E-1,-4.902193695E-2,-2.819143236E-1
3.796428252E0,7.150177956E-1,-6.704246253E-2,-2.820670307E-1
3.798667693E0,7.034113407E-1,-9.101892263E-2,-2.761110961E-1
3.800901580E0,6.904304624E-1,-1.211040318E-1,-2.677116990E-1
3.803138213E0,6.760751009E-1,-1.572978050E-1,-2.557998300E-1
3.805374725E0,6.568328738E-1,-1.823432744E-1,-2.376265824E-1
3.807611541E0,6.314819455E-1,-2.122756690E-1,-2.147191316E-1
3.809848846E0,6.050620079E-1,-2.359467000E-1,-1.905899495E-1
3.812084441E0,5.711590052E-1,-2.547308207E-1,-1.627955884E-1
3.814321258E0,5.363397002E-1,-2.661845386E-1,-1.337794960E-1
3.816558318E0,4.990769029E-1,-2.678644061E-1,-1.047633886E-1
3.818794158E0,4.605923891E-1,-2.719877362E-1,-7.086037099E-2
3.821027678E0,4.233296216E-1,-2.797762752E-1,-3.207042441E-2
3.823254852E0,3.834706545E-1,-2.887865305E-1,1.160643995E-2
3.825501189E0,3.507893682E-1,-3.051272035E-1,6.139195710E-2
3.827729705E0,3.191770911E-1,-3.239113092E-1,1.113301888E-1
3.829980071E0,2.864958048E-1,-3.439171314E-1,1.611157060E-1
3.832213592E0,2.525927722E-1,-3.541491330E-1,2.145664245E-1
3.834452849E0,2.202169150E-1,-3.559817076E-1,2.657263875E-1
3.836686736E0,1.844813079E-1,-3.431535661E-1,3.132211566E-1
3.838923309E0,1.551597714E-1,-3.182607889E-1,3.607159257E-1
3.841159881E0,1.259909570E-1,-2.813034356E-1,4.059199691E-1
3.843396697E0,9.590584040E-2,-2.321287990E-1,4.511239827E-1
3.845634002E0,7.208210230E-2,-1.747074574E-1,4.928155243E-1
3.847869598E0,4.612032697E-2,-1.062905490E-1,5.380195379E-1
3.850101714E0,2.641992271E-2,-3.543018550E-2,5.810855627E-1
3.852324676E0,1.038470957E-2,3.772092983E-2,6.203336716E-1
3.854579314E0,1.679879380E-3,1.105666086E-1,6.572909951E-1
3.856815826E0,-2.138028387E-3,1.725694388E-1,6.869179606E-1
3.859056731E0,-1.221730490E-3,2.272418737E-1,7.078400850E-1
3.861289580E0,4.581489135E-3,2.707660198E-1,7.154759169E-1
3.863526885E0,7.788531948E-3,3.083342314E-1,7.095199823E-1
3.865762481E0,1.954768784E-2,3.335324228E-1,6.937901974E-1
3.867998748E0,2.733621933E-2,3.431535661E-1,6.695083380E-1
3.870236663E0,3.100141138E-2,3.333797157E-1,6.436992288E-1
3.872477508E0,4.535674304E-2,3.026837409E-1,6.155994534E-1
3.874708709E0,5.925392732E-2,2.576324046E-1,5.946773291E-1
3.876945037E0,7.437284291E-2,2.038762718E-1,5.751296282E-1
3.879180754E0,9.178250283E-2,1.476766765E-1,5.517640114E-1
3.881419341E0,1.116356254E-1,8.781187981E-2,5.296201706E-1
3.883654754E0,1.314887404E-1,2.565634064E-2,5.062545538E-1
3.885891570E0,1.548543423E-1,-4.520402849E-2,4.879286289E-1
3.888126189E0,1.780672222E-1,-1.160643995E-1,4.780020416E-1
3.890352508E0,1.966986060E-1,-1.759291887E-1,4.705189466E-1
3.892595245E0,2.202169150E-1,-2.261728644E-1,4.656320214E-1
3.894837615E0,2.443460971E-1,-2.557998300E-1,4.547891617E-1
3.897077361E0,2.651155293E-1,-2.683225572E-1,4.376849532E-1
3.899310271E0,2.898555696E-1,-2.700024247E-1,4.159992337E-1
3.901534576E0,3.173444867E-1,-2.608394623E-1,3.868304193E-1
3.903783904E0,3.474296033E-1,-2.431243658E-1,3.602577746E-1
3.906020416E0,3.726277947E-1,-2.217440903E-1,3.397938013E-1
3.908260284E0,3.990477324E-1,-2.005165219E-1,3.266601861E-1
3.910493926E0,4.218024611E-1,-1.742493063E-1,3.207042515E-1
3.912730437E0,4.419609904E-1,-1.492038369E-1,3.222314119E-1
3.914967315E0,4.598288238E-1,-1.203404516E-1,3.249803185E-1
3.917201507E0,4.712825418E-1,-9.514226019E-2,3.312416673E-1
3.919424895E0,4.766276181E-1,-7.208210230E-2,3.338378668E-1
3.921664458E0,4.807509482E-1,-5.528330430E-2,3.352122903E-1
3.923912750E0,4.824308157E-1,-2.977968007E-2,3.329215646E-1
3.926152679E0,4.804455042E-1,-1.282817032E-2,3.243694305E-1
3.928389434E0,4.683809280E-1,-4.581489484E-4,3.133738637E-1
3.930622893E0,4.575380683E-1,4.734205548E-3,3.022255898E-1
3.932860137E0,4.477642179E-1,9.773843922E-3,2.948952019E-1
3.935097076E0,4.379903674E-1,8.704829961E-3,2.849686444E-1
3.937332488E0,4.294382632E-1,3.970623948E-3,2.762638032E-1
3.939566008E0,4.218024611E-1,-7.941247895E-3,2.651155293E-1
3.941793670E0,4.166100919E-1,-2.367102914E-2,2.565633953E-1
3.944042510E0,4.079052806E-1,-2.947424725E-2,2.490803003E-1
3.946279082E0,4.079052806E-1,-3.802636266E-2,2.415972054E-1
3.948518585E0,4.065308273E-1,-3.924809024E-2,2.379320115E-1
3.950752471E0,4.079052806E-1,-3.680463135E-2,2.379320115E-1
3.952989959E0,4.129449129E-1,-3.084869497E-2,2.393064648E-1
3.955222380E0,4.127921760E-1,-3.695734590E-2,2.454151064E-1
3.957448028E0,4.273002446E-1,-4.321871698E-2,2.516764700E-1
3.959686675E0,4.404338300E-1,-6.291911751E-2,2.626720667E-1
3.961923309E0,4.534147382E-1,-8.384125680E-2,2.736676335E-1
3.964174469E0,4.749477208E-1,-1.098030284E-1,2.909245789E-1
3.966410125E0,4.915938079E-1,-1.356120855E-1,3.055853248E-1
3.968648162E0,5.094616413E-1,-1.614211351E-1,3.216205537E-1
3.970882354E0,5.273294449E-1,-1.860084683E-1,3.387247920E-1
3.973118133E0,5.451972485E-1,-2.069306076E-1,3.547599912E-1
3.975354156E0,5.644394755E-1,-2.231185287E-1,3.695734739E-1
3.977590789E0,5.789475441E-1,-2.344195396E-1,3.830125034E-1
3.979827544E0,5.958990455E-1,-2.431243658E-1,3.917173445E-1
3.982064300E0,6.082690954E-1,-2.422080636E-1,3.992004395E-1
3.984300994E0,6.180428863E-1,-2.448042482E-1,4.040873647E-1
3.986537566E0,6.229298115E-1,-2.437352389E-1,4.054618180E-1
3.988774871E0,6.291912198E-1,-2.353358418E-1,4.005748928E-1
3.991010467E0,6.246097088E-1,-2.267837226E-1,3.920227587E-1
3.993247344E0,6.125451326E-1,-2.144137025E-1,3.798054755E-1
3.995483611E0,5.969680548E-1,-2.006692290E-1,3.637702465E-1
3.997720245E0,5.765040517E-1,-1.820378453E-1,3.465133011E-1
3.999957000E0,5.511531830E-1,-1.658499092E-1,3.341432810E-1
4.002193511E0,5.245805383E-1,-1.446223408E-1,3.193297982E-1
4.004430205E0,4.992296100E-1,-1.235474944E-1,3.057380617E-1
4.006667632E0,4.653266072E-1,-9.743300825E-2,2.933680415E-1
4.008902984E0,4.327980280E-1,-6.520986557E-2,2.822197378E-1
4.011139678E0,4.028656185E-1,-3.069597855E-2,2.747366428E-1
4.013376129E0,3.717114925E-1,7.635815535E-3,2.635883391E-1
4.015614105E0,3.491095006E-1,4.688390717E-2,2.550362349E-1
4.017853911E0,3.313944042E-1,7.757988572E-2,2.487748712E-1
4.020079802E0,3.173444867E-1,1.105666086E-1,2.438879460E-1
4.022308379E0,3.043636084E-1,1.375973970E-1,2.414444834E-1
4.024544525E0,2.973386645E-1,1.618792862E-1,2.403754741E-1
4.026785797E0,2.953533530E-1,1.789835095E-1,2.391537428E-1
4.029035858E0,2.883284092E-1,1.973094791E-1,2.342668176E-1
4.031272673E0,2.886338234E-1,2.083050460E-1,2.293798923E-1
4.033506499E0,2.900082767E-1,2.179261744E-1,2.257147133E-1
4.035734771E0,2.878702581E-1,2.301434875E-1,2.197587788E-1
4.037978545E0,2.880229652E-1,2.397646159E-1,2.173153162E-1
4.040212859E0,2.846632004E-1,2.495384514E-1,2.148718536E-1
4.042442962E0,2.747366428E-1,2.498438805E-1,2.147191316E-1
4.044688384E0,2.646573782E-1,2.414444834E-1,2.147191316E-1
4.046924712E0,2.533563673E-1,2.283108830E-1,2.109012306E-1
4.049164214E0,2.420553565E-1,2.127338201E-1,2.081523389E-1
4.051397918E0,2.206750661E-1,1.913535446E-1,2.067778856E-1
4.053632903E0,1.954768747E-1,1.663080603E-1,2.089159191E-1
4.055863677E0,1.666134894E-1,1.401935667E-1,2.109012306E-1
4.058107940E0,1.305724531E-1,1.178969890E-1,2.130392492E-1
4.060345367E0,9.300423414E-2,9.193521738E-2,2.174680233E-1
4.062582671E0,5.177082866E-2,6.352998316E-2,2.255619913E-1
4.064817657E0,7.941247895E-3,3.527746722E-2,2.397646159E-1
4.067053924E0,-3.924809024E-2,1.557706390E-2,2.539672256E-1
4.069290801E0,-8.643743396E-2,-4.581489484E-4,2.681698501E-1
4.071527373E0,-1.337794960E-1,-1.527163107E-2,2.860376537E-1
4.073764129E0,-1.832595766E-1,-2.168571576E-2,3.016147017E-1
4.076000701E0,-2.348776907E-1,-1.572977938E-2,3.133738637E-1
4.078238006E0,-2.849686444E-1,3.359758761E-3,3.179553747E-1
4.080473541E0,-3.313944042E-1,2.611448988E-2,3.262020350E-1
4.082709502E0,-3.726277947E-1,5.604688451E-2,3.295617998E-1
4.084943816E0,-4.137084782E-1,9.208793938E-2,3.318525553E-1
4.087183318E0,-4.537201524E-1,1.256855279E-1,3.353650272E-1
4.089419158E0,-4.889976382E-1,1.493565589E-1,3.313944042E-1
4.091654265E0,-5.267185569E-1,1.707368344E-1,3.287982047E-1
4.093890654E0,-5.645921826E-1,1.812742651E-1,3.236058652E-1
4.096119109E0,-6.026185751E-1,1.879937798E-1,3.171917796E-1
4.098366912E0,-6.430884004E-1,1.912008226E-1,3.032945991E-1
4.100599456E0,-6.823364496E-1,1.907426715E-1,2.932153046E-1
4.102829071E0,-7.218900323E-1,1.806633919E-1,2.880229652E-1
4.105076080E0,-7.544185519E-1,1.606575549E-1,2.961169183E-1
4.107312225E0,-7.797694802E-1,1.284344196E-1,3.068070710E-1
4.109549346E0,-8.003861904E-1,8.506298810E-2,3.236058652E-1
4.111774138E0,-8.116871715E-1,3.313944116E-2,3.625485301E-1
4.114023284E0,-8.106181622E-1,-2.153299935E-2,4.039346576E-1
4.116258025E0,-8.081747293E-1,-7.376197726E-2,4.355469346E-1
4.118498321E0,-7.971791625E-1,-1.285871267E-1,4.647157490E-1
4.120728850E0,-7.751879692E-1,-1.896736622E-1,4.952589869E-1
4.122953704E0,-7.417431474E-1,-2.351831198E-1,5.137376785E-1
4.125192962E0,-7.067710757E-1,-2.710714638E-1,5.163338780E-1
4.127441131E0,-6.751587987E-1,-2.912299931E-1,5.091561675E-1
4.129678801E0,-6.385068893E-1,-3.052799106E-1,5.009095073E-1
4.131907318E0,-6.039929986E-1,-3.107776940E-1,4.876231849E-1
4.134151702E0,-5.707008839E-1,-3.162754774E-1,4.683809280E-1
4.136387908E0,-5.410739183E-1,-3.203988075E-1,4.453207552E-1
4.138627349E0,-5.166392922E-1,-3.391829133E-1,4.173736870E-1
4.140858001E0,-4.937318265E-1,-3.662137091E-1,3.941608071E-1
4.143085662E0,-4.770857692E-1,-4.066835344E-1,3.758348525E-1
4.145334197E0,-4.547891617E-1,-4.592179358E-1,3.709479272E-1
4.147571258E0,-4.326453209E-1,-5.204572082E-1,3.707951903E-1
4.149811370E0,-4.130976200E-1,-5.874996781E-1,3.730859458E-1
4.152044158E0,-3.956879675E-1,-6.412557960E-1,3.767511547E-1
4.154280425E0,-3.733913898E-1,-6.927211881E-1,3.804163337E-1
4.156516876E0,-3.558290005E-1,-7.342600226E-1,3.804163337E-1
4.158753875E0,-3.306308091E-1,-7.675521970E-1,3.804163337E-1
4.160990508E0,-3.052799106E-1,-7.959573865E-1,3.756821156E-1
4.163227080E0,-2.773328125E-1,-8.159632683E-1,3.709479272E-1
4.165463836E0,-2.528982162E-1,-8.248208165E-1,3.637702465E-1
4.167701141E0,-2.280054539E-1,-8.193230033E-1,3.553708494E-1
4.169936675E0,-2.102903575E-1,-7.977899909E-1,3.422372639E-1
4.172173308E0,-2.009746730E-1,-7.664831877E-1,3.265074790E-1
4.174410552E0,-1.924225539E-1,-7.180721164E-1,3.133738637E-1
4.176646209E0,-1.838704348E-1,-6.635523438E-1,2.976440787E-1
4.178883025E0,-1.788308024E-1,-5.981897712E-1,2.893974185E-1
4.181119048E0,-1.724167168E-1,-5.279402733E-1,2.800817192E-1
4.183356231E0,-1.635591686E-1,-4.564690590E-1,2.730567753E-1
4.185593719E0,-1.508837193E-1,-3.814853430E-1,2.722931802E-1
4.187826384E0,-1.346957833E-1,-3.138320148E-1,2.738203406E-1
4.190050933E0,-1.174388453E-1,-2.461786866E-1,2.779437006E-1
4.192290008E0,-9.178250283E-2,-1.921171248E-1,2.820670307E-1
4.194538970E0,-5.986479297E-2,-1.429424733E-1,2.776382565E-1
4.196778350E0,-2.596177347E-2,-1.072068512E-1,2.719877362E-1
4.199015228E0,1.420261711E-2,-7.773260027E-2,2.651155293E-1
4.201248992E0,5.665775016E-2,-5.299255997E-2,2.472477108E-1
4.203486358E0,1.039998084E-1,-2.962696366E-2,2.281581759E-1
4.205721832E0,1.536326110E-1,-1.359175146E-2,2.090686262E-1
4.207958221E0,2.009746730E-1,3.665191587E-3,1.912008226E-1
4.210194854E0,2.457205504E-1,1.970040426E-2,1.682933718E-1
4.212431853E0,2.878702581E-1,2.504547499E-2,1.453859210E-1
4.214668243E0,3.338378668E-1,3.390302137E-2,1.238529310E-1
4.216903655E0,3.698789179E-1,4.520402849E-2,1.046106741E-1
4.219134613E0,4.021020532E-1,4.948008433E-2,8.659014851E-2
4.221368865E0,4.305072725E-1,4.886921868E-2,6.597344577E-2
4.223614410E0,4.515821338E-1,4.978551716E-2,4.535674304E-2
4.225851958E0,4.665483236E-1,5.314527452E-2,2.962696366E-2
4.228090117E0,4.715879560E-1,5.665775016E-2,1.740965992E-2
4.230324187E0,4.692972302E-1,5.910121277E-2,3.970623948E-3
4.232560882E0,4.608978331E-1,6.780604273E-2,-8.246680722E-3
4.234797515E0,4.502076805E-1,8.261952549E-2,-2.061670274E-2
4.237034148E0,4.361577928E-1,1.119410545E-1,-3.772092983E-2
4.239271514E0,4.198171496E-1,1.475239545E-1,-5.726861581E-2
4.241507293E0,3.987422884E-1,1.927279830E-1,-8.048149943E-2
4.243744170E0,3.801108897E-1,2.393064648E-1,-1.073595658E-1
4.245981170E0,3.616322279E-1,2.906191349E-1,-1.342376322E-1
4.248216766E0,3.507893682E-1,3.527746797E-1,-1.597412676E-1
4.250453521E0,3.426954150E-1,4.280638099E-1,-1.840231568E-1
4.252687835E0,3.393356502E-1,4.961752892E-1,-2.070833147E-1
4.254916411E0,3.333797157E-1,5.630650520E-1,-2.338086665E-1
4.257151031E0,3.315471113E-1,6.383541822E-1,-2.652682364E-1
4.259396453E0,3.330742717E-1,7.026477456E-1,-2.981022298E-1
4.261625335E0,3.280346394E-1,7.499898076E-1,-3.309362531E-1
4.263876007E0,3.240640163E-1,7.901542187E-1,-3.564398587E-1
4.266109344E0,3.199406862E-1,8.181012869E-1,-3.735440969E-1
4.268349151E0,3.167336285E-1,8.413141370E-1,-3.820962012E-1
4.270582732E0,3.194825351E-1,8.521569967E-1,-3.831652105E-1
4.272819549E0,3.266601861E-1,8.471173644E-1,-3.697261810E-1
4.275056609E0,3.394883573E-1,8.214610219E-1,-3.452915847E-1
4.277292144E0,3.504839242E-1,7.738135457E-1,-3.086396754E-1
4.279525786E0,3.712533414E-1,7.188356519E-1,-2.609921694E-1
4.281753997E0,3.906483352E-1,6.601926088E-1,-2.060143054E-1
4.284001433E0,4.158465266E-1,5.868887901E-1,-1.437060535E-1
4.286226775E0,4.396702647E-1,5.148066878E-1,-7.024950534E-2
4.288478118E0,4.637994468E-1,4.535674453E-1,7.941247895E-3
4.290711822E0,4.783074856E-1,4.071416855E-1,8.628471941E-2
4.292952362E0,4.894557893E-1,3.827070892E-1,1.730275750E-1
4.295184783E0,4.998404980E-1,3.752239645E-1,2.564106882E-1
4.297421294E0,5.102251768E-1,3.701843321E-1,3.384193480E-1
4.299657867E0,5.170974135E-1,3.675881624E-1,4.118759036E-1
4.301894561E0,5.253441334E-1,3.711006343E-1,4.767803252E-1
4.304131377E0,5.398521423E-1,3.732386529E-1,5.271766782E-1
4.306367889E0,5.555819273E-1,3.740022480E-1,5.603161454E-1
4.308604766E0,5.716171265E-1,3.810271919E-1,5.763513446E-1
4.310842010E0,5.778785348E-1,3.894265890E-1,5.765040517E-1
4.313077544E0,5.717698932E-1,3.810271919E-1,5.629123449E-1
4.315314239E0,5.554292202E-1,3.582724631E-1,5.430592299E-1
4.317551727E0,5.265658498E-1,3.260493279E-1,5.280929804E-1
4.319786712E0,4.912883639E-1,2.855795026E-1,5.105306506E-1
4.322019194E0,4.596760869E-1,2.376265824E-1,5.001459122E-1
4.324250884E0,4.292855561E-1,1.921171248E-1,4.935791194E-1
4.326497283E0,4.051563740E-1,1.572978050E-1,4.883867502E-1
4.328735198E0,3.900374472E-1,1.334740520E-1,4.809036553E-1
4.330972503E0,3.822489381E-1,1.189660057E-1,4.819726646E-1
4.333206756E0,3.723223805E-1,1.168279797E-1,4.854851663E-1
4.335443084E0,3.686571717E-1,1.156062484E-1,4.879286289E-1
4.337679900E0,3.674354553E-1,1.156062484E-1,4.928155243E-1
4.339916473E0,3.649919927E-1,1.192714423E-1,4.977024496E-1
4.342153045E0,3.613267839E-1,1.206458881E-1,5.001459122E-1
4.344389861E0,3.561344445E-1,1.146899462E-1,5.036584139E-1
4.346627166E0,3.474296033E-1,1.075122803E-1,5.024366379E-1
4.348861297E0,3.384193480E-1,9.071348608E-2,5.071708560E-1
4.351090484E0,3.316998184E-1,6.536258012E-2,5.180137157E-1
4.353323699E0,3.234531581E-1,2.794708498E-2,5.274821520E-1
4.355572417E0,3.225368559E-1,-1.572977938E-2,5.456553698E-1
4.357810272E0,3.225368559E-1,-6.551529467E-2,5.589417219E-1
4.360048614E0,3.237585723E-1,-1.226311997E-1,5.710062981E-1
4.362282500E0,3.275764883E-1,-1.773036420E-1,5.806274414E-1
4.364520110E0,3.313944042E-1,-2.283108830E-1,5.963571668E-1
4.366755584E0,3.402519524E-1,-2.696970105E-1,6.096435189E-1
4.368991912E0,3.443752825E-1,-3.061962128E-1,6.230825782E-1
4.371228179E0,3.523165286E-1,-3.367394805E-1,6.316346526E-1
4.373464996E0,3.616322279E-1,-3.575088978E-1,6.377432942E-1
4.375701629E0,3.688098788E-1,-3.711006343E-1,6.438519955E-1
4.377938262E0,3.773620129E-1,-3.736968040E-1,6.414085031E-1
4.380175323E0,3.799581826E-1,-3.700316250E-1,6.389650702E-1
4.382412566E0,3.788891733E-1,-3.567453027E-1,6.366742849E-1
4.384647918E0,3.816380501E-1,-3.422372639E-1,6.366742849E-1
4.386882354E0,3.781255782E-1,-3.396410644E-1,6.354525685E-1
4.389110992E0,3.744603992E-1,-3.384193480E-1,6.378960609E-1
4.391351836E0,3.646865487E-1,-3.333797157E-1,6.377432942E-1
4.393594451E0,3.597996235E-1,-3.260493279E-1,6.414085031E-1
4.395832854E0,3.564398587E-1,-3.101668358E-1,6.464481354E-1
4.398069122E0,3.506366611E-1,-2.918408811E-1,6.537785530E-1
4.400305083E0,3.471241891E-1,-2.759583890E-1,6.611089110E-1
4.402540557E0,3.507893682E-1,-2.712241709E-1,6.759223938E-1
4.404777373E0,3.607159257E-1,-2.640464902E-1,6.944010854E-1
4.407013580E0,3.668245673E-1,-2.593123019E-1,7.090618610E-1
4.409250274E0,3.732386529E-1,-2.486221492E-1,7.202101350E-1
4.411487090E0,3.795000315E-1,-2.341141105E-1,7.301366925E-1
4.413723846E0,3.874412775E-1,-2.112066597E-1,7.351763248E-1
4.415956634E0,3.927863538E-1,-1.858557463E-1,7.402159572E-1
4.418179290E0,3.932445049E-1,-1.615738571E-1,7.489207983E-1
4.420421050E0,3.935499489E-1,-1.397354305E-1,7.538077235E-1
4.422669891E0,3.817907870E-1,-1.140790880E-1,7.696902156E-1
4.424910003E0,3.759875596E-1,-8.720101416E-2,7.857254148E-1
4.427145843E0,3.666718602E-1,-6.032294407E-2,7.991644740E-1
4.429379607E0,3.573561609E-1,-2.748893574E-2,8.103127480E-1
4.431616180E0,3.530801237E-1,7.788531948E-3,8.251262307E-1
4.433852996E0,3.400992155E-1,4.444044828E-2,8.434522152E-1
4.436090057E0,3.246748745E-1,8.368854225E-2,8.678867817E-1
4.438325835E0,3.081815243E-1,1.227839142E-1,8.936958313E-1
4.440562286E0,2.805398703E-1,1.695151031E-1,9.169087410E-1
4.442799102E0,2.545780838E-1,2.367102802E-1,9.498954415E-1
4.445035613E0,1.901318133E-1,4.042400718E-1,9.746354818E-1
4.447272307E0,7.452555746E-2,6.516404748E-1,9.673051238E-1
4.449505950E0,-3.359758761E-3,8.072584271E-1,9.451612234E-1
4.451733672E0,-4.367686436E-2,8.820894361E-1,9.439395070E-1
4.453980132E0,-1.052215397E-1,8.784242272E-1,9.323330522E-1
4.456202117E0,-1.879937798E-1,8.691084981E-1,9.340129495E-1
4.458438079E0,-2.681698501E-1,8.681922555E-1,9.615018964E-1
4.460676604E0,-3.488040566E-1,8.516988754E-1,9.926560521E-1
4.462914398E0,-4.074471295E-1,8.199338913E-1,1.017701507E0
4.465169280E0,-4.456261992E-1,7.661777139E-1,1.045190454E0
4.467403777E0,-4.654793143E-1,6.997461319E-1,1.055880547E0
4.469639739E0,-4.783074856E-1,6.151412725E-1,1.055422425E0
4.471863921E0,-4.825835526E-1,5.302310586E-1,1.058629513E0
4.474111114E0,-4.783074856E-1,4.378376603E-1,1.057102323E0
4.476347625E0,-4.778493345E-1,3.323107064E-1,1.048092008E0
4.478587065E0,-4.685336351E-1,2.448042482E-1,1.044121385E0
