"Time (s)","Acceleration x (m/s^2)","Acceleration y (m/s^2)","Acceleration z (m/s^2)"
1.059537400E-2,-1.276570916E0,3.212364435E0,7.956733704E0
1.283902600E-2,-1.205982566E0,3.248256683E0,8.181658745E0
1.507657500E-2,-1.073180914E0,3.293122053E0,8.411369324E0
1.730766900E-2,-9.499505758E-1,3.342773199E0,8.636893272E0
1.955072600E-2,-8.368897438E-1,3.349353552E0,8.890532494E0
2.178713500E-2,-7.130611539E-1,3.403790236E0,9.105886459E0
2.402457700E-2,-6.041877270E-1,3.424727440E0,9.335597992E0
2.626090500E-2,-5.240281820E-1,3.456432343E0,9.531808853E0
2.849644000E-2,-4.630111754E-1,3.468994617E0,9.737591743E0
3.073337800E-2,-3.978067636E-1,3.466601849E0,9.924231529E0
3.297172100E-2,-3.367897868E-1,3.464807272E0,1.010130119E1
3.521818100E-2,-2.662015259E-1,3.453441381E0,1.027836990E1
3.745792700E-2,-1.860419661E-1,3.432504177E0,1.039322472E1
3.969761200E-2,-1.250249892E-1,3.421736479E0,1.052782154E1
4.193149900E-2,-5.922235921E-2,3.396013498E0,1.062831974E1
4.416910800E-2,-1.196411345E-2,3.385245800E0,1.070489025E1
4.640305500E-2,4.007977992E-2,3.375076294E0,1.073420238E1
4.863981100E-2,5.503492057E-2,3.384049416E0,1.073898792E1
5.087516300E-2,9.750752151E-2,3.369094372E0,1.074915791E1
5.311216200E-2,1.591227055E-1,3.287140131E0,1.068754196E1
5.534855200E-2,1.974078715E-1,3.224926710E0,1.057388306E1
5.758585600E-2,2.129612118E-1,3.206382275E0,1.039741230E1
5.982267300E-2,2.285145670E-1,3.206980467E0,1.028794098E1
6.206028300E-2,2.578266263E-1,3.202194929E0,1.018325520E1
6.429630500E-2,2.691925466E-1,3.255435228E0,1.007378292E1
6.653379300E-2,2.225325108E-1,3.308675528E0,9.987641335E0
6.876890100E-2,1.417747438E-1,3.329612732E0,9.905687332E0
7.100596100E-2,4.187439755E-2,3.331407309E0,9.828518867E0
7.324253400E-2,-6.281159073E-2,3.314657450E0,9.698708534E0
7.547965500E-2,-1.531406492E-1,3.287738323E0,9.568898201E0
7.771653200E-2,-2.087737769E-1,3.327818155E0,9.444471359E0
7.995426500E-2,-2.464607358E-1,3.305086374E0,9.287142754E0
8.219016500E-2,-2.985046208E-1,3.282354355E0,9.153144836E0
8.442789700E-2,-3.403790295E-1,3.269792080E0,9.014361382E0
8.666300500E-2,-4.163511395E-1,3.228515863E0,8.870791435E0
8.890030900E-2,-5.120640397E-1,3.182454109E0,8.721838951E0
9.113657700E-2,-6.215356588E-1,3.165704250E0,8.601598740E0
9.337375900E-2,-7.130611539E-1,3.100499868E0,8.525029182E0
9.561075900E-2,-8.087740541E-1,3.064009428E0,8.471788406E0
9.784604900E-2,-8.703892231E-1,3.060420275E0,8.385048866E0
1.000751140E-1,-8.955138922E-1,3.003590584E0,8.394619942E0
1.023216350E-1,-8.925228715E-1,2.897708178E0,8.490332603E0
1.045570480E-1,-9.589236975E-1,2.933002472E0,8.408378601E0
1.067939860E-1,-1.015753269E0,2.962314367E0,8.402995110E0
1.090171310E-1,-1.049252748E0,2.958127022E0,8.379066467E0
1.112526040E-1,-1.087537885E0,2.939582586E0,8.392825127E0
1.134898490E-1,-1.131206870E0,2.935395241E0,8.430512428E0
1.157330730E-1,-1.150349498E0,2.935395241E0,8.435297966E0
1.179784950E-1,-1.150947690E0,2.916252613E0,8.468797684E0
1.202067060E-1,-1.127019525E0,2.925225735E0,8.449654579E0
1.224540810E-1,-1.122233868E0,2.910868645E0,8.454441071E0
1.246882730E-1,-1.064806104E0,2.905484915E0,8.455039024E0
1.269274700E-1,-9.930213690E-1,2.913859844E0,8.474779129E0
1.291617230E-1,-9.308080077E-1,2.893520832E0,8.484949112E0
1.313982950E-1,-8.781659007E-1,2.921636343E0,8.519046783E0
1.336362100E-1,-7.728816867E-1,2.910270452E0,8.524430275E0
1.358722940E-1,-7.495517135E-1,2.880958557E0,8.562715530E0
1.381100870E-1,-7.172485590E-1,2.870789051E0,8.634500504E0
1.403451340E-1,-6.837490797E-1,2.888735056E0,8.697312355E0
1.425821940E-1,-6.358926296E-1,2.888136864E0,8.697312355E0
1.448187060E-1,-5.353940725E-1,2.900699139E0,8.717651367E0
1.470528360E-1,-4.486542344E-1,2.933002472E0,8.756534576E0
1.492806190E-1,-3.427718580E-1,2.979064226E0,8.742775917E0
1.515298870E-1,-2.476571500E-1,2.958127022E0,8.796015739E0
1.537660320E-1,-4.307080805E-2,2.826521635E0,8.769695282E0
1.560067550E-1,4.725824669E-2,2.762513638E0,8.761320114E0
1.582389330E-1,-2.093719877E-2,2.772683144E0,8.884550095E0
1.604759930E-1,-8.973085135E-2,2.758326292E0,9.050851822E0
1.627125650E-1,-1.094716340E-1,2.791825771E0,9.184251785E0
1.649498700E-1,-7.597211748E-2,2.838485956E0,9.317651749E0
1.671865640E-1,-2.811566554E-2,2.880360365E0,9.418149948E0
1.694245400E-1,6.281159073E-2,2.940778971E0,9.524032593E0
1.716603190E-1,1.387837082E-1,2.953341246E0,9.619745255E0
1.738978680E-1,2.291127741E-1,2.984447956E0,9.744770050E0
1.761329150E-1,2.715853751E-1,2.969492912E0,9.850054741E0
1.783702190E-1,2.656033039E-1,2.954537868E0,9.973882675E0
1.806065470E-1,3.020938635E-1,2.934198856E0,1.012702370E1
1.828436690E-1,2.769692242E-1,2.943171740E0,1.026999474E1
1.850805460E-1,2.811566591E-1,2.933002472E0,1.035553837E1
1.873185220E-1,2.853440940E-1,2.946761131E0,1.044167995E1
1.895538130E-1,2.991028428E-1,2.922832966E0,1.049910736E1
1.917904460E-1,2.991028428E-1,2.936591625E0,1.053200912E1
1.940269580E-1,2.841476798E-1,2.918047190E0,1.056072235E1
1.962643230E-1,2.691925466E-1,2.908475876E0,1.058465099E1
1.984980260E-1,2.165504545E-1,2.880360365E0,1.053619671E1
2.007230630E-1,1.447657645E-1,2.848655462E0,1.050269699E1
2.029598790E-1,5.862415582E-2,2.840280533E0,1.045842934E1
2.052006020E-1,-2.751746029E-2,2.803789854E0,1.038664532E1
2.074511520E-1,-1.136590764E-1,2.791227579E0,1.031426239E1
2.096888840E-1,-1.944168359E-1,2.773281336E0,1.023230743E1
2.119239310E-1,-2.656033039E-1,2.770290375E0,1.013180923E1
2.141581220E-1,-3.176472187E-1,2.738585472E0,9.997811317E0
2.163946330E-1,-4.121637046E-1,2.759522676E0,9.896714211E0
2.186288250E-1,-4.743770957E-1,2.746362209E0,9.809974670E0
2.208568520E-1,-5.264210105E-1,2.733201742E0,9.699904442E0
2.231061200E-1,-5.790630579E-1,2.686541557E0,9.618548393E0
2.253422650E-1,-6.311069727E-1,2.678166628E0,9.541978836E0
2.275829270E-1,-6.885347366E-1,2.650649309E0,9.469595909E0
2.298174230E-1,-7.178468108E-1,2.560918331E0,9.412766457E0
2.320614420E-1,-7.663014531E-1,2.513660192E0,9.369096756E0
2.342886150E-1,-8.285148144E-1,2.476571321E0,9.335597992E0
2.365224410E-1,-8.524430394E-1,2.462812662E0,9.282955170E0
2.387448530E-1,-8.859425783E-1,2.440080881E0,9.229715347E0
2.409882000E-1,-8.715856671E-1,2.435295343E0,9.187242508E0
2.432363080E-1,-8.715856671E-1,2.420938253E0,9.177671432E0
2.454768480E-1,-8.715856671E-1,2.434697151E0,9.201599121E0
2.477118940E-1,-8.327022791E-1,2.448455811E0,9.192625999E0
2.499450480E-1,-8.279166222E-1,2.462812662E0,9.215956688E0
2.521781420E-1,-7.758727670E-1,2.475973129E0,9.269196510E0
2.544199020E-1,-7.322037220E-1,2.504088879E0,9.297910690E0
2.566537270E-1,-6.981059909E-1,2.532204628E0,9.288937569E0
2.588836470E-1,-6.358926296E-1,2.564507723E0,9.346364975E0
2.611302900E-1,-5.395814776E-1,2.615355253E0,9.371489525E0
2.633677780E-1,-4.486542344E-1,2.652443886E0,9.424132347E0
2.656058760E-1,-3.427718580E-1,2.702693224E0,9.482755661E0
2.678396410E-1,-2.470589429E-1,2.753540754E0,9.555138588E0
2.700743210E-1,-1.268195957E-1,2.794816732E0,9.594022751E0
2.723137010E-1,7.178467698E-3,2.806781054E0,9.643074989E0
2.745507000E-1,1.022931710E-1,2.804986238E0,9.705886841E0
2.767858080E-1,1.680957973E-1,2.817548752E0,9.916455269E0
2.790121260E-1,2.380858511E-1,2.829512835E0,1.015035343E1
2.812616380E-1,3.224328458E-1,2.775076151E0,1.031366348E1
2.834972330E-1,4.504488707E-1,2.743969440E0,1.042433167E1
2.857372850E-1,5.742774606E-1,2.717648268E0,1.046381378E1
2.879677530E-1,7.124629617E-1,2.658426046E0,1.042193890E1
2.901962080E-1,8.416753411E-1,2.589632273E0,1.036630630E1
2.924448040E-1,9.559326172E-1,2.516651154E0,1.030528927E1
2.946825970E-1,1.031904817E0,2.467598438E0,1.028734303E1
2.969212450E-1,1.068993568E0,2.395215511E0,1.028734303E1
2.991556810E-1,1.101296663E0,2.318047047E0,1.032622623E1
3.013912760E-1,1.152742267E0,2.259422779E0,1.041236782E1
3.036284590E-1,1.180259824E0,2.206182480E0,1.046560764E1
3.058644210E-1,1.246062398E0,2.152343988E0,1.051346493E1
3.081016640E-1,1.278963685E0,2.156531334E0,1.058046341E1
3.103384810E-1,1.312463164E0,2.155933142E0,1.063848972E1
3.125763960E-1,1.302293777E0,2.175075769E0,1.067617607E1
3.148105270E-1,1.292722464E0,2.193620205E0,1.072881889E1
3.170431320E-1,1.240678549E0,2.223530531E0,1.071864891E1
3.192850750E-1,1.155135155E0,2.277369022E0,1.069412231E1
3.215223800E-1,1.060020447E0,2.303091764E0,1.064985561E1
3.237604170E-1,9.517452121E-1,2.357528448E0,1.056311512E1
3.259960130E-1,8.476574421E-1,2.393420935E0,1.045723343E1
3.282325240E-1,7.776673436E-1,2.452044964E0,1.033220863E1
3.304701340E-1,7.220342159E-1,2.516052961E0,1.015992451E1
3.327062170E-1,6.424728632E-1,2.560918331E0,1.003071213E1
3.349440110E-1,5.533402562E-1,2.634497643E0,9.920044899E0
3.371791180E-1,5.359922647E-1,2.711666346E0,9.809974670E0
3.394161180E-1,4.516452849E-1,2.747558594E0,9.647262573E0
3.416524460E-1,4.061816335E-1,2.825325251E0,9.522835732E0
3.438898110E-1,3.696911037E-1,2.874378204E0,9.360123634E0
3.461266890E-1,3.379862010E-1,2.956930637E0,9.240483284E0
3.483644820E-1,3.212364316E-1,3.014956474E0,9.101698875E0
3.506002600E-1,2.799602449E-1,3.078366280E0,8.996415138E0
3.528378090E-1,2.380858511E-1,3.156133175E0,8.910273552E0
3.550731610E-1,2.057827413E-1,3.195016384E0,8.880961418E0
3.573095510E-1,1.776670814E-1,3.247658491E0,8.890532494E0
3.595431320E-1,1.298106313E-1,3.291327477E0,8.913862228E0
3.617838540E-1,1.016949639E-1,3.334996462E0,8.918049812E0
3.640206710E-1,9.810572863E-2,3.392424345E0,8.927620888E0
3.662593790E-1,1.172483116E-1,3.458825111E0,9.008378983E0
3.684942420E-1,1.363908947E-1,3.506083488E0,9.080163956E0
3.707316080E-1,1.609173268E-1,3.557528973E0,9.151947975E0
3.729671430E-1,1.752742529E-1,3.628715515E0,9.237491608E0
3.752042040E-1,2.237289101E-1,3.671188116E0,9.281160355E0
3.774406540E-1,2.530409992E-1,3.728017569E0,9.314660072E0
3.796778970E-1,3.104687333E-1,3.750749588E0,9.376873970E0
3.819147140E-1,3.864408433E-1,3.753740549E0,9.477970123E0
3.841522630E-1,4.713860750E-1,3.756731510E0,9.583852768E0
3.863881020E-1,6.245267391E-1,3.796811342E0,9.742377281E0
3.886258950E-1,7.573283911E-1,3.817748547E0,9.948758125E0
3.908612470E-1,8.518448472E-1,3.876971006E0,1.016889763E1
3.930983070E-1,1.012163997E0,3.802195072E0,1.035613632E1
3.953346360E-1,1.197009563E0,3.788436413E0,1.060080242E1
3.975719400E-1,1.376471281E0,3.751347780E0,1.085563850E1
3.998087570E-1,1.613360643E0,3.707678795E0,1.116311550E1
4.020428270E-1,1.811964989E0,3.655634880E0,1.140299606E1
4.042681680E-1,1.963310957E0,3.562314749E0,1.145264721E1
4.065196330E-1,2.058425665E0,3.474976778E0,1.139641571E1
4.087550460E-1,2.144567251E0,3.402593851E0,1.128275681E1
4.109958900E-1,2.239681959E0,3.324826956E0,1.120259762E1
4.132289840E-1,2.296511650E0,3.266801119E0,1.114636612E1
4.154659830E-1,2.369492531E0,3.285345554E0,1.107039356E1
4.177025550E-1,2.428116798E0,3.361317635E0,1.103270721E1
4.199403480E-1,2.432902336E0,3.303889751E0,1.097109222E1
4.221763710E-1,2.347358942E0,3.301496983E0,1.083649540E1
4.244137980E-1,2.209771633E0,3.284747362E0,1.068754196E1
4.266492720E-1,2.052443504E0,3.278765202E0,1.053380394E1
4.288860880E-1,1.928615093E0,3.228515863E0,1.038485050E1
4.311227220E-1,1.813161373E0,3.149552822E0,1.028853893E1
4.333597210E-1,1.664806366E0,3.099901676E0,1.015813065E1
4.355966590E-1,1.564906001E0,3.063411236E0,1.001934624E1
4.378314610E-1,1.459621787E0,3.051447153E0,9.951749802E0
4.400585120E-1,1.364507079E0,3.038884640E0,9.879366875E0
4.423077800E-1,1.974676847E0,2.323430777E0,9.547362328E0
4.445430710E-1,2.627917528E0,1.530808330E0,9.139984131E0
4.467831220E-1,2.280359983E0,1.971685886E0,9.035896301E0
4.490167040E-1,2.270788670E0,2.216950178E0,8.892327309E0
4.512535810E-1,2.233700037E0,2.265404940E0,8.777471542E0
4.534907020E-1,2.167897224E0,2.314457655E0,8.752944946E0
4.557284340E-1,2.130808592E0,2.377269268E0,8.728418350E0
4.579613440E-1,2.136790514E0,2.392224550E0,8.585447311E0
4.601898600E-1,2.214557409E0,2.340180635E0,8.314460754E0
4.624371140E-1,2.364706993E0,2.286342144E0,8.034500122E0
4.646742350E-1,2.465803623E0,2.185843468E0,7.788039684E0
4.669137990E-1,2.528017044E0,2.080559254E0,7.607381344E0
4.691478070E-1,2.584248543E0,1.945963025E0,7.493722439E0
4.713844400E-1,2.583650351E0,1.860419631E0,7.436294556E0
4.736222330E-1,2.496312141E0,1.818545222E0,7.483552933E0
4.758583170E-1,2.418545485E0,1.785643935E0,7.558926582E0
4.780959270E-1,2.312663078E0,1.772483349E0,7.643871784E0
4.803321940E-1,2.168495417E0,1.798206210E0,7.723433495E0
4.825721230E-1,2.077568293E0,1.804188251E0,7.746763229E0
4.848046060E-1,2.033899307E0,1.771885157E0,7.731808186E0
4.870419110E-1,1.890329838E0,1.811964989E0,7.764111042E0
4.892778120E-1,1.680359721E0,1.896311998E0,7.833503246E0
4.915165810E-1,1.603789330E0,1.911267042E0,7.880163193E0
4.937523600E-1,1.584048629E0,1.901695848E0,7.932805061E0
4.959898480E-1,1.549950838E0,1.935195327E0,8.051848412E0
4.982249560E-1,1.473380566E0,2.012363911E0,8.188837051E0
5.004622600E-1,1.492523074E0,2.054836512E0,8.270193100E0
5.026986490E-1,1.497308731E0,2.139781713E0,8.422736168E0
5.049360150E-1,1.445264935E0,2.278565407E0,8.598608017E0
5.071699020E-1,1.445863128E0,2.411366940E0,8.760123253E0
5.093959150E-1,1.474576950E0,2.496910334E0,8.870193481E0
5.116344400E-1,1.533201098E0,2.591426849E0,8.937192917E0
5.138838910E-1,1.605584025E0,2.699702263E0,9.047262192E0
5.161219280E-1,1.630110383E0,2.808575630E0,9.157332420E0
5.183592940E-1,1.688136339E0,2.874378204E0,9.243474007E0
5.205926310E-1,1.754537225E0,2.906083107E0,9.348757744E0
5.228267620E-1,1.903490424E0,2.922832966E0,9.388239861E0
5.250546060E-1,2.023131609E0,2.968894720E0,9.446864128E0
5.273044230E-1,2.118844509E0,2.971885681E0,9.485747337E0
5.295405070E-1,2.195414782E0,2.961117983E0,9.452845573E0
5.317810470E-1,2.090728760E0,2.934797049E0,9.327820778E0
5.340133470E-1,1.827518344E0,2.858226538E0,9.125627518E0
5.362503460E-1,1.354935765E0,2.781058073E0,8.768498421E0
5.384866130E-1,5.479564071E-1,2.794816732E0,8.450851440E0
5.407234910E-1,-4.887340367E-1,2.911466837E0,8.307880402E0
5.429606730E-1,-1.559522152E0,3.043072224E0,8.230711937E0
5.451986490E-1,-2.510669231E0,3.186641455E0,8.264809608E0
5.474343060E-1,-3.227917671E0,3.288336515E0,8.277371407E0
5.496717940E-1,-3.696911097E0,3.342773199E0,8.286943436E0
5.519040940E-1,-3.882952929E0,3.351148129E0,8.199604988E0
5.541324870E-1,-3.437289715E0,3.263810158E0,8.008178711E0
5.563808390E-1,-2.575275421E0,3.070589542E0,7.677969456E0
5.586180830E-1,-1.645663738E0,2.871985435E0,7.310073376E0
5.608577070E-1,-7.734799385E-1,2.707478762E0,6.975078106E0
5.630927530E-1,-1.507478207E-1,2.574677229E0,6.785446644E0
5.653284710E-1,2.608176768E-1,2.516052961E0,6.703492641E0
5.675658370E-1,4.366901219E-1,2.426920414E0,6.738786697E0
5.697996010E-1,4.689932466E-1,2.392822742E0,6.839285374E0
5.720322680E-1,2.793620527E-1,2.294716835E0,6.980462074E0
5.742745770E-1,-4.845465720E-1,1.493121386E0,6.984649181E0
5.765118820E-1,-6.598208547E-1,1.346560955E0,7.102495670E0
5.787501630E-1,-6.789634228E-1,1.555932879E0,7.469195843E0
5.809863080E-1,-6.909275651E-1,1.955534339E0,7.945367813E0
5.832223920E-1,-5.234299302E-1,2.274976015E0,8.547162056E0
5.854601240E-1,-1.489532143E-1,2.573480844E0,8.935996056E0
5.876952920E-1,4.055834413E-1,2.994019270E0,9.269794464E0
5.899325360E-1,7.184450030E-1,3.208176851E0,9.486345291E0
5.921687420E-1,6.029912829E-1,2.922234535E0,9.634101868E0
5.944056810E-1,3.595215976E-1,2.327618122E0,9.680164337E0
5.966396280E-1,5.485545993E-1,2.380260229E0,1.006361389E1
5.988680830E-1,5.898307562E-1,2.478366137E0,1.048833942E1
6.011164350E-1,3.655036688E-1,2.474776745E0,1.096750259E1
6.033539840E-1,3.272185028E-1,2.508276224E0,1.102433205E1
6.055925710E-1,5.084748268E-1,2.782852650E0,1.104467106E1
6.078233440E-1,5.533402562E-1,2.944368362E0,1.112602711E1
6.100469760E-1,4.654040039E-1,2.868994236E0,1.117268753E1
6.122810460E-1,3.409772217E-1,2.702095032E0,1.145324516E1
6.145248820E-1,5.324030295E-2,2.380858421E0,1.154178047E1
6.167745770E-1,-6.448656917E-1,1.485942841E0,1.090768242E1
6.190023610E-1,-2.811566591E-1,1.423131227E0,1.086341476E1
6.212506520E-1,3.409772366E-2,1.408774376E0,1.092802143E1
6.234829510E-1,1.698904037E-1,1.238285661E0,1.102493000E1
6.257230640E-1,3.098705411E-1,1.213161111E0,1.088794136E1
6.279538370E-1,5.593222976E-1,1.421336651E0,1.062772179E1
6.301793010E-1,6.155536175E-1,1.508076429E0,1.028016472E1
6.324186810E-1,3.888336718E-1,1.097707391E0,9.783055305E0
6.346684370E-1,2.135594189E-1,5.868397355E-1,9.209974289E0
6.369043380E-1,2.398804724E-1,5.407779217E-1,8.761918068E0
6.391328540E-1,9.930214286E-2,5.114658475E-1,8.312665939E0
6.413773600E-1,-5.563312769E-2,4.917250574E-1,7.934599876E0
6.436143600E-1,-1.998006850E-1,3.332005441E-1,7.633104324E0
6.458538010E-1,-9.152546525E-1,-5.922235847E-1,7.365706444E0
6.480879930E-1,-1.086341500E0,-9.332008362E-1,7.231110096E0
6.503246260E-1,-1.055234790E0,-7.806583643E-1,7.150352478E0
6.525624800E-1,-1.046859860E0,-6.029912829E-1,7.059424877E0
6.547985030E-1,-9.379864931E-1,-3.942175210E-1,6.983452797E0
6.570361130E-1,-7.992027402E-1,-7.058826834E-2,6.970292568E0
6.592714030E-1,-5.982056856E-1,2.416750938E-1,6.971488953E0
6.615084030E-1,-3.637090325E-1,5.820540786E-1,7.039684296E0
6.637447310E-1,-1.489532143E-1,9.230313301E-1,7.146164894E0
6.659817910E-1,5.084748194E-2,1.192223907E0,7.223931789E0
6.682186080E-1,1.926222295E-1,1.423729420E0,7.262814999E0
6.704562180E-1,2.679961324E-1,1.647458434E0,7.281957626E0
6.726910190E-1,2.931207716E-1,1.747358680E0,7.305885792E0
6.749247840E-1,3.744767308E-1,1.736590981E0,7.283154011E0
6.771655070E-1,4.181457460E-1,1.783849239E0,7.283154011E0
6.794025070E-1,4.235295951E-1,1.836491346E0,7.335795879E0
6.816401170E-1,4.325026870E-1,1.864008784E0,7.426125050E0
6.838758950E-1,3.487538993E-1,1.750349760E0,7.549953461E0
6.861129560E-1,4.127619043E-2,1.281954765E0,7.414160728E0
6.883505050E-1,2.937189937E-1,1.433898926E0,7.831110477E0
6.905863440E-1,2.584248483E-1,1.366899967E0,7.978867054E0
6.928238320E-1,3.433700502E-1,1.378864050E0,8.160721779E0
6.950591840E-1,4.223332107E-1,1.366899967E0,8.423932076E0
6.972963060E-1,4.444667995E-1,1.370489120E0,8.666803360E0
6.995298870E-1,5.383850932E-1,1.386640668E0,8.949156761E0
7.017579750E-1,6.215356588E-1,1.350150228E0,9.245866776E0
7.040068160E-1,6.574280262E-1,1.325025558E0,9.494122505E0
7.062446090E-1,6.981059909E-1,1.265803218E0,9.728020668E0
7.084836230E-1,7.244270444E-1,1.225723386E0,9.966704369E0
7.107179360E-1,7.417750359E-1,1.210170031E0,1.018624592E1
7.129532880E-1,7.106683254E-1,1.176072359E0,1.037228775E1
7.151904710E-1,7.190431952E-1,1.141974568E0,1.050090218E1
7.174252120E-1,7.369893789E-1,1.083948612E0,1.055354404E1
7.196581220E-1,7.645068169E-1,1.045065284E0,1.062532902E1
7.219007370E-1,8.446664214E-1,9.625129104E-1,1.062652493E1
7.241384080E-1,1.060618639E0,1.101296663E0,1.087119102E1
7.263758950E-1,1.198205948E0,1.127617717E0,1.103450203E1
7.286119790E-1,1.264606714E0,9.978070259E-1,1.088794136E1
7.308473310E-1,1.412363529E0,8.291130662E-1,1.070369434E1
7.330843910E-1,1.622333765E0,7.214360237E-1,1.058166027E1
7.353209640E-1,1.737787485E0,7.010970116E-1,1.051107121E1
7.375580240E-1,1.770090580E0,6.616154313E-1,1.056849957E1
7.397949020E-1,1.750947952E0,6.717849374E-1,1.059721375E1
7.420326340E-1,1.764706731E0,6.520441771E-1,1.061157036E1
7.442684730E-1,1.798804402E0,6.562315822E-1,1.061695385E1
7.465060830E-1,1.899302959E0,6.406782866E-1,1.058883858E1
7.487414960E-1,2.033899307E0,6.717849374E-1,1.060917759E1
7.509781290E-1,2.139183521E0,7.034898400E-1,1.063908768E1
7.532147630E-1,2.230110645E0,7.399803996E-1,1.073480034E1
7.554527380E-1,2.248655081E0,7.489534616E-1,1.085444164E1
7.576918740E-1,2.160120726E0,7.160521746E-1,1.102074242E1
7.599264930E-1,2.072782516E0,6.831508875E-1,1.114875889E1
7.621625160E-1,1.917847395E0,6.658028960E-1,1.126600742E1
7.643993330E-1,1.764108539E0,6.340979934E-1,1.133181000E1
7.666354170E-1,1.609771490E0,6.029912829E-1,1.140180016E1
7.688724160E-1,1.455434322E0,5.712863803E-1,1.142931747E1
7.711088060E-1,1.320838094E0,5.401797295E-1,1.145623684E1
7.733460490E-1,1.200000525E0,5.078766346E-1,1.148853970E1
7.755827430E-1,1.113260746E0,4.707878530E-1,1.154536915E1
7.778177290E-1,1.049850941E0,4.193421602E-1,1.152562809E1
7.800443520E-1,1.015753269E0,3.768695593E-1,1.156810093E1
7.822941080E-1,1.004985452E0,3.194418252E-1,1.158724403E1
7.845291550E-1,1.007976532E0,2.279163599E-1,1.163510036E1
7.867695110E-1,9.924231768E-1,1.609173268E-1,1.170209885E1
7.890027880E-1,9.523434043E-1,5.144568533E-2,1.170688438E1
7.912399090E-1,9.080761671E-1,-5.264209956E-2,1.170150089E1
7.934767250E-1,8.303094506E-1,-1.704886109E-1,1.159621716E1
7.957147010E-1,8.177471161E-1,-1.980060786E-1,1.131984615E1
7.979481610E-1,7.836494446E-1,-1.806581169E-1,1.083769226E1
8.001762490E-1,7.734799385E-1,-1.824527234E-1,1.030349445E1
8.024235030E-1,7.585247755E-1,-1.609173268E-1,9.812367439E0
8.046603800E-1,7.477570772E-1,-1.393819153E-1,9.387641907E0
8.068998830E-1,7.698906660E-1,-1.142572835E-1,9.058628082E0
8.091341960E-1,7.998009920E-1,-1.328016520E-1,8.825327873E0
8.113710120E-1,8.057830334E-1,-1.178465188E-1,8.701499939E0
8.136085610E-1,8.159525394E-1,-1.178465188E-1,8.672785759E0
8.158444010E-1,7.920243144E-1,-1.076770201E-1,8.639286041E0
8.180821330E-1,8.063812256E-1,-1.034895778E-1,8.687142372E0
8.203173020E-1,7.926225066E-1,-5.084748194E-2,8.687142372E0
8.225546060E-1,7.310073376E-1,-1.615155302E-2,8.662615776E0
8.247908740E-1,6.514459848E-1,5.682953820E-2,8.595019341E0
8.270279950E-1,5.916253924E-1,1.734796464E-1,8.508278847E0
8.292648110E-1,5.647061467E-1,2.458625287E-1,8.393424034E0
8.315026040E-1,5.527420044E-1,3.708875179E-1,8.264211655E0
8.337385050E-1,5.844469070E-1,4.815555513E-1,8.116454124E0
8.359762370E-1,7.154539824E-1,5.611169338E-1,8.032107353E0
8.382123220E-1,8.805587292E-1,6.640082598E-1,7.947162151E0
8.404525560E-1,9.870393276E-1,7.010970116E-1,7.895716667E0
8.426849170E-1,1.141974568E0,7.663014531E-1,7.806583881E0
8.449220380E-1,1.329811215E0,7.968099117E-1,7.770093441E0
8.471578770E-1,1.469791293E0,8.524430394E-1,7.713861942E0
8.493966470E-1,1.590030670E0,8.745766878E-1,7.681559086E0
8.516324870E-1,1.701296926E0,9.212366939E-1,7.630113125E0
8.538700360E-1,1.869990945E0,9.948160052E-1,7.631907940E0
8.561053880E-1,2.053041935E0,1.059422255E0,7.657032490E0
8.583426920E-1,2.220539331E0,1.056431174E0,7.649255753E0
8.605790210E-1,2.367697954E0,9.870393276E-1,7.703094482E0
8.628160810E-1,2.500499725E0,9.320043921E-1,7.785646915E0
8.650528970E-1,2.259422779E0,4.438686073E-1,7.698308468E0
8.672906900E-1,2.390429735E0,3.212364316E-1,7.828119278E0
8.695265300E-1,2.703291416E0,6.161518097E-1,8.183453560E0
8.717640790E-1,2.911466837E0,7.992027402E-1,8.266005516E0
8.739993700E-1,3.197409153E0,1.090528965E0,8.411369324E0
8.762364910E-1,3.421138287E0,1.416550994E0,8.565707207E0
8.784730630E-1,3.592225075E0,1.728814363E0,8.733802795E0
8.807101240E-1,3.709473372E0,2.027318954E0,8.938986778E0
8.829463910E-1,3.720839262E0,2.251047850E0,9.172286987E0
8.851793010E-1,3.625724554E0,2.437688112E0,9.390632629E0
8.874086100E-1,3.419343472E0,2.559123755E0,9.636494637E0
8.896581220E-1,3.251846075E0,2.670988321E0,9.835099220E0
8.918940840E-1,3.123231649E0,2.805584431E0,9.991230965E0
8.941337080E-1,2.969492912E0,2.807977438E0,1.003250694E1
8.963668010E-1,2.825325251E0,2.696112871E0,9.936196327E0
8.986038620E-1,2.761915445E0,2.568096876E0,9.797411919E0
9.008407390E-1,2.752344131E0,2.478366137E0,9.635298729E0
9.030788370E-1,2.800798893E0,2.407179594E0,9.425926208E0
9.053146770E-1,2.848655462E0,2.311466694E0,9.264410973E0
9.075521650E-1,2.895913601E0,2.196611166E0,9.122037888E0
9.097872110E-1,2.919243574E0,2.081755638E0,9.031708717E0
9.120245160E-1,2.918645382E0,1.991426587E0,8.970093727E0
9.142608440E-1,2.893520832E0,1.915454507E0,8.955737114E0
9.164980270E-1,2.839682341E0,1.825125456E0,8.945567131E0
9.187320960E-1,2.766701221E0,1.773679733E0,8.964112282E0
9.209579260E-1,2.703889608E0,1.741376638E0,8.963513374E0
9.231967570E-1,2.589034081E0,1.709671736E0,8.943773270E0
9.254461470E-1,2.511267424E0,1.671984792E0,8.990432739E0
9.276842450E-1,2.419741869E0,1.663609982E0,9.047262192E0
9.299216110E-1,2.328216314E0,1.622333765E0,9.037093163E0
9.321551310E-1,2.283949137E0,1.584646821E0,9.074779510E0
9.343920700E-1,2.287538528E0,1.550549030E0,9.155537605E0
9.366260780E-1,2.310270309E0,1.506880045E0,9.236893654E0
9.388545940E-1,2.380858421E0,1.485942841E0,9.381061554E0
9.411025190E-1,2.450848579E0,1.445264935E0,9.562915802E0
9.433402510E-1,2.525026083E0,1.400399446E0,9.759127617E0
9.455785330E-1,2.623729944E0,1.383649707E0,9.969695091E0
9.478097330E-1,2.664407969E0,1.333998680E0,1.021316528E1
9.500381880E-1,2.700300455E0,1.313061476E0,1.046620655E1
9.522860520E-1,2.654238462E0,1.235892892E0,1.067139053E1
9.545232340E-1,2.691327333E0,1.220339537E0,1.086221886E1
9.567607220E-1,2.680559635E0,1.243669510E0,1.102911758E1
9.589850260E-1,2.656033039E0,1.238883972E0,1.111944675E1
9.612339890E-1,2.592025042E0,1.153340459E0,1.118584728E1
9.634663490E-1,2.436491728E0,9.649057388E-1,1.109432220E1
9.656976730E-1,2.600399971E0,1.214357495E0,1.138146114E1
9.679403480E-1,2.641077995E0,1.380658627E0,1.145743275E1
9.701683760E-1,2.452044964E0,1.155135155E0,1.127019501E1
9.724199630E-1,2.558525562E0,1.372283816E0,1.151904774E1
9.746549480E-1,2.569891453E0,1.581655741E0,1.169970608E1
9.768937790E-1,2.452044964E0,1.669592023E0,1.164586735E1
9.791283980E-1,2.264208317E0,1.600798368E0,1.160160065E1
9.813636270E-1,2.057229280E0,1.489532113E0,1.154716396E1
9.836006880E-1,1.854437590E0,1.368694544E0,1.149811077E1
9.858370160E-1,1.691725612E0,1.314257860E0,1.139163017E1
9.880740770E-1,1.586441398E0,1.259222865E0,1.128096199E1
9.903109540E-1,1.505085468E0,1.203589797E0,1.113739300E1
9.925487470E-1,1.495514154E0,1.132403374E0,1.100877857E1
9.947846480E-1,1.486541033E0,1.094716311E0,1.088973618E1
9.970224410E-1,1.515853167E0,1.076171994E0,1.077547836E1
9.992576700E-1,1.569093466E0,1.046859860E0,1.064746284E1
1.001494548E0,1.531406522E0,1.033699393E0,1.054217815E1
1.003730998E0,1.542174220E0,1.039083242E0,1.044646549E1
1.005965006E0,1.514058471E0,1.058824062E0,1.037468052E1
1.008190592E0,1.457827210E0,1.083948612E0,1.028853893E1
1.010430827E0,1.368096352E0,1.133599758E0,1.019222832E1
1.012678691E0,1.301695466E0,1.139581800E0,1.010130119E1
1.014918987E0,1.294517040E0,1.217348576E0,9.929018021E0
1.017154216E0,1.316052437E0,1.294517040E0,9.786046028E0
1.019388530E0,1.327418327E0,1.366301775E0,9.695717812E0
1.021624919E0,1.324427366E0,1.453041553E0,9.609575272E0
1.023862284E0,1.330409408E0,1.529013634E0,9.604789734E0
1.026099101E0,1.350748420E0,1.619940877E0,9.600004196E0
1.028336894E0,1.371685624E0,1.719841242E0,9.623932838E0
1.030572673E0,1.391426325E0,1.805384636E0,9.638289452E0
1.032810222E0,1.378864050E0,1.877767563E0,9.590433121E0
1.035045573E0,1.402792215E0,1.881955028E0,9.590433121E0
1.037282878E0,1.394417405E0,1.930409670E0,9.556933403E0
1.039519206E0,1.418345571E0,1.929811478E0,9.547960281E0
1.041756266E0,1.380060434E0,1.931007862E0,9.489934921E0
1.043993083E0,1.366301775E0,1.940579176E0,9.437292099E0
1.046230876E0,1.338186026E0,1.960319996E0,9.394221306E0
1.048466655E0,1.314856052E0,1.946561217E0,9.336793900E0
1.050702555E0,1.310668588E0,1.961516380E0,9.251250267E0
1.052934733E0,1.296311617E0,1.919043779E0,9.165108681E0
1.055180766E0,1.287338614E0,1.924427629E0,9.102895737E0
1.057413005E0,1.253839016E0,1.887338877E0,9.021539688E0
1.059651530E0,1.249053478E0,1.853839397E0,8.955139160E0
1.061886150E0,1.235294700E0,1.830509305E0,8.864211082E0
1.064124980E0,1.177268744E0,1.755733609E0,8.792427063E0
1.066360820E0,1.051047325E0,1.600200176E0,8.696115494E0
1.068598307E0,1.026520967E0,1.509871125E0,8.619544983E0
1.070833598E0,1.006181955E0,1.424327731E0,8.581260681E0
1.073070659E0,6.652047038E-1,9.373882413E-1,8.474181175E0
1.075307048E0,8.823533654E-1,1.082154036E0,8.523832321E0
1.077544352E0,1.018146038E0,1.214357495E0,8.501100540E0
1.079781230E0,1.149751306E0,1.303490162E0,8.392227173E0
1.082019023E0,1.353739381E0,1.458425403E0,8.331808090E0
1.084254801E0,1.500299811E0,1.624128342E0,8.309076309E0
1.086491251E0,1.656431437E0,1.794018745E0,8.276773453E0
1.088720195E0,1.735394597E0,1.945963025E0,8.263014793E0
1.090952556E0,1.750947952E0,2.045863390E0,8.282156944E0
1.093201335E0,1.757528186E0,2.179263115E0,8.315058708E0
1.095439494E0,1.689332843E0,2.156531334E0,8.347960472E0
1.097678264E0,1.578066587E0,2.067398787E0,8.342576027E0
1.099912761E0,1.567298889E0,1.957927108E0,8.304290771E0
1.102148844E0,1.566102386E0,1.852642894E0,8.237890244E0
1.104386332E0,1.685145378E0,1.774876237E0,8.200801849E0
1.106621501E0,1.833500385E0,1.715055585E0,8.164310455E0
1.108855815E0,1.972284079E0,1.708475351E0,8.117650986E0
1.111080363E0,2.125424623E0,1.696511269E0,8.100302696E0
1.113320353E0,2.250449657E0,1.699502230E0,8.063214302E0
1.115569499E0,2.341377020E0,1.683948994E0,8.040482521E0
1.117808879E0,2.385046005E0,1.693520188E0,8.002197266E0
1.120042277E0,2.390429735E0,1.712662816E0,7.945367813E0
1.122280314E0,2.351546526E0,1.607976794E0,7.892725468E0
1.124515544E0,2.269592285E0,1.576271892E0,7.868198872E0
1.126753703E0,2.280359983E0,1.633699656E0,7.805985451E0
1.128984477E0,2.058425665E0,1.436890006E0,7.622934818E0
1.131207682E0,1.957328916E0,1.324427366E0,7.508079052E0
1.133463053E0,2.039881229E0,1.380658627E0,7.499105930E0
1.135700847E0,2.033899307E0,1.308874011E0,7.503891945E0
1.137938456E0,1.609173179E0,7.178468108E-1,7.410571575E0
1.140164775E0,1.873580098E0,8.991031051E-1,7.665407181E0
1.142395854E0,2.066800594E0,1.138983607E0,7.876574039E0
1.144632487E0,2.266601324E0,1.469791293E0,8.059026718E0
1.146869182E0,2.547159672E0,1.733001828E0,8.199604988E0
1.149108806E0,2.702095032E0,1.897508383E0,8.248059273E0
1.151345500E0,2.848655462E0,2.063211441E0,8.210970879E0
1.153582927E0,2.941975355E0,2.205584288E0,8.169096947E0
1.155818949E0,2.862414122E0,2.325823545E0,8.206185341E0
1.158056620E0,2.689532757E0,2.342573404E0,8.280961037E0
1.160292399E0,2.472383976E0,2.306680918E0,8.421539307E0
1.162529155E0,2.268395901E0,2.203789711E0,8.572885513E0
1.164769206E0,2.121237278E0,2.104487419E0,8.790632248E0
1.167017131E0,2.036292076E0,1.961516380E0,8.961718559E0
1.169254130E0,1.986042738E0,1.861017823E0,9.128618240E0
1.171492716E0,1.993221283E0,1.788634896E0,9.266803741E0
1.173728923E0,2.015953064E0,1.740180254E0,9.372088432E0
1.175962321E0,2.071586132E0,1.690529227E0,9.482755661E0
1.178197673E0,2.113460541E0,1.689332843E0,9.630513191E0
1.180433939E0,2.136192322E0,1.688136339E0,9.788438797E0
1.182671306E0,2.154138565E0,1.686939955E0,9.960124016E0
1.184908366E0,2.114058733E0,1.667797327E0,1.015513897E1
1.187145182E0,2.063809633E0,1.619940877E0,1.034058285E1
1.189382975E0,2.014158487E0,1.590628862E0,1.052662468E1
1.191618815E0,1.963909149E0,1.552343726E0,1.069771194E1
1.193856364E0,1.895713687E0,1.533799291E0,1.084487057E1
1.196091716E0,1.865205288E0,1.495514154E0,1.099741268E1
1.198326884E0,1.830509305E0,1.485344648E0,1.114935684E1
1.200556743E0,1.853839397E0,1.503889084E0,1.124507046E1
1.202802165E0,1.891526341E0,1.521835208E0,1.133599758E1
1.205039225E0,1.962712765E0,1.525424480E0,1.141795158E1
1.207279154E0,2.039283037E0,1.529013634E0,1.143290615E1
1.209512980E0,2.120639086E0,1.541576028E0,1.146221828E1
1.211750712E0,2.184048891E0,1.593619823E0,1.141974640E1
1.213986003E0,2.208575249E0,1.616949916E0,1.143888855E1
1.216223002E0,2.213959217E0,1.650449395E0,1.142453194E1
1.218459086E0,2.186441660E0,1.703689694E0,1.137667561E1
1.220696391E0,2.163111687E0,1.728216171E0,1.130489063E1
1.222933268E0,2.121237278E0,1.777269006E0,1.124207878E1
1.225171122E0,2.088934183E0,1.816152334E0,1.116072273E1
1.227406901E0,2.022533417E0,1.808375716E0,1.106979561E1
1.229644450E0,1.956132531E0,1.790429592E0,1.096929741E1
1.231879741E0,1.928016901E0,1.801197290E0,1.087837029E1
1.234116801E0,1.924427629E0,1.820937991E0,1.076351452E1
1.236353129E0,1.906481385E0,1.859821439E0,1.063968563E1
1.238590251E0,1.902294040E0,1.836491346E0,1.052004433E1
1.240827311E0,1.883749604E0,1.804188251E0,1.039621639E1
1.243064860E0,1.893320918E0,1.761117458E0,1.031545830E1
1.245300761E0,1.898704767E0,1.718644857E0,1.019162941E1
1.247538432E0,1.903490424E0,1.661815286E0,1.010070229E1
1.249773601E0,1.926820397E0,1.590030670E0,1.000558758E1
1.252010905E0,1.932204247E0,1.556531072E0,9.934401512E0
1.254247233E0,1.926820397E0,1.490130305E0,9.877572060E0
1.256484599E0,1.931007862E0,1.427916884E0,9.829715729E0
1.258721354E0,1.868196249E0,1.372283816E0,9.772287369E0
1.260955973E0,1.877767563E0,1.343569875E0,9.710074425E0
1.263183024E0,1.992623091E0,1.308275819E0,9.668199539E0
1.265432536E0,2.069193363E0,1.293320656E0,9.640682220E0
1.267667888E0,2.098505497E0,1.297508121E0,9.569496155E0
1.269907939E0,2.080559254E0,1.289133191E0,9.459425926E0
1.272141521E0,2.052443504E0,1.304088354E0,9.344570160E0
1.274378581E0,2.044667006E0,1.300499082E0,9.163313866E0
1.276612406E0,2.055434704E0,1.296311617E0,8.991629601E0
1.278840861E0,2.037488461E0,1.297508121E0,8.796015739E0
1.281088481E0,2.000399828E0,1.265803218E0,8.614759445E0
1.283326274E0,2.011167526E0,1.232901812E0,8.409575462E0
1.285564678E0,2.146361828E0,1.198804140E0,8.196614265E0
1.287799784E0,2.243869543E0,1.183848977E0,7.963912010E0
1.290038249E0,2.317448616E0,1.169492126E0,7.759325504E0
1.292272441E0,2.323430777E0,1.155733347E0,7.573882103E0
1.294509501E0,2.295913219E0,1.133599758E0,7.344769001E0
1.296743815E0,2.234896421E0,1.087537885E0,7.143772125E0
1.298972148E0,2.130210400E0,1.037288666E0,6.966702938E0
1.301220622E0,1.990828395E0,9.349954724E-1,6.817749977E0
1.303455913E0,1.822732687E0,8.380861282E-1,6.653841496E0
1.305695780E0,1.630708575E0,6.699903607E-1,6.437889099E0
1.307926554E0,1.448255897E0,5.300102234E-1,6.183651924E0
1.310154460E0,1.299900889E0,3.667000830E-1,5.901299000E0
1.312403483E0,1.155733347E0,2.027917206E-1,5.633302689E0
1.314641032E0,1.041476011E0,9.571290761E-2,5.370092392E0
1.316880168E0,9.355936646E-1,-5.982056633E-2,5.145166874E0
1.319114665E0,7.968099117E-1,-1.615155339E-1,4.962714195E0
1.321349956E0,6.664010882E-1,-2.931207716E-1,4.800002098E0
1.323586833E0,4.983053207E-1,-4.187439680E-1,4.650450706E0
1.325823649E0,2.913261652E-1,-5.443671346E-1,4.529613495E0
1.328060710E0,1.280160099E-1,-6.747759581E-1,4.361517429E0
1.330297587E0,-1.615155302E-2,-8.249256015E-1,4.160520554E0
1.332535075E0,-1.513460279E-1,-9.649057388E-1,3.973282099E0
1.334771159E0,-2.428714931E-1,-1.149153113E0,3.767499208E0
1.337008708E0,-2.823530734E-1,-1.329213023E0,3.562912941E0
1.339244060E0,-2.787638307E-1,-1.520040631E0,3.362514019E0
1.341481059E0,-2.368894368E-1,-1.710868239E0,3.187239647E0
1.343717387E0,-1.561316848E-1,-1.868794441E0,2.964108944E0
1.345954448E0,-6.520441920E-2,-1.989033818E0,2.793022156E0
1.348191325E0,2.512463741E-2,-2.109273195E0,2.660818815E0
1.350429118E0,1.058823988E-1,-2.196012974E0,2.528017044E0
1.352665019E0,1.639083475E-1,-2.253440619E0,2.361716032E0
1.354902751E0,2.362912297E-1,-2.301895380E0,2.228914261E0
1.357137797E0,2.997010350E-1,-2.306680918E0,2.081755638E0
1.359374919E0,3.200400174E-1,-2.301297188E0,1.910668850E0
1.361611430E0,3.218346536E-1,-2.314457655E0,1.686341763E0
1.363848552E0,3.242274821E-1,-2.298904419E0,1.433898926E0
1.366082438E0,3.361915946E-1,-2.259422779E0,1.176072359E0
1.368311992E0,3.625126183E-1,-2.239681959E0,9.475577474E-1
1.370562175E0,3.840480447E-1,-2.210369825E0,6.951149702E-1
1.372796611E0,5.958128572E-1,-2.255833626E0,5.012963414E-1
1.375035137E0,8.440681696E-1,-2.364108801E0,3.607180119E-1
1.377268412E0,8.201399446E-1,-2.401197433E0,3.032902777E-1
1.379505534E0,8.255237937E-1,-2.420340061E0,2.273181528E-1
1.381742534E0,9.242277741E-1,-2.636292458E0,2.811566554E-2
1.383979411E0,9.577272534E-1,-2.760120869E0,-1.525424421E-1
1.386217204E0,1.029511929E0,-2.784647465E0,-1.710868180E-1
1.388452983E0,1.130010486E0,-2.772084951E0,-1.890329868E-1
1.390690409E0,1.188036442E0,-2.743969440E0,-1.932204217E-1
1.392926188E0,1.312463164E0,-2.751147747E0,-1.776670814E-1
1.395163188E0,1.455434322E0,-2.753540754E0,-1.238285750E-1
1.397399394E0,1.617548108E0,-2.813361168E0,-8.434699476E-2
1.399636638E0,1.793420553E0,-2.864208698E0,-4.905286431E-2
1.401873698E0,1.911865234E0,-2.923431158E0,4.247260094E-2
1.404111003E0,2.024327993E0,-3.031108141E0,1.298106313E-1
1.406345866E0,2.069193363E0,-3.218944550E0,2.446661144E-1
1.408584575E0,2.150549412E0,-3.468994617E0,3.367897868E-1
1.410819926E0,2.184048891E0,-3.751945972E0,4.277170599E-1
1.413057292E0,2.213361025E0,-4.039682865E0,4.761717021E-1
1.415293376E0,2.218146563E0,-4.298706055E0,5.724828243E-1
1.417530681E0,2.243271112E0,-4.543372154E0,6.346961856E-1
1.419767558E0,2.282154560E0,-4.769493580E0,7.645068169E-1
1.422005351E0,2.306680918E0,-4.971088886E0,8.841479421E-1
1.424241130E0,2.322234392E0,-5.148756027E0,1.013360381E0
1.426478679E0,2.304886341E0,-5.278566837E0,1.165902853E0
1.428713969E0,2.254637241E0,-5.374279499E0,1.328016520E0
1.430951091E0,2.252842426E0,-5.427519798E0,1.461416483E0
1.433187663E0,2.242074728E0,-5.446662426E0,1.551745534E0
1.435424723E0,2.288734913E0,-5.462215900E0,1.685743570E0
1.437661601E0,2.282752752E0,-5.449055195E0,1.828714728E0
1.439899333E0,2.402393818E0,-5.394020557E0,2.001596212E0
1.442135173E0,2.539981127E0,-5.377869129E0,2.164906263E0
1.444373027E0,2.730210543E0,-5.358128071E0,2.404786825E0
1.446609233E0,2.996412039E0,-5.372485161E0,2.598007202E0
1.448845134E0,3.257229805E0,-5.425725460E0,2.848655462E0
1.451081645E0,3.567100286E0,-5.440680504E0,3.052045345E0
1.453318156E0,3.943371773E0,-5.471189022E0,3.236292601E0
1.455555400E0,4.300500393E0,-5.482554913E0,3.482753277E0
1.457795878E0,4.638486862E0,-5.513063431E0,3.757927895E0
1.460039286E0,4.980062008E0,-5.572285652E0,4.047459602E0
1.462266826E0,5.322235584E0,-5.593223095E0,4.393820763E0
1.464502055E0,5.702096462E0,-5.624329567E0,4.712066174E0
1.466736614E0,6.053841114E0,-5.617151260E0,5.082355499E0
1.468975505E0,6.419344902E0,-5.681757450E0,5.434100151E0
1.471212870E0,6.740581512E0,-5.760720730E0,5.837889194E0
1.473449870E0,7.018746853E0,-5.809773445E0,6.293123722E0
1.475687236E0,7.235895634E0,-5.843871117E0,6.710072994E0
1.477920330E0,7.399205685E0,-5.901299000E0,7.150352478E0
1.480149028E0,7.567899704E0,-5.962913990E0,7.524230957E0
1.482396159E0,7.732406139E0,-5.995815277E0,7.864011765E0
1.484633159E0,7.897511005E0,-6.023332596E0,8.127820015E0
1.486868937E0,8.067999840E0,-6.041278839E0,8.349156380E0
1.489092753E0,8.233702660E0,-6.087938786E0,8.474779129E0
1.491343913E0,8.419744492E0,-6.142973900E0,8.467002869E0
1.493581279E0,8.734400749E0,-6.333801746E0,8.336593628E0
1.495820841E0,9.087940216E0,-6.534200668E0,8.111070633E0
1.498051859E0,9.352945328E0,-6.565307140E0,7.861020565E0
1.500278544E0,9.574281693E0,-6.658029079E0,7.539186001E0
1.502527446E0,9.790832520E0,-6.784250259E0,7.211967468E0
1.504763591E0,9.997213364E0,-6.920042992E0,6.923632145E0
1.507003825E0,1.018923664E1,-7.036095142E0,6.667600155E0
1.509237651E0,1.032802105E1,-7.137789726E0,6.502495766E0
1.511475322E0,1.057627583E1,-7.241877556E0,6.433103561E0
1.513711283E0,1.087657547E1,-7.356134892E0,6.421737671E0
1.515945658E0,1.124686432E1,-7.491927624E0,6.554539204E0
1.518172282E0,1.171765232E1,-7.643273830E0,6.759125710E0
1.520421306E0,1.222014523E1,-7.853243828E0,7.045666218E0
1.522657939E0,1.276989651E1,-8.082955360E0,7.351349354E0
1.524897990E0,1.331426334E1,-8.355736732E0,7.685746193E0
1.527132060E0,1.383948803E1,-8.604590416E0,8.072785378E0
1.529369548E0,1.429891014E1,-8.795417786E0,8.425128937E0
1.531605387E0,1.469671631E1,-8.931808472E0,8.734400749E0
1.533842875E0,1.507777405E1,-8.972486496E0,8.995218277E0
1.536078227E0,1.547378540E1,-8.970093727E0,9.213563919E0
1.538315348E0,1.578485298E1,-8.874979019E0,9.364311218E0
1.540551860E0,1.609651756E1,-8.813364029E0,9.462417603E0
1.542788676E0,1.635554123E1,-8.774480820E0,9.526425362E0
1.545025614E0,1.658644867E1,-8.687142372E0,9.566504478E0
1.547263591E0,1.663310814E1,-8.702695847E0,9.676574707E0
1.549499491E0,1.611745453E1,-8.974879265E0,1.016829967E1
1.551737040E0,1.646261978E1,-8.754141808E0,9.966106415E0
1.553972270E0,1.683649826E1,-8.581260681E0,9.602396965E0
1.556209391E0,1.750230217E1,-8.657830238E0,9.531808853E0
1.558445964E0,1.765245056E1,-8.376075745E0,9.208778381E0
1.560682963E0,1.767518234E1,-7.963912010E0,8.864809990E0
1.562919657E0,1.766501236E1,-7.574480057E0,8.487341881E0
1.565157634E0,1.756810379E1,-7.216753006E0,8.061419487E0
1.567393473E0,1.743709755E1,-6.859624386E0,7.721040249E0
1.569631083E0,1.724387550E1,-6.500700951E0,7.360920429E0
1.571866313E0,1.695255089E1,-6.265007973E0,7.043273449E0
1.574103373E0,1.676291847E1,-6.020939827E0,6.621538639E0
1.576336711E0,1.635135269E1,-5.874379635E0,6.241079807E0
1.578564860E0,1.615633774E1,-5.649454117E0,5.818746567E0
1.580813945E0,1.565504169E1,-5.669195175E0,5.585446358E0
1.583051738E0,1.548814297E1,-5.808577061E0,5.250451088E0
1.585290568E0,1.420200062E1,-6.540780544E0,5.364109993E0
1.587525004E0,1.399023533E1,-6.483353138E0,5.047060966E0
1.589760112E0,1.364148235E1,-6.446264267E0,4.362115860E0
1.591997416E0,1.312463188E1,-6.454041004E0,3.656233072E0
1.594230754E0,1.310668564E1,-6.284150600E0,3.178864956E0
1.596458903E0,1.322333622E1,-6.025725842E0,2.836092949E0
1.598707682E0,1.330588818E1,-5.786443233E0,2.531606436E0
1.600945475E0,1.331127262E1,-5.508277893E0,2.368894339E0
1.603184367E0,1.331546021E1,-5.273781300E0,2.273181438E0
1.605419169E0,1.325205040E1,-5.085346222E0,2.167299032E0
1.607651530E0,1.304985619E1,-4.885545731E0,2.031506538E0
1.609876872E0,1.279502106E1,-4.718048096E0,1.828714728E0
1.612116130E0,1.242473125E1,-4.620540619E0,1.591825247E0
1.614365153E0,1.213520050E1,-4.572085857E0,1.335793257E0
1.616602396E0,1.183191013E1,-4.499104977E0,1.056431174E0
1.618832439E0,1.154237843E1,-4.441078663E0,7.914260626E-1
1.621075419E0,1.126959610E1,-4.281956196E0,5.024927258E-1
1.623313334E0,1.113619614E1,-4.096512318E0,1.100698411E-1
1.625550761E0,1.053799057E1,-4.073182583E0,1.046859920E-1
1.627782206E0,9.849455833E0,-4.116851330E0,4.414757788E-1
1.630007426E0,9.282955170E0,-4.095315933E0,6.460621357E-1
1.632255290E0,8.721838951E0,-4.119842529E0,6.125625968E-1
1.634495768E0,8.223533630E0,-4.211966038E0,4.510470629E-1
1.636736124E0,7.868198872E0,-4.368695736E0,3.188436031E-1
1.638964274E0,7.597810268E0,-4.531407833E0,2.213360965E-1
1.641192545E0,7.427919865E0,-4.738985062E0,1.770688742E-1
1.643427775E0,7.294519901E0,-4.986044407E0,1.956132501E-1
1.645669292E0,7.228118896E0,-5.219344616E0,3.002992272E-1
1.647916606E0,7.228717327E0,-5.449653625E0,3.960121572E-1
1.650145183E0,7.249056339E0,-5.646463394E0,5.300102234E-1
1.652392619E0,7.254439831E0,-5.829514027E0,6.879364848E-1
1.654627482E0,7.246663570E0,-5.958726406E0,8.261220455E-1
1.656866130E0,7.225726128E0,-6.035895348E0,9.499505758E-1
1.659100993E0,7.204190731E0,-6.089135647E0,1.116850019E0
1.661336345E0,7.179664135E0,-6.084349632E0,1.235892892E0
1.663573649E0,7.155138016E0,-6.046064377E0,1.374078393E0
1.665809978E0,7.134799004E0,-6.051448345E0,1.502692580E0
1.668047038E0,7.148557663E0,-5.995217323E0,1.650449395E0
1.670283854E0,7.157530785E0,-5.981458187E0,1.802991867E0
1.672521647E0,7.185048103E0,-5.997011662E0,1.913061738E0
1.674757548E0,7.202396393E0,-6.050251961E0,2.070389748E0
1.676995341E0,7.223931789E0,-6.142375946E0,2.185245275E0
1.679230632E0,7.235895634E0,-6.253043652E0,2.290529490E0
1.681464701E0,7.252047062E0,-6.397211552E0,2.429313183E0
1.683691997E0,7.262814999E0,-6.537191391E0,2.591426849E0
1.685941020E0,7.293323517E0,-6.690930367E0,2.744567633E0
1.688177897E0,7.356733322E0,-6.826723099E0,2.912663460E0
1.690418681E0,7.473981380E0,-6.911069870E0,3.109472990E0
1.692651591E0,7.696514130E0,-7.006184578E0,3.282952785E0
1.694889323E0,7.942376614E0,-7.106683254E0,3.504886866E0
1.697124431E0,8.279166222E0,-7.217949390E0,3.713062525E0
1.699361796E0,8.648857117E0,-7.368099213E0,3.964907169E0
1.701598247E0,9.051449776E0,-7.537989616E0,4.183252335E0
1.703835124E0,9.425328255E0,-7.764709473E0,4.387240410E0
1.706071940E0,9.774680138E0,-8.005187988E0,4.610371113E0
1.708309611E0,1.007497978E1,-8.307282448E0,4.852046013E0
1.710545329E0,1.035194874E1,-8.561519623E0,5.088935375E0
1.712783061E0,1.061396313E1,-8.848658562E0,5.339583874E0
1.715018168E0,1.085264683E1,-9.083154678E0,5.647659779E0
1.717255595E0,1.110628605E1,-9.303893089E0,5.898307800E0
1.719488200E0,1.134138107E1,-9.509077072E0,6.114858150E0
1.721710002E0,1.169970608E1,-9.769296646E0,6.385845661E0
1.723951640E0,1.193480110E1,-9.941579819E0,6.588637352E0
1.726203776E0,1.201496029E1,-1.002413273E1,6.594020844E0
1.728443522E0,1.203350544E1,-1.005763149E1,6.608976364E0
1.730680827E0,1.203290653E1,-1.009591675E1,6.594619274E0
1.732912761E0,1.200060368E1,-1.007617569E1,6.522834301E0
1.735149821E0,1.192463207E1,-1.005045319E1,6.445665836E0
1.737386149E0,1.180259800E1,-9.994820595E0,6.253642082E0
1.739623210E0,1.166022491E1,-9.978070259E0,6.109474182E0
1.741860270E0,1.147537899E1,-9.945767403E0,5.950351715E0
1.744097819E0,1.127019501E1,-9.970293999E0,5.791228771E0
1.746333659E0,1.113260746E1,-9.943972588E0,5.632106304E0
1.748571147E0,1.101476097E1,-9.955338478E0,5.411966801E0
1.750806499E0,1.091067314E1,-9.976275444E0,5.177470207E0
1.753043620E0,1.081137085E1,-1.000738239E1,4.938187599E0
1.755280192E0,1.071745300E1,-1.005703354E1,4.607978344E0
1.757517375E0,1.068514919E1,-1.011745262E1,4.350749969E0
1.759750346E0,1.062054348E1,-1.010070229E1,4.087539196E0
1.761973490E0,1.068455124E1,-1.009053326E1,3.850051641E0
1.764222575E0,1.081675434E1,-1.002951622E1,3.655634880E0
1.766465129E0,1.101535892E1,-9.955338478E0,3.513859987E0
1.768704814E0,1.118524933E1,-9.847661972E0,3.415156126E0
1.770938945E0,1.134197903E1,-9.667601585E0,3.287738323E0
1.773174296E0,1.147956657E1,-9.468399048E0,3.245863914E0
1.775411540E0,1.165424252E1,-9.256634712E0,3.323032379E0
1.777648112E0,1.185763264E1,-9.044869423E0,3.463012457E0
1.779885661E0,1.212742329E1,-8.834898949E0,3.646661758E0
1.782121684E0,1.241635704E1,-8.657830238E0,3.787240028E0
1.784359294E0,1.266640663E1,-8.523832321E0,3.941577196E0
1.786594707E0,1.283928776E1,-8.416753769E0,4.028914928E0
1.788831889E0,1.300319672E1,-8.343173981E0,4.054039955E0
1.791067973E0,1.313898945E1,-8.292326927E0,3.974478483E0
1.793305095E0,1.331127262E1,-8.341978073E0,3.856631994E0
1.795542155E0,1.328375530E1,-8.335995674E0,3.756133318E0
1.797778422E0,1.324188042E1,-8.325227737E0,3.622135162E0
1.800009501E0,1.317607784E1,-8.309076309E0,3.478565931E0
1.802248881E0,1.305224895E1,-8.273782730E0,3.439084291E0
1.804470805E0,1.290509033E1,-8.223533630E0,3.333201885E0
1.806727336E0,1.278664589E1,-8.149953842E0,3.351148129E0
1.808962260E0,1.272981644E1,-8.076972961E0,3.349951744E0
1.811203594E0,1.269093323E1,-8.069195747E0,2.858824968E0
1.813436259E0,1.252283764E1,-7.917252064E0,2.547159672E0
1.815673991E0,1.216032505E1,-7.547560692E0,2.447857618E0
1.817906901E0,1.188275719E1,-7.189833641E0,2.449054003E0
1.820135417E0,1.169970608E1,-6.895516872E0,2.484946251E0
1.822382670E0,1.148375416E1,-6.604788780E0,2.440080881E0
1.824619731E0,1.121635628E1,-6.303891182E0,2.298306227E0
1.826859111E0,1.093878841E1,-6.064010620E0,2.105085611E0
1.829093425E0,1.060319519E1,-5.837889194E0,1.905883193E0
1.831330302E0,1.036331463E1,-5.651846886E0,1.712662816E0
1.833568095E0,1.013599682E1,-5.566303730E0,1.533799291E0
1.835803935E0,9.989436150E0,-5.529813290E0,1.356132269E0
1.838038737E0,9.812965393E0,-5.535795212E0,1.230509043E0
1.840265056E0,9.707681656E0,-5.619544029E0,1.043868899E0
1.842514079E0,9.720842361E0,-5.743970871E0,9.870393276E-1
1.844750346E0,9.774680138E0,-5.931209087E0,1.073779106E0
1.846990398E0,9.709476471E0,-6.074778557E0,1.182652593E0
1.849223613E0,9.691530228E0,-6.261418819E0,1.363908887E0
1.851459391E0,9.530612946E0,-6.379265308E0,1.472782373E0
1.853697978E0,9.275178909E0,-6.471388817E0,1.523031592E0
1.855935710E0,9.038289070E0,-6.568298340E0,1.592423439E0
1.858171488E0,8.876773834E0,-6.729215622E0,1.724626899E0
1.860408122E0,8.654241562E0,-6.831508636E0,1.799402595E0
1.862644389E0,8.385646820E0,-6.889534473E0,1.758724689E0
1.864881511E0,8.164310455E0,-6.943373203E0,1.780260086E0
1.867118327E0,7.705487251E0,-7.021139622E0,1.504487276E0
1.869356120E0,7.217949390E0,-7.160521984E0,1.104885817E0
1.871591960E0,7.642077446E0,-7.213762283E0,1.875972986E0
1.873829509E0,7.973483086E0,-7.309474945E0,2.818745136E0
1.876064860E0,8.092526436E0,-7.418348312E0,3.296711445E0
1.878302165E0,8.117053032E0,-7.578069210E0,3.550350666E0
1.880538493E0,8.127222061E0,-7.675576687E0,3.932005882E0
1.882775554E0,7.864609718E0,-7.773682594E0,4.239483356E0
1.885011027E0,7.499704361E0,-7.929814339E0,4.074378967E0
1.887244731E0,7.215556622E0,-7.963912010E0,4.143172264E0
1.889485820E0,7.019345284E0,-7.904091358E0,4.213162422E0
1.891723796E0,6.873981476E0,-7.884350777E0,4.517050743E0
1.893960246E0,6.833901405E0,-7.939385414E0,5.188836098E0
1.896196269E0,6.805187702E0,-7.887341499E0,5.307878971E0
1.898432475E0,6.741777897E0,-7.808378696E0,5.006382942E0
1.900669597E0,6.829713821E0,-7.732406139E0,4.873581409E0
1.902906413E0,6.904489517E0,-7.589435101E0,4.788636208E0
1.905144206E0,7.033103943E0,-7.554141045E0,4.970490932E0
1.907380107E0,6.836294174E0,-7.562515736E0,4.382454872E0
1.909617839E0,6.770491600E0,-7.482356548E0,3.757329702E0
1.911852885E0,6.982256413E0,-7.390232563E0,3.854238987E0
1.914089946E0,7.174280643E0,-7.264609337E0,3.979862213E0
1.916326274E0,7.352545738E0,-7.191030025E0,4.028914928E0
1.918563701E0,7.458428383E0,-7.134799004E0,4.015754700E0
1.920800761E0,7.639684677E0,-7.157530785E0,4.107878208E0
1.923038310E0,7.695915699E0,-7.177869797E0,4.237090588E0
1.925274089E0,7.668996811E0,-7.171887875E0,3.988835335E0
1.927508586E0,7.556533813E0,-7.135396957E0,3.754338741E0
1.929731120E0,7.457829952E0,-7.109076023E0,3.552743435E0
1.931968608E0,7.421339512E0,-7.060023308E0,3.428316593E0
1.934220378E0,7.347161770E0,-6.967301369E0,3.289532900E0
1.936460612E0,7.139584541E0,-6.848258495E0,3.105883837E0
1.938698100E0,6.899106026E0,-6.719046116E0,2.807977438E0
1.940932109E0,6.716054916E0,-6.604788780E0,2.525026083E0
1.943168132E0,6.547360897E0,-6.543173313E0,2.213361025E0
1.945405742E0,6.502495766E0,-6.512664795E0,1.902892232E0
1.947641093E0,6.451648235E0,-6.472585201E0,1.687538147E0
1.949879374E0,6.550352097E0,-6.434299946E0,1.440479279E0
1.952118815E0,6.576074600E0,-6.400202274E0,1.231107235E0
1.954351725E0,6.696314335E0,-6.397211552E0,1.203589797E0
1.956585795E0,6.686742783E0,-6.397211552E0,1.198804140E0
1.958814311E0,6.591030121E0,-6.390631199E0,1.164108157E0
1.961062175E0,6.299105644E0,-6.348158360E0,1.218544960E0
1.963299723E0,6.074778557E0,-6.239883423E0,1.278365493E0
1.965537822E0,6.129215240E0,-6.111867428E0,1.364507079E0
1.967771586E0,6.339783669E0,-6.025127411E0,1.518844128E0
1.970002971E0,6.500700951E0,-5.952744484E0,1.877767563E0
1.972235515E0,6.412764549E0,-5.848058701E0,2.277369022E0
1.974482585E0,6.337390900E0,-5.794219971E0,2.276770830E0
1.976718181E0,6.303293228E0,-5.803193092E0,2.261815548E0
1.978946818E0,6.187241077E0,-5.849853039E0,2.313859463E0
1.981193766E0,5.981458187E0,-5.879763603E0,2.268994093E0
1.983429118E0,5.728417397E0,-5.818746567E0,2.237887383E0
1.985669414E0,5.525625706E0,-5.657230854E0,2.130808592E0
1.987899760E0,5.562714577E0,-5.461617470E0,2.078166485E0
1.990127848E0,5.942574978E0,-5.219344616E0,2.305484533E0
1.992376628E0,6.470790863E0,-5.056632519E0,2.510071039E0
1.994614421E0,7.033103943E0,-4.966901779E0,3.035295486E0
1.996850199E0,7.462017536E0,-4.889732838E0,3.473181963E0
1.999075602E0,7.756932735E0,-4.885545731E0,3.732803345E0
2.001323100E0,8.050651550E0,-5.010570526E0,3.931407690E0
2.003560222E0,8.380861282E0,-5.175076962E0,4.235296249E0
2.005799846E0,8.145766258E0,-5.181059361E0,4.295116425E0
2.008033793E0,7.991429329E0,-5.264808178E0,4.274777889E0
2.010270426E0,8.008777618E0,-5.200201988E0,4.627718925E0
2.012508159E0,7.864609718E0,-5.093721390E0,4.850251675E0
2.014743449E0,7.944769382E0,-5.072185993E0,5.094319344E0
2.016976481E0,8.020741463E0,-5.002195835E0,5.266602516E0
2.019205241E0,8.089534760E0,-4.959722996E0,5.181059361E0
2.021454326E0,8.205587387E0,-4.936991215E0,5.076971531E0
2.023691447E0,8.116454124E0,-4.953741074E0,4.776073933E0
2.025930949E0,7.990232944E0,-4.931009293E0,4.402793884E0
2.028164958E0,7.835896015E0,-4.883750916E0,4.029513359E0
2.030402202E0,7.657032490E0,-4.865206718E0,3.708276987E0
2.032638102E0,7.549953461E0,-4.761716843E0,3.435495138E0
2.034875834E0,7.424330235E0,-4.657629490E0,3.142972469E0
2.037111247E0,7.375277519E0,-4.522434711E0,2.941975355E0
2.039348368E0,7.344769001E0,-4.339982033E0,2.884547710E0
2.041584819E0,7.248457909E0,-4.127020836E0,2.754138947E0
2.043821696E0,7.051050186E0,-3.955934048E0,2.556730986E0
2.046058818E0,6.773482800E0,-3.759124279E0,2.310868502E0
2.048296489E0,6.491129398E0,-3.561716557E0,1.983649969E0
2.050532206E0,6.248258114E0,-3.351148129E0,1.633101463E0
2.052769877E0,6.163312912E0,-3.136990547E0,1.202393413E0
2.055004985E0,6.064609051E0,-2.933002472E0,7.962117195E-1
2.057242411E0,5.926423550E0,-2.727817774E0,4.079762697E-1
2.059478923E0,5.821139336E0,-2.552543640E0,1.256231815E-1
2.061716044E0,5.682355404E0,-2.348555326E0,-1.381855011E-1
2.063952861E0,5.625525951E0,-2.145763636E0,-4.157529473E-1
2.066190593E0,5.672784328E0,-1.930409670E0,-5.682953596E-1
2.068426432E0,5.679962635E0,-1.834098577E0,-7.064808607E-1
2.070663981E0,5.654240131E0,-1.708475351E0,-8.500502706E-1
2.072899272E0,5.690730572E0,-1.588834286E0,-9.834501147E-1
2.075136210E0,5.832505226E0,-1.390229940E0,-1.025324464E0
2.077372172E0,5.950950146E0,-1.157527924E0,-9.912267923E-1
2.079609843E0,5.985047817E0,-1.048654556E0,-8.865407705E-1
2.081847148E0,5.894120216E0,-9.337990284E-1,-6.777670383E-1
2.084084819E0,5.819344521E0,-9.672985673E-1,-4.205385745E-1
2.086320536E0,5.742774487E0,-1.101894855E0,-4.426721856E-2
2.088557963E0,5.626124382E0,-1.354935765E0,3.218346536E-1
2.090793315E0,5.599802971E0,-1.643270969E0,6.658028960E-1
2.093027384E0,5.578866005E0,-1.945963025E0,9.756734371E-1
2.095254802E0,5.619544029E0,-2.353939295E0,1.182054400E0
2.097504069E0,5.621338367E0,-2.804388046E0,1.287338614E0
2.099740946E0,5.614758492E0,-3.244667530E0,1.374078393E0
2.101981792E0,5.591428280E0,-3.756731510E0,1.508076429E0
2.104214823E0,5.635695457E0,-4.241278172E0,1.757528186E0
2.106449442E0,5.635695457E0,-4.711467743E0,2.087139606E0
2.108672953E0,5.635097504E0,-5.182255745E0,2.469393015E0
2.110912761E0,5.534598827E0,-5.603392601E0,2.907877684E0
2.113161235E0,5.411368370E0,-5.958128452E0,3.355933666E0
2.115401042E0,5.245067120E0,-6.259026051E0,3.826721668E0
2.117638164E0,5.056034088E0,-6.501897335E0,4.268795490E0
2.119872661E0,4.820341110E0,-6.677769661E0,4.682155609E0
2.122108561E0,4.594817638E0,-6.790830612E0,5.128417015E0
2.124346049E0,4.375874519E0,-6.803991318E0,5.507679462E0
2.126581462E0,4.235296249E0,-6.722036839E0,5.825924873E0
2.128818705E0,4.154538155E0,-6.554539204E0,6.077769279E0
2.131054790E0,4.141975880E0,-6.349953175E0,6.248856544E0
2.133291972E0,4.222135544E0,-6.055037498E0,6.339783669E0
2.135529033E0,4.322035789E0,-5.745765209E0,6.334998131E0
2.137763163E0,4.471587181E0,-5.388636589E0,6.288337708E0
2.139988016E0,4.650450706E0,-4.984847546E0,6.217749596E0
2.142225504E0,4.881956577E0,-4.590630054E0,6.133402824E0
2.144464274E0,5.224130154E0,-4.207778454E0,5.988038540E0
2.146715984E0,5.790032387E0,-3.909274101E0,5.797211170E0
2.148949138E0,6.124429703E0,-3.445066452E0,5.613562107E0
2.151177348E0,6.349354744E0,-2.911466837E0,5.400002480E0
2.153422953E0,6.617949009E0,-2.379063845E0,5.129613400E0
2.155660807E0,6.980462074E0,-1.948355794E0,4.917848587E0
2.157896586E0,7.328617573E0,-1.483550072E0,4.705485821E0
2.160122233E0,7.623532772E0,-1.076171994E0,4.526622295E0
2.162369548E0,7.922635555E0,-6.969096065E-1,4.361517429E0
2.164606852E0,8.120043755E0,-3.738785386E-1,4.219742775E0
2.166846172E0,8.268398285E0,-9.391828626E-2,4.125226021E0
2.169080241E0,8.395816803E0,1.100698411E-1,4.121636868E0
2.171316996E0,8.545966148E0,2.273181528E-1,4.127619267E0
2.173554606E0,8.647063255E0,2.829512656E-1,4.176073551E0
2.175790690E0,8.665607452E0,2.727817893E-1,4.247858524E0
2.178025309E0,8.639286041E0,1.483550072E-1,4.295116425E0
2.180250651E0,8.541180611E0,4.426721856E-2,4.423132420E0
2.182495768E0,8.365307808E0,-1.447657645E-1,4.517649174E0
2.184737224E0,8.184051514E0,-3.529413342E-1,4.601995945E0
2.186977214E0,7.929215908E0,-6.562315822E-1,4.795814991E0
2.189212443E0,7.070192814E0,-1.397408366E0,5.442475319E0
2.191449138E0,6.096313953E0,-2.376072884E0,6.241079807E0
2.193684733E0,4.339384079E0,-3.891327858E0,7.576872826E0
2.195922343E0,4.683351994E0,-4.191029072E0,7.137191772E0
2.198158793E0,4.229912281E0,-4.703093052E0,6.618547440E0
2.200398845E0,4.145565033E0,-5.030311584E0,6.394220352E0
2.202631267E0,4.321437836E0,-5.175675392E0,6.248258114E0
2.204868327E0,4.550550461E0,-5.265406132E0,6.183651924E0
2.207104410E0,4.851448059E0,-5.322235584E0,6.200999737E0
2.209342875E0,5.143970490E0,-5.312664509E0,6.217749596E0
2.211578532E0,5.422734261E0,-5.221138954E0,6.244070530E0
2.213816264E0,5.591428280E0,-5.170889854E0,6.221937180E0
2.216051616E0,5.557928562E0,-5.184648514E0,6.193223000E0
2.218285807E0,5.409573555E0,-5.225326538E0,6.077171326E0
2.220513286E0,5.207978249E0,-5.298307419E0,5.994618893E0
2.222760905E0,4.862215519E0,-5.402395248E0,5.905486107E0
2.224994364E0,4.453640938E0,-5.572884083E0,5.778068542E0
2.227239970E0,4.016352654E0,-5.732604980E0,5.665007591E0
2.229472941E0,3.671188116E0,-5.841478348E0,5.523232937E0
2.231711833E0,3.287140131E0,-6.083153248E0,5.176871777E0
2.233945720E0,3.004188776E0,-6.244668961E0,4.878965378E0
2.236182963E0,2.846860647E0,-6.241677761E0,4.762913704E0
2.238416117E0,2.718844652E0,-6.186643124E0,4.737788677E0
2.240644694E0,2.635095835E0,-6.108277798E0,4.560719967E0
2.242893168E0,2.603989124E0,-6.020939827E0,4.383651257E0
2.245130900E0,2.592025042E0,-5.910272121E0,4.302295208E0
2.247370097E0,2.590230465E0,-5.780461311E0,4.197608948E0
2.249604655E0,2.529811859E0,-5.726622581E0,4.063013077E0
2.251839824E0,2.489133835E0,-5.619544029E0,3.900300980E0
2.254077006E0,2.371885538E0,-5.574080467E0,3.689732552E0
2.256313335E0,2.206182480E0,-5.546562672E0,3.501895905E0
2.258547831E0,2.036292076E0,-5.499902725E0,3.257229805E0
2.260776713E0,1.789831281E0,-5.484947681E0,2.940180779E0
2.263024821E0,1.548754454E0,-5.465207100E0,2.537588358E0
2.265260966E0,1.283749342E0,-5.496912003E0,2.100898266E0
2.267501323E0,1.100100160E0,-5.501697540E0,1.670190215E0
2.269733867E0,1.036092162E0,-5.541777134E0,1.202393413E0
2.271971110E0,9.822536707E-1,-5.557928562E0,7.441678643E-1
2.274207377E0,1.105484009E0,-5.618945599E0,1.686939895E-1
2.276444499E0,1.327418327E0,-5.763113499E0,-3.158525825E-1
2.278681315E0,1.568495274E0,-5.866004944E0,-6.568298340E-1
2.280919169E0,2.757129908E0,-6.123233318E0,-5.736792088E-1
2.283155253E0,3.556332588E0,-6.045466423E0,-3.373879790E-1
2.285392802E0,3.226721287E0,-5.880361557E0,-8.129615188E-1
2.287628093E0,2.127817631E0,-5.693721294E0,-1.400399446E0
2.289862101E0,2.165504456E0,-5.860022545E0,-1.680957913E0
2.292089458E0,2.648854733E0,-5.934798241E0,-1.686341763E0
2.294338603E0,2.806182861E0,-6.017949104E0,-1.798804402E0
2.296572916E0,2.967698336E0,-6.272186279E0,-2.078166485E0
2.298804484E0,3.243471146E0,-6.543173313E0,-2.270788670E0
2.301046366E0,3.753142357E0,-6.846463680E0,-2.484946251E0
2.303274943E0,4.334000111E0,-7.189235687E0,-2.660220623E0
2.305524822E0,4.900500774E0,-7.512865067E0,-2.793022156E0
2.307759135E0,5.416153908E0,-7.763513088E0,-2.988037348E0
2.309995829E0,6.047859192E0,-7.953144073E0,-3.263211966E0
2.312222392E0,6.625725746E0,-8.129016876E0,-3.372085333E0
2.314469645E0,6.883552551E0,-8.285148621E0,-3.527020693E0
2.316704264E0,7.128817081E0,-8.335995674E0,-3.710669756E0
2.318933940E0,6.917650223E0,-8.394619942E0,-3.812364578E0
2.321180827E0,7.068397999E0,-8.507082939E0,-3.696312666E0
2.323416240E0,7.223333359E0,-8.516056061E0,-3.279961586E0
2.325656413E0,7.333403111E0,-8.520841599E0,-2.706880569E0
2.327886515E0,7.526025295E0,-8.545368195E0,-2.247458696E0
2.330114604E0,7.588837147E0,-8.591429710E0,-1.774876237E0
2.332363444E0,7.662416458E0,-8.589634895E0,-1.425524116E0
2.334601603E0,7.733004570E0,-8.510671616E0,-1.072582722E0
2.336840617E0,7.697710514E0,-8.397610664E0,-6.340979934E-1
2.339074992E0,7.730013371E0,-8.361120224E0,-3.954139352E-1
2.341310405E0,8.149953842E0,-8.358727455E0,-2.009970993E-1
2.343547160E0,8.269595146E0,-8.213961601E0,7.657032460E-2
2.345783488E0,8.360522270E0,-8.072785378E0,3.200400174E-1
2.348017375E0,8.420342445E0,-7.864011765E0,4.205385745E-1
2.350245768E0,8.409575462E0,-7.567301750E0,4.773681164E-1
2.352495341E0,8.165507317E0,-7.115057945E0,6.837490797E-1
2.354731486E0,8.285746574E0,-6.649055958E0,8.512466550E-1
2.356971904E0,8.604590416E0,-6.372684956E0,1.025324464E0
2.359204265E0,9.039485931E0,-6.375077724E0,1.205982566E0
2.361441264E0,9.449256897E0,-6.491727829E0,1.219143152E0
2.363677653E0,9.778867722E0,-6.629913330E0,1.098305583E0
2.365914958E0,9.897313118E0,-6.817749977E0,9.475577474E-1
2.368151774E0,9.754341125E0,-6.957131863E0,6.029912829E-1
2.370389323E0,9.635298729E0,-7.040282249E0,3.828516304E-1
2.372625224E0,9.589237213E0,-7.259225845E0,3.589234054E-1
2.374863200E0,9.672387123E0,-7.456633568E0,3.738785386E-1
2.377098308E0,9.876974106E0,-7.588837147E0,2.763710022E-1
2.379335429E0,1.008215809E1,-7.715656757E0,1.878365725E-1
2.381571818E0,1.019462109E1,-7.851449490E0,2.506481707E-1
2.383808757E0,1.017308521E1,-7.923832417E0,3.936193287E-1
2.386045817E0,1.019940662E1,-7.958528042E0,6.275177598E-1
2.388283305E0,1.031785107E1,-7.961519241E0,7.764709592E-1
2.390519206E0,1.044766140E1,-7.996214867E0,7.256234884E-1
2.392756694E0,1.058704376E1,-8.021938324E0,6.029912829E-1
2.394992106E0,1.064028454E1,-8.021938324E0,5.126622319E-1
2.397229472E0,1.061157036E1,-7.978867054E0,5.982056856E-1
2.399465983E0,1.051645565E1,-7.906484127E0,6.544370055E-1
2.401702861E0,1.044586754E1,-7.747959614E0,7.585247755E-1
2.403939921E0,1.040518951E1,-7.603792191E0,7.579265833E-1
2.406177653E0,1.025324535E1,-7.444071293E0,8.470591903E-1
2.408413554E0,9.976275444E0,-7.316055298E0,9.343972206E-1
2.410651042E0,9.719047546E0,-7.174280643E0,1.055832982E0
2.412886394E0,9.489336014E0,-7.075576782E0,1.149153113E0
2.415123637E0,9.229715347E0,-7.063014030E0,1.337587833E0
2.417359782E0,8.997013092E0,-7.107879639E0,1.559522152E0
2.419597087E0,9.044869423E0,-7.296912670E0,1.846062660E0
2.421833842E0,8.913264275E0,-7.673782349E0,2.036292076E0
2.424068461E0,8.738588333E0,-8.120641708E0,2.121237278E0
2.426292338E0,8.590831757E0,-8.607581139E0,2.368894339E0
2.428533061E0,8.361120224E0,-9.031708717E0,2.715853691E0
2.430780253E0,7.910073280E0,-9.557532310E0,3.117847919E0
2.433020732E0,7.422535896E0,-9.915857315E0,3.533600807E0
2.435256816E0,6.964310169E0,-1.034477043E1,3.735196114E0
2.437491191E0,6.505486488E0,-1.084068298E1,3.869792461E0
2.439727946E0,6.316453457E0,-1.124507046E1,3.997808456E0
2.441965800E0,6.329614162E0,-1.153340530E1,4.241278172E0
2.444201579E0,6.425925255E0,-1.171765232E1,4.490729809E0
2.446439128E0,6.662216663E0,-1.179900837E1,4.726422787E0
2.448674418E0,6.929614544E0,-1.179900837E1,4.852644444E0
2.450911479E0,7.189235687E0,-1.172662544E1,4.883750916E0
2.453147868E0,7.434499741E0,-1.166321564E1,4.890929699E0
2.455385173E0,7.590033531E0,-1.153101254E1,4.815555573E0
2.457621989E0,7.678567886E0,-1.143649578E1,4.673182487E0
2.459859599E0,7.638488293E0,-1.132941723E1,4.520041943E0
2.462095622E0,7.622934818E0,-1.125164986E1,4.195814610E0
2.464333232E0,7.570890903E0,-1.113858986E1,3.727419376E0
2.466568706E0,7.423732281E0,-1.098544884E1,3.239881754E0
2.468805339E0,7.347760201E0,-1.086700439E1,2.776272535E0
2.471042094E0,7.282555580E0,-1.069113159E1,2.198405743E0
2.473278911E0,7.223931789E0,-1.050508976E1,1.501496196E0
2.475516154E0,7.246065140E0,-1.033519936E1,8.333004713E-1
2.477753886E0,7.444669247E0,-1.015813065E1,2.673979402E-1
2.479989970E0,7.609774113E0,-9.943374634E0,-2.321037948E-1
2.482227214E0,7.725826263E0,-9.770493507E0,-6.269195080E-1
2.484462565E0,7.827520847E0,-9.540781975E0,-9.696913958E-1
2.486699931E0,7.733004570E0,-9.284749985E0,-1.299900889E0
2.488936687E0,7.676175117E0,-9.095717430E0,-1.663011789E0
2.491173259E0,7.533204079E0,-8.876773834E0,-1.917847395E0
2.493410075E0,7.393223763E0,-8.687142372E0,-2.095514536E0
2.495647746E0,7.244868755E0,-8.449654579E0,-2.278565407E0
2.497880717E0,7.004390240E0,-8.245068550E0,-2.362314224E0
2.500109355E0,6.843472958E0,-8.061419487E0,-2.282752752E0
2.502356853E0,6.768697262E0,-7.859824181E0,-2.126621008E0
2.504593913E0,6.771090031E0,-7.593024254E0,-1.969891191E0
2.506833232E0,6.806982040E0,-7.345367432E0,-1.841277003E0
2.509067241E0,6.786045074E0,-7.082755089E0,-1.727019787E0
2.511305461E0,6.726822853E0,-6.823731899E0,-1.642672777E0
2.513544230E0,6.733402729E0,-6.614359856E0,-1.461416483E0
2.515765544E0,6.772884369E0,-6.429514408E0,-1.289731383E0
2.518012675E0,6.866802692E0,-6.211169243E0,-1.265803218E0
2.520238810E0,6.891329288E0,-5.988038540E0,-9.415757060E-1
2.522491008E0,6.697510719E0,-5.364708424E0,-6.867401004E-1
2.524724284E0,6.908677101E0,-5.295914650E0,-6.705885530E-1
2.526964092E0,7.156932354E0,-5.386243820E0,-6.873382926E-1
2.529198649E0,7.249056339E0,-5.617151260E0,-6.143572330E-1
2.531436015E0,7.339385033E0,-5.915655613E0,-4.797609448E-1
2.533672038E0,7.223333359E0,-6.230311871E0,-3.320041299E-1
2.535909282E0,6.899106026E0,-6.652047157E0,-1.154536903E-1
2.538144938E0,6.570691109E0,-7.026523590E0,1.399801224E-1
2.540381938E0,6.376872540E0,-7.402196884E0,3.870390654E-1
2.542618327E0,6.269793510E0,-7.741379261E0,5.581258535E-1
2.544855327E0,6.193223000E0,-8.022536278E0,6.197410822E-1
2.547089335E0,6.141777515E0,-8.251648903E0,7.052844763E-1
2.549315714E0,6.041877270E0,-8.442476273E0,8.763712645E-1
2.551554728E0,5.827121258E0,-8.598010063E0,1.089332461E0
2.553803874E0,5.723631859E0,-8.626125336E0,1.341177106E0
2.556041606E0,4.975276470E0,-8.388039589E0,1.925025821E0
2.558278850E0,4.870590687E0,-8.063812256E0,2.429313183E0
2.560512248E0,4.138985157E0,-6.334998131E0,4.236492634E0
2.562749431E0,3.300300598E0,-5.931209087E0,4.399802685E0
2.564986247E0,3.092125177E0,-5.659623623E0,3.314657450E0
2.567224101E0,2.988635540E0,-5.371288776E0,2.397608280E0
2.569460185E0,2.895315409E0,-5.213960648E0,1.776670814E0
2.571697734E0,2.812164783E0,-5.215157032E0,1.356132269E0
2.573931254E0,2.814557552E0,-5.194818020E0,1.070189953E0
2.576162944E0,2.829512835E0,-5.280361176E0,8.416753411E-1
2.578406413E0,2.927020311E0,-5.289932728E0,5.994020700E-1
2.580643657E0,2.974278450E0,-5.461617470E0,4.043870270E-1
2.582882060E0,2.887538671E0,-5.621936798E0,1.704886109E-1
2.585118144E0,2.824727058E0,-5.749354839E0,-6.580262445E-3
2.587354167E0,2.772084951E0,-5.824728489E0,-1.070788130E-1
2.589591777E0,2.700300455E0,-5.880361557E0,-2.219343036E-1
2.591822733E0,2.636890650E0,-5.998806477E0,-3.032902777E-1
2.594046672E0,2.598007202E0,-6.093322754E0,-4.037888348E-1
2.596300151E0,2.520838737E0,-6.182455540E0,-5.090730190E-1
2.598537577E0,2.505285263E0,-6.320042610E0,-6.089733839E-1
2.600779155E0,2.436491728E0,-6.419344902E0,-6.143572330E-1
2.603012187E0,2.410768747E0,-6.543771744E0,-6.191428304E-1
2.605245098E0,2.452643156E0,-6.653841496E0,-6.472585201E-1
2.607471049E0,2.499303341E0,-6.750152588E0,-6.562315822E-1
2.609709392E0,2.532204628E0,-6.793821812E0,-6.699903607E-1
2.611958171E0,2.550748825E0,-6.851249218E0,-6.556333899E-1
2.614197429E0,2.571087837E0,-6.723233223E0,-5.934200287E-1
2.616434734E0,2.600998163E0,-6.528218269E0,-3.696911037E-1
2.618668620E0,2.676372051E0,-6.592226505E0,-3.260220885E-1
2.620906230E0,2.701496840E0,-6.515655994E0,-3.158525825E-1
2.623142253E0,2.726621389E0,-6.449255466E0,-3.732803464E-1
2.625379802E0,2.742773056E0,-6.329614162E0,-3.732803464E-1
2.627615153E0,2.787040234E0,-6.225526333E0,-3.302095234E-1
2.629849162E0,2.856431961E0,-6.068198204E0,-3.774677813E-1
2.632076518E0,2.848655462E0,-6.025127411E0,-4.588237405E-1
2.634325541E0,2.941377163E0,-5.906682491E0,-4.821537733E-1
2.636558635E0,2.961117983E0,-5.858826160E0,-4.959124923E-1
2.638785136E0,3.020340443E0,-5.749952793E0,-5.006981492E-1
2.641024455E0,3.506681681E0,-4.773082733E0,-2.452643216E-1
2.643274150E0,3.973282099E0,-3.754338741E0,1.770688742E-1
2.645512980E0,3.868596077E0,-3.732803345E0,8.554340899E-2
2.647749187E0,3.747160196E0,-3.597010612E0,-1.615155302E-2
2.649979533E0,3.664009571E0,-3.461217880E0,-1.453639716E-1
2.652207927E0,3.518047571E0,-3.329014540E0,-2.662015259E-1
2.654456767E0,3.385843992E0,-3.269193888E0,-4.205385745E-1
2.656691569E0,3.223730326E0,-3.270988464E0,-5.126622319E-1
2.658921367E0,3.037090063E0,-3.300898790E0,-6.000002623E-1
2.661167827E0,2.946761131E0,-3.318246841E0,-7.052844763E-1
2.663402934E0,2.830709219E0,-3.397808075E0,-7.256234884E-1
2.665643230E0,2.760719061E0,-3.616751432E0,-7.256234884E-1
2.667873576E0,2.677568436E0,-3.735196114E0,-6.975077987E-1
2.670101786E0,2.552543640E0,-3.742972851E0,-6.610172391E-1
2.672350810E0,2.531008244E0,-3.919443607E0,-6.795616150E-1
2.674588603E0,2.520240545E0,-3.900899172E0,-5.365904570E-1
2.676827434E0,2.302493572E0,-3.847060680E0,-1.286142170E-1
2.679061992E0,2.217548370E0,-3.942773581E0,1.471585929E-1
2.681297526E0,2.257628202E0,-4.110869408E0,2.195414752E-1
2.683534526E0,2.273779631E0,-4.274179459E0,2.530409992E-1
2.685770671E0,2.187039852E0,-4.484747887E0,5.485545993E-1
2.688009623E0,2.079961061E0,-4.700700283E0,1.005583763E0
2.690251567E0,1.975275040E0,-4.847858906E0,1.209571838E0
2.692482402E0,1.828116536E0,-4.916652203E0,9.559326172E-1
2.694718486E0,1.688734531E0,-5.089533806E0,6.400800347E-1
2.696954570E0,1.666600943E0,-5.313860893E0,6.496513486E-1
2.699188517E0,1.647458434E0,-5.537590027E0,1.456032634E0
2.701416118E0,1.447059512E0,-5.567500114E0,1.320838094E0
2.703664653E0,1.384846091E0,-5.828317642E0,2.040479422E0
2.705901957E0,1.286740422E0,-5.970690727E0,2.068595171E0
2.708141887E0,1.186840057E0,-5.992226124E0,1.938784599E0
2.710376445E0,9.714859724E-1,-5.919245243E0,1.402792215E0
2.712612467E0,8.045865893E-1,-5.925825119E0,1.281954765E0
2.714850016E0,7.974081635E-1,-5.915057659E0,1.028913736E0
2.717085368E0,8.123632669E-1,-5.843272686E0,1.038485050E0
2.719322429E0,7.274180651E-1,-5.860620975E0,8.614161611E-1
2.721559001E0,6.143572330E-1,-5.843871117E0,6.837490797E-1
2.723796061E0,4.725824594E-1,-5.825924873E0,4.396811724E-1
2.726033000E0,3.098705411E-1,-5.851647854E0,3.858426511E-1
2.728270915E0,2.243271172E-1,-5.821737289E0,3.655036688E-1
2.730506571E0,7.836493850E-2,-5.723033428E0,2.309073806E-1
2.732744304E0,-6.819544733E-2,-5.667400360E0,6.221338734E-2
2.734979289E0,-1.848455518E-1,-5.531607628E0,-6.281159073E-2
2.737216472E0,-3.355933726E-1,-5.365904808E0,-1.172483116E-1
2.739452983E0,-4.193421602E-1,-5.221138954E0,-1.274178028E-1
2.741687052E0,-4.319044948E-1,-5.101497650E0,-1.375873089E-1
2.743914714E0,-5.030909777E-1,-4.962115765E0,-2.392822690E-2
2.746164470E0,-5.575276613E-1,-4.761118889E0,8.374879137E-3
2.748400614E0,-5.850451589E-1,-4.674378872E0,-1.196411322E-3
2.750641399E0,-4.187439680E-1,-5.097310543E0,-3.230310604E-2
2.752873515E0,-4.486542344E-1,-5.154737949E0,1.016949583E-2
2.755110759E0,-5.240281820E-1,-4.870590687E0,-2.009970993E-1
2.757347026E0,-5.976074338E-1,-4.634897232E0,-1.824527234E-1
2.759584208E0,-5.904290080E-1,-4.425525665E0,-6.400800496E-2
2.761821269E0,-5.222335458E-1,-4.245465755E0,1.178465188E-1
2.764059001E0,-5.359922647E-1,-4.150351048E0,2.177468538E-1
2.766294596E0,-4.504488707E-1,-4.203591347E0,1.752742529E-1
2.768532145E0,-5.078766346E-1,-4.198207378E0,1.890329868E-1
2.770767619E0,-2.333002090E-1,-4.389034748E0,2.638086975E-1
2.773004557E0,-3.876372576E-1,-4.463212490E0,2.291127741E-1
2.775241191E0,-1.465603858E-1,-4.573282242E0,4.414757788E-1
2.777478434E0,-1.824527234E-1,-4.462016106E0,3.499503136E-1
2.779715373E0,-2.422732860E-1,-4.298706055E0,3.493520916E-1
2.781953044E0,-2.045863420E-1,-4.411168575E0,7.788637877E-1
2.784184916E0,-1.136590727E-2,-4.747958183E0,5.712863803E-1
2.786411540E0,-1.722832322E-1,-5.060221672E0,4.037888348E-1
2.788661662E0,-2.751746178E-1,-5.000401020E0,2.069791555E-1
2.790898661E0,-1.322034448E-1,-4.908277512E0,4.468596280E-1
2.793139079E0,-2.093719840E-1,-4.722235680E0,8.650053740E-1
2.795372233E0,-1.172483116E-1,-4.934598446E0,9.523434043E-1
2.797609355E0,3.409772366E-2,-5.258825779E0,1.216750264E0
2.799846782E0,2.333002165E-2,-5.603392601E0,1.350748420E0
2.802082743E0,1.076770201E-1,-5.738586903E0,1.317847013E0
2.804320475E0,1.627119333E-1,-6.298507214E0,1.228714466E0
2.806555888E0,2.663211584E0,-1.127438164E1,-1.190429211E0
2.808793132E0,7.280163169E-1,-7.278368473E0,4.278367043E0
2.811026225E0,1.100698411E-1,-8.881559372E0,4.384847641E0
2.813254557E0,6.179464459E-1,-1.224826050E1,1.820339799E0
2.815503398E0,9.613165259E-1,-1.242293739E1,2.328814745E0
2.817741435E0,1.834696770E0,-1.590628815E1,1.866401672E0
2.819979960E0,2.393420935E0,-1.983650017E1,9.672985673E-1
2.822214518E0,2.559123755E0,-2.494996262E1,1.568495274E0
2.824449748E0,1.221535921E0,-3.211586761E1,8.058428764E0
2.826686870E0,1.147358418E0,-4.536971283E1,7.736593723E0
2.828920512E0,2.500499725E0,-4.812983322E1,1.150648594E1
2.831149516E0,1.177866936E0,-4.456991196E1,1.322393417E1
2.833397135E0,1.485344648E0,-3.968496323E1,1.292303658E1
2.835634990E0,1.582253933E0,-3.729632950E1,1.110808086E1
2.837870707E0,1.554138303E0,-3.528695679E1,1.108953667E1
2.840096415E0,1.284347534E0,-3.398944855E1,1.058465099E1
2.842343913E0,1.386042476E0,-3.359582901E1,9.964909554E0
2.844580912E0,1.705484390E0,-3.315435410E1,9.723833084E0
2.846820354E0,1.155733347E0,-3.284867096E1,9.551549911E0
2.849054606E0,4.582255483E-1,-3.276312637E1,8.867800713E0
2.851291423E0,-2.973082066E-1,-3.260280609E1,7.744968891E0
2.853529033E0,-2.811566591E-1,-3.144228745E1,6.007181168E0
2.855765116E0,-1.489532143E-1,-3.005923653E1,4.513461590E0
2.858000284E0,-4.277170599E-1,-2.882932472E1,3.250051260E0
2.860227702E0,-6.227321029E-1,-2.745046043E1,2.525624275E0
2.862474955E0,-8.440681696E-1,-2.575873566E1,1.538584948E0
2.864711284E0,-1.158724308E0,-2.396471786E1,3.361915946E-1
2.866951213E0,-1.196411371E0,-2.229392815E1,-8.829515576E-1
2.869185588E0,-1.256830096E0,-2.073021889E1,-2.550748825E0
2.871423625E0,-1.443470240E0,-1.919043732E1,-3.970889091E0
2.873659342E0,-1.600200176E0,-1.766142464E1,-5.048257351E0
2.875896647E0,-1.563111424E0,-1.614736557E1,-5.755934715E0
2.878131877E0,-1.641476393E0,-1.486242008E1,-6.230910301E0
2.880368937E0,-1.610967875E0,-1.376291752E1,-6.227919102E0
2.882605388E0,-1.409372568E0,-1.279262829E1,-5.717051506E0
2.884842692E0,-1.347159147E0,-1.198505020E1,-4.850251675E0
2.887079570E0,-1.296909928E0,-1.131087303E1,-3.935595036E0
2.889317363E0,-1.186840057E0,-1.075394344E1,-2.848057270E0
2.891553141E0,-1.045663476E0,-1.031186962E1,-1.731805444E0
2.893790690E0,-9.421738982E-1,-9.926026344E0,-7.680960894E-1
2.896026042E0,-8.919246197E-1,-9.605388641E0,8.494520187E-2
2.898263408E0,-8.021938205E-1,-9.337391853E0,7.674978375E-1
2.900499919E0,-7.160521746E-1,-9.078369141E0,1.240080357E0
2.902736735E0,-6.861419082E-1,-8.798408508E0,1.597209096E0
2.904973551E0,-7.142575383E-1,-8.522636414E0,2.025524378E0
2.907206950E0,-7.094719410E-1,-8.290532112E0,2.468794823E0
2.909428263E0,-6.885347366E-1,-8.009973526E0,2.730808735E0
2.911678447E0,-6.568298340E-1,-7.714460373E0,2.912065268E0
2.913920329E0,-6.245267391E-1,-7.409973621E0,3.031108141E0
2.916161724E0,-6.604190469E-1,-7.156334400E0,3.139981508E0
2.918395305E0,-6.514459848E-1,-6.879364967E0,3.163311481E0
2.920630717E0,-6.376872063E-1,-6.616154671E0,3.096312523E0
2.922867594E0,-6.669993401E-1,-6.390032768E0,3.004786968E0
2.925105388E0,-7.782655358E-1,-6.220142365E0,2.841476917E0
2.927341288E0,-6.664010882E-1,-6.097510338E0,2.818146944E0
2.929579081E0,-6.550351977E-1,-6.001797199E0,2.794816732E0
2.931814311E0,-6.251249313E-1,-5.968895912E0,2.713460922E0
2.934051188E0,-6.011967063E-1,-5.973681927E0,2.704487801E0
2.936287761E0,-5.730810165E-1,-5.979065418E0,2.709273338E0
2.938525065E0,-4.677968323E-1,-5.966503143E0,2.767299414E0
2.940761943E0,-3.816552162E-1,-6.010770321E0,2.730210543E0
2.942999431E0,-3.008974493E-1,-6.074180126E0,2.697907448E0
2.945235270E0,-2.979064286E-1,-6.189035892E0,2.717050076E0
2.947473002E0,-2.985046208E-1,-6.274579048E0,2.631506681E0
2.949708110E0,-3.619144261E-1,-6.373881340E0,2.578266382E0
2.951945231E0,-3.625126183E-1,-6.464210510E0,2.521436930E0
2.954181804E0,-4.067798555E-1,-6.568298340E0,2.464009047E0
2.956419169E0,-4.319044948E-1,-6.658627033E0,2.430509567E0
2.958655986E0,-4.767699242E-1,-6.792026997E0,2.392224550E0
2.960893534E0,-4.983053207E-1,-6.973283291E0,2.344367981E0
2.963129557E0,-5.676971674E-1,-7.167700291E0,2.310868502E0
2.965367106E0,-6.382854581E-1,-7.424928665E0,2.272583246E0
2.967602519E0,-7.136593461E-1,-7.710870743E0,2.248655081E0
2.969836772E0,-8.189435601E-1,-8.001000404E0,2.243271112E0
2.972064128E0,-9.469595551E-1,-8.280961037E0,2.233101845E0
2.974313151E0,-1.070788145E0,-8.542376518E0,2.237289190E0
2.976549174E0,-1.203589797E0,-8.793622971E0,2.217548370E0
2.978787578E0,-1.345364571E0,-8.987442017E0,2.245065928E0
2.981023661E0,-1.467996716E0,-9.177073479E0,2.210968018E0
2.983261393E0,-1.584646821E0,-9.332606316E0,2.148156643E0
2.985497294E0,-1.729412556E0,-9.440283775E0,2.099103689E0
2.987733745E0,-1.807777524E0,-9.577272415E0,2.032104731E0
2.989967998E0,-1.876571178E0,-9.738788605E0,1.969292998E0
2.992199870E0,-1.896910191E0,-9.843474388E0,1.922034740E0
2.994442118E0,-1.883151412E0,-9.938589096E0,1.812563181E0
2.996671244E0,-1.831107497E0,-1.004447079E1,1.736590981E0
2.998907267E0,-1.750349760E0,-1.012164021E1,1.656431437E0
3.001155192E0,-1.664208174E0,-1.018923664E1,1.595414519E0
3.003392436E0,-1.569093466E0,-1.027178955E1,1.500898004E0
3.005630900E0,-1.438684583E0,-1.026879883E1,1.406979680E0
3.007862834E0,-1.319043517E0,-1.032742214E1,1.312463164E0
3.010095927E0,-1.232901812E0,-1.037587738E1,1.227517962E0
3.012338298E0,-1.113260746E0,-1.044407272E1,1.143171072E0
3.014575847E0,-9.786644578E-1,-1.042193890E1,1.096511006E0
3.016814433E0,-8.578268886E-1,-1.038066292E1,1.021735311E0
3.019054789E0,-7.232306600E-1,-1.034895802E1,1.018146038E0
3.021284587E0,-6.023930907E-1,-1.031246758E1,9.900303483E-1
3.023521830E0,-5.306084156E-1,-1.029452133E1,9.912267923E-1
3.025756572E0,-4.677968323E-1,-1.028614616E1,9.864411354E-1
3.027992350E0,-3.864408433E-1,-1.028734303E1,9.876375198E-1
3.030220378E0,-3.296113312E-1,-1.027418232E1,1.083350420E0
3.032469951E0,-2.715853751E-1,-1.023649502E1,1.074377418E0
3.034705729E0,-1.800599098E-1,-1.020000458E1,1.113260746E0
3.036946208E0,-1.232303679E-1,-1.019162941E1,1.189831018E0
3.039178630E0,-8.973085135E-2,-1.015394306E1,1.228116274E0
3.041415873E0,-3.170489892E-2,-1.012642574E1,1.252642632E0
3.043652080E0,1.196411322E-3,-1.010369396E1,1.329213023E0
3.045889567E0,-3.589233849E-3,-1.009412193E1,1.353141189E0
3.048126139E0,5.383851007E-2,-1.007079220E1,1.396211982E0
3.050363993E0,8.793623000E-2,-1.003370380E1,1.435095429E0
3.052599772E0,1.028913707E-1,-9.966704369E0,1.477568030E0
3.054837565E0,1.465603858E-1,-9.910472870E0,1.516451359E0
3.057072673E0,1.812563092E-1,-9.844072342E0,1.516451359E0
3.059309977E0,1.806581169E-1,-9.839884758E0,1.593021631E0
3.061546245E0,2.003988922E-1,-9.792028427E0,1.588235974E0
3.063780802E0,2.333002090E-1,-9.745368004E0,1.721635938E0
3.066006999E0,2.093719840E-1,-9.711869240E0,1.764706731E0
3.068243327E0,2.003988922E-1,-9.683155060E0,1.797608018E0
3.070479228E0,2.901297510E-1,-9.680164337E0,1.932204247E0
3.072719463E0,3.224328458E-1,-9.667601585E0,2.127817631E0
3.074954814E0,2.398804724E-1,-9.680762291E0,2.241476536E0
3.077195537E0,2.297109663E-1,-9.681360245E0,2.331805706E0
3.079443522E0,2.327020019E-1,-9.739386559E0,2.441875458E0
3.081680705E0,2.219343036E-1,-9.753743172E0,2.522633314E0
3.083917399E0,2.267199457E-1,-9.739984512E0,2.556132793E0
3.086152263E0,2.548356056E-1,-9.754940033E0,2.647060156E0
3.088388041E0,2.691925466E-1,-9.760323524E0,2.661417007E0
3.090625407E0,2.404786795E-1,-9.745368004E0,2.680559635E0
3.092860942E0,2.793620527E-1,-9.693324089E0,2.704487801E0
3.095098002E0,2.985046208E-1,-9.646066666E0,2.771486759E0
3.097334392E0,2.793620527E-1,-9.608379364E0,2.857030153E0
3.099571452E0,3.032902777E-1,-9.570692062E0,2.909672260E0
3.101808573E0,2.697907388E-1,-9.560523033E0,2.918645382E0
3.104043437E0,2.937189937E-1,-9.522835732E0,3.019144058E0
3.106267557E0,3.128615618E-1,-9.499505997E0,3.023929596E0
3.108505045E0,3.326023519E-1,-9.461220741E0,2.995215654E0
3.110743266E0,3.672982752E-1,-9.428318977E0,2.967100143E0
3.112994975E0,4.109672904E-1,-9.390632629E0,2.948555708E0
3.115231365E0,4.546363056E-1,-9.357730865E0,2.910270452E0
3.117468730E0,4.791627228E-1,-9.319445610E0,2.906083107E0
3.119702861E0,5.084748268E-1,-9.324830055E0,2.877369165E0
3.121940348E0,5.324030519E-1,-9.329615593E0,2.868396044E0
3.124176005E0,5.904290080E-1,-9.297312737E0,2.854637384E0
3.126413981E0,5.952146053E-1,-9.306285858E0,2.801995277E0
3.128649272E0,5.856433511E-1,-9.287142754E0,2.821137905E0
3.130886149E0,6.000002623E-1,-9.292527199E0,2.835494757E0
3.133122417E0,6.095715761E-1,-9.297312737E0,2.806781054E0
3.135356852E0,6.101697683E-1,-9.287740707E0,2.801995277E0
3.137582256E0,6.053841114E-1,-9.282955170E0,2.787638426E0
3.139822795E0,5.910272002E-1,-9.301499367E0,2.768495798E0
3.142070536E0,5.569294691E-1,-9.320044518E0,2.787638426E0
3.144310893E0,5.473581553E-1,-9.348757744E0,2.730210543E0
3.146546061E0,5.521438122E-1,-9.348757744E0,2.725425005E0
3.148777445E0,5.042873621E-1,-9.381061554E0,2.691925526E0
3.151004985E0,4.707878530E-1,-9.385248184E0,2.662613392E0
3.153253886E0,4.133601189E-1,-9.412766457E0,2.624328136E0
3.155490885E0,3.942175210E-1,-9.407979965E0,2.600399971E0
3.157731425E0,3.798605800E-1,-9.426525116E0,2.557329178E0
3.159964518E0,3.457628787E-1,-9.464211464E0,2.537588358E0
3.162199748E0,2.931207716E-1,-9.482157707E0,2.513660192E0
3.164429057E0,2.793620527E-1,-9.477372169E0,2.489732027E0
3.166674174E0,2.309073806E-1,-9.504889488E0,2.479562521E0
3.168910747E0,1.836491376E-1,-9.485149384E0,2.455035925E0
3.171149699E0,1.304088384E-1,-9.536594391E0,2.435893536E0
3.173385050E0,8.673982322E-2,-9.559925079E0,2.406581402E0
3.175622783E0,5.862415582E-2,-9.568898201E0,2.368296146E0
3.177858683E0,5.982056609E-4,-9.577870369E0,2.372483730E0
3.180096110E0,-5.204389244E-2,-9.567103386E0,2.391027927E0
3.182331401E0,-8.973085135E-2,-9.552147865E0,2.338385820E0
3.184568461E0,-1.088734269E-1,-9.542576790E0,2.352742910E0
3.186804790E0,-1.609173268E-1,-9.531808853E0,2.328216314E0
3.189041911E0,-1.992024779E-1,-9.507282257E0,2.308475733E0
3.191278971E0,-2.087737769E-1,-9.507282257E0,2.303689957E0
3.193516520E0,-2.512463629E-1,-9.468399048E0,2.298904419E0
3.195752421E0,-2.895315289E-1,-9.472586632E0,2.293520451E0
3.197987162E0,-3.320041299E-1,-9.452845573E0,2.288136721E0
3.200213542E0,-3.511467278E-1,-9.433105469E0,2.316850424E0
3.202462565E0,-3.792623878E-1,-9.404391289E0,2.282752752E0
3.204698894E0,-4.175475538E-1,-9.403793335E0,2.287538528E0
3.206939189E0,-4.223332107E-1,-9.389435768E0,2.316252232E0
3.209170146E0,-4.127618968E-1,-9.379864693E0,2.311466694E0
3.211399150E0,-4.606183469E-1,-9.379266739E0,2.306082726E0
3.213646647E0,-4.648058116E-1,-9.345767021E0,2.325225353E0
3.215884196E0,-4.941178858E-1,-9.359525681E0,2.334198475E0
3.218122416E0,-5.036891699E-1,-9.369096756E0,2.348555326E0
3.220356547E0,-5.180460811E-1,-9.349954605E0,2.343769789E0
3.222592876E0,-5.371887088E-1,-9.363713264E0,2.353341103E0
3.224829997E0,-5.473581553E-1,-9.382855415E0,2.376671076E0
3.227067118E0,-5.521438122E-1,-9.368498802E0,2.367099762E0
3.229304911E0,-5.670989752E-1,-9.406784058E0,2.405385017E0
3.231540751E0,-5.766702294E-1,-9.401998520E0,2.414956331E0
3.233778239E0,-5.862415433E-1,-9.391828537E0,2.423929453E0
3.236013591E0,-5.814558864E-1,-9.406784058E0,2.429313183E0
3.238250895E0,-5.916253924E-1,-9.434899330E0,2.457428932E0
3.240484172E0,-5.970092416E-1,-9.435498238E0,2.486142635E0
3.242712077E0,-5.970092416E-1,-9.434899330E0,2.457428932E0
3.244961100E0,-6.023930907E-1,-9.468399048E0,2.476571321E0
3.247198954E0,-6.023930907E-1,-9.478569031E0,2.510071039E0
3.249438090E0,-6.119644046E-1,-9.482755661E0,2.510071039E0
3.251672526E0,-5.982056856E-1,-9.502496719E0,2.510071039E0
3.253907634E0,-6.125625968E-1,-9.487542152E0,2.529213428E0
3.256144877E0,-6.077769399E-1,-9.497113228E0,2.514856577E0
3.258381206E0,-5.934200287E-1,-9.497711182E0,2.548356056E0
3.260618327E0,-5.886343718E-1,-9.507282257E0,2.548356056E0
3.262855143E0,-5.844469070E-1,-9.507881165E0,2.577069998E0
3.265092997E0,-5.790630579E-1,-9.488738060E0,2.562713146E0
3.267329081E0,-5.509474277E-1,-9.517452240E0,2.572284460E0
3.269566630E0,-5.647061467E-1,-9.488738060E0,2.586641312E0
3.271801921E0,-5.563312769E-1,-9.546165466E0,2.596212626E0
3.274038859E0,-5.324030519E-1,-9.537193298E0,2.596810818E0
3.276275004E0,-5.222335458E-1,-9.527621269E0,2.592025042E0
3.278512370E0,-5.419743061E-1,-9.556335449E0,2.572882652E0
3.280749430E0,-5.276173949E-1,-9.565906525E0,2.563311338E0
3.282987040E0,-5.084748268E-1,-9.561120987E0,2.553740025E0
3.285222819E0,-4.989035130E-1,-9.556933403E0,2.548954248E0
3.287460307E0,-4.839483798E-1,-9.547362328E0,2.539981127E0
3.289695659E0,-4.887340367E-1,-9.570692062E0,2.516052961E0
3.291932841E0,-4.600201547E-1,-9.580862045E0,2.496910334E0
3.294169597E0,-4.456632137E-1,-9.576076508E0,2.468794823E0
3.296406535E0,-4.217349887E-1,-9.581459999E0,2.440080881E0
3.298643778E0,-3.972085714E-1,-9.576674461E0,2.411965132E0
3.300881022E0,-3.780659735E-1,-9.586245537E0,2.392822742E0
3.303117228E0,-3.391826153E-1,-9.591629982E0,2.355135679E0
3.305354838E0,-3.248256743E-1,-9.572486877E0,2.340778828E0
3.307590007E0,-2.955136001E-1,-9.568299294E0,2.312663078E0
3.309826396E0,-2.667997181E-1,-9.597013474E0,2.274976015E0
3.312060832E0,-2.620140910E-1,-9.587442398E0,2.270190477E0
3.314300456E0,-2.380858511E-1,-9.592825890E0,2.251047850E0
3.316535502E0,-2.045863420E-1,-9.602396965E0,2.242074728E0
3.318767619E0,-1.896311939E-1,-9.588638306E0,2.218146563E0
3.321010966E0,-1.896311939E-1,-9.583254814E0,2.208575249E0
3.323248698E0,-1.848455518E-1,-9.593423843E0,2.199003935E0
3.325486125E0,-1.411765367E-1,-9.570094109E0,2.185245275E0
3.327717936E0,-1.459621787E-1,-9.574281693E0,2.175673962E0
3.329940715E0,-1.459621787E-1,-9.583852768E0,2.156531334E0
3.332182536E0,-1.178465188E-1,-9.589237213E0,2.166700840E0
3.334431559E0,-8.853443712E-2,-9.589835167E0,2.142772675E0
3.336671000E0,-5.982056633E-2,-9.589835167E0,2.148156643E0
3.338900981E0,-5.084748194E-2,-9.600004196E0,2.162513494E0
3.341142985E0,-3.110669367E-2,-9.590433121E0,2.148156643E0
3.343378032E0,-2.213360928E-2,-9.604789734E0,2.176870346E0
3.345616984E0,-1.196411345E-2,-9.595816612E0,2.162513494E0
3.347848186E0,1.196411345E-2,-9.576674461E0,2.158325911E0
3.350074870E0,2.153540403E-2,-9.576674461E0,2.153540373E0
3.352325663E0,1.674975827E-2,-9.581459999E0,2.163111687E0
3.354563334E0,2.153540403E-2,-9.586843491E0,2.172683001E0
3.356799479E0,3.110669367E-2,-9.562915802E0,2.167897224E0
3.359024882E0,2.213360928E-2,-9.553344727E0,2.167897224E0
3.361272380E0,4.067798331E-2,-9.567701340E0,2.158325911E0
3.363509501E0,4.127619043E-2,-9.543772697E0,2.148754835E0
3.365745769E0,3.708875179E-2,-9.515059471E0,2.167897224E0
3.367967997E0,4.666004330E-2,-9.505488396E0,2.153540373E0
3.370208415E0,6.101697683E-2,-9.510273933E0,2.153540373E0
3.372457499E0,6.580262631E-2,-9.501300812E0,2.191825628E0
3.374696513E0,7.537391037E-2,-9.491728783E0,2.187039852E0
3.376933696E0,4.666004330E-2,-9.467203140E0,2.187039852E0
3.379166423E0,7.058826834E-2,-9.458230019E0,2.210968018E0
3.381403422E0,7.597211748E-2,-9.439086914E0,2.220539331E0
3.383639812E0,7.058826834E-2,-9.449256897E0,2.249253273E0
3.385876811E0,4.666004330E-2,-9.443872452E0,2.253440619E0
3.388113627E0,4.247260094E-2,-9.415159225E0,2.277369022E0
3.390351237E0,1.794617064E-2,-9.448060036E0,2.282154560E0
3.392587382E0,5.623133108E-2,-9.434899330E0,2.310868502E0
3.394825114E0,4.127619043E-2,-9.458230019E0,2.320439816E0
3.397060283E0,4.127619043E-2,-9.449256897E0,2.353939295E0
3.399297587E0,3.649054468E-2,-9.439684868E0,2.363510609E0
3.401534038E0,3.110669367E-2,-9.458827972E0,2.382055044E0
3.403770915E0,2.632104978E-2,-9.454042435E0,2.401197433E0
3.406004679E0,2.572284266E-2,-9.468399048E0,2.434697151E0
3.408233256E0,1.196411322E-3,-9.477970123E0,2.472383976E0
3.410481364E0,-1.734796353E-2,-9.453444481E0,2.458027124E0
3.412718974E0,-1.256231871E-2,-9.453444481E0,2.472383976E0
3.414957561E0,-1.316052489E-2,-9.472586632E0,2.486740828E0
3.417191569E0,-3.230310604E-2,-9.458230019E0,2.520240545E0
3.419427958E0,-2.751746029E-2,-9.477372169E0,2.525026083E0
3.421665202E0,-4.666004330E-2,-9.448657990E0,2.538784742E0
3.423902079E0,-4.666004330E-2,-9.467801094E0,2.543570518E0
3.426139811E0,-6.580262631E-2,-9.467203140E0,2.529213428E0
3.428375346E0,-5.682953820E-2,-9.458230019E0,2.572284460E0
3.430612956E0,-6.101697683E-2,-9.467801094E0,2.538784742E0
3.432848552E0,-6.161518395E-2,-9.482157707E0,2.562713146E0
3.435085856E0,-5.204389244E-2,-9.477372169E0,2.562713146E0
3.437321940E0,-6.161518395E-2,-9.482157707E0,2.572284460E0
3.439559001E0,-8.554340899E-2,-9.491130829E0,2.557927370E0
3.441796061E0,-9.092725813E-2,-9.519845009E0,2.567498684E0
3.444033915E0,-1.004985496E-1,-9.515059471E0,2.552543640E0
3.446269755E0,-1.142572835E-1,-9.490532875E0,2.542972326E0
3.448507243E0,-1.142572835E-1,-9.495318413E0,2.523829699E0
3.450742534E0,-1.238285750E-1,-9.495318413E0,2.504687071E0
3.452979594E0,-1.375873089E-1,-9.485149384E0,2.495115757E0
3.455215983E0,-1.328016520E-1,-9.494720459E0,2.480758905E0
3.457453349E0,-1.369891018E-1,-9.475577354E0,2.432902336E0
3.459690348E0,-1.465603858E-1,-9.451051712E0,2.418545485E0
3.461927714E0,-1.651047617E-1,-9.446265221E0,2.413759947E0
3.464163737E0,-1.740778536E-1,-9.417551994E0,2.389831543E0
3.466401225E0,-1.746760458E-1,-9.427123070E0,2.389831543E0
3.468636577E0,-1.698904037E-1,-9.440881729E0,2.365903378E0
3.470873393E0,-1.980060786E-1,-9.407382011E0,2.351546526E0
3.473110026E0,-2.027917206E-1,-9.421140671E0,2.337189436E0
3.475347331E0,-2.027917206E-1,-9.425926208E0,2.341975212E0
3.477584269E0,-2.165504545E-1,-9.411569595E0,2.318047047E0
3.479822001E0,-2.213360965E-1,-9.421140671E0,2.303689957E0
3.482057841E0,-2.267199457E-1,-9.440283775E0,2.318047047E0
3.484295573E0,-2.506481707E-1,-9.439684868E0,2.298306227E0
3.486530681E0,-2.650051117E-1,-9.439086914E0,2.269592285E0
3.488768046E0,-2.841476798E-1,-9.476774216E0,2.240878344E0
3.491004436E0,-2.937189937E-1,-9.457631111E0,2.236092806E0
3.493236857E0,-2.937189937E-1,-9.481559753E0,2.207378864E0
3.495461039E0,-2.943171859E-1,-9.515059471E0,2.203191519E0
3.497715678E0,-2.847459018E-1,-9.543772697E0,2.188834429E0
3.499951945E0,-3.230310678E-1,-9.547960281E0,2.188236237E0
3.502193889E0,-3.236292601E-1,-9.571888924E0,2.169093609E0
3.504424785E0,-3.379862010E-1,-9.580862045E0,2.173879385E0
3.506662028E0,-3.433700502E-1,-9.623932838E0,2.178664923E0
3.508898234E0,-3.290131092E-1,-9.629316330E0,2.164906263E0
3.511135234E0,-3.481557071E-1,-9.633503914E0,2.183450699E0
3.513372477E0,-3.337987661E-1,-9.643673897E0,2.178664923E0
3.515610026E0,-3.487538993E-1,-9.657432556E0,2.169093609E0
3.517843730E0,-3.631108403E-1,-9.662218094E0,2.193022013E0
3.520074626E0,-3.481557071E-1,-9.647860527E0,2.164308071E0
3.522319011E0,-3.433700502E-1,-9.638289452E0,2.173879385E0
3.524556071E0,-3.385843933E-1,-9.633503914E0,2.160120726E0
3.526794657E0,-3.337987661E-1,-9.614361763E0,2.169093609E0
3.529029704E0,-3.379862010E-1,-9.590433121E0,2.169093609E0
3.531266520E0,-3.188436031E-1,-9.586245537E0,2.188834429E0
3.533504069E0,-3.236292601E-1,-9.586245537E0,2.169692039E0
3.535739970E0,-3.278166950E-1,-9.547960281E0,2.202593327E0
3.537974955E0,-3.044866920E-1,-9.548559189E0,2.221735716E0
3.540201152E0,-2.901297510E-1,-9.548559189E0,2.245664120E0
3.542450358E0,-2.560320199E-1,-9.530014038E0,2.236690998E0
3.544686381E0,-2.464607358E-1,-9.530014038E0,2.246262312E0
3.546926738E0,-2.470589429E-1,-9.525827408E0,2.279761791E0
3.549160624E0,-2.225325108E-1,-9.501898766E0,2.265404940E0
3.551398661E0,-2.273181528E-1,-9.506684303E0,2.274976015E0
3.553634196E0,-2.081755698E-1,-9.478569031E0,2.294118643E0
3.555871745E0,-1.848455518E-1,-9.512067795E0,2.299502611E0
3.558107036E0,-1.800599098E-1,-9.517452240E0,2.333002090E0
3.560344340E0,-1.513460279E-1,-9.508479118E0,2.328216314E0
3.562580485E0,-1.459621787E-1,-9.494122505E0,2.333002090E0
3.564817790E0,-1.609173268E-1,-9.517452240E0,2.356930256E0
3.567054606E0,-1.274178028E-1,-9.513264656E0,2.356930256E0
3.569292460E0,-1.082752272E-1,-9.509077072E0,2.352742910E0
3.571527507E0,-8.434699476E-2,-9.509077072E0,2.347957134E0
3.573762919E0,-9.391828626E-2,-9.523433685E0,2.328814745E0
3.576001323E0,-9.810572863E-2,-9.489934921E0,2.343171597E0
3.578238200E0,-7.956135273E-2,-9.480961800E0,2.371885538E0
3.580475504E0,-6.460621208E-2,-9.466604233E0,2.376671076E0
3.582711772E0,-6.041877344E-2,-9.471389771E0,2.405385017E0
3.584948771E0,-6.999006122E-2,-9.466604233E0,2.400599241E0
3.587186747E0,-4.067798331E-2,-9.467203140E0,2.391027927E0
3.589422587E0,-5.024927482E-2,-9.452845573E0,2.410170555E0
3.591660075E0,-5.982056633E-2,-9.443274498E0,2.405385017E0
3.593895122E0,-5.982056633E-2,-9.452845573E0,2.410170555E0
3.596132426E0,-5.024927482E-2,-9.438488960E0,2.414956331E0
3.598368754E0,-6.460621208E-2,-9.409774780E0,2.438286304E0
3.600605876E0,-8.374879509E-2,-9.409176826E0,2.457428932E0
3.602839762E0,-9.332008660E-2,-9.404391289E0,2.462214470E0
3.605065836E0,-1.076770201E-1,-9.409176826E0,2.467000246E0
3.607304728E0,-1.028913707E-1,-9.404391289E0,2.443071842E0
3.609554423E0,-1.220339537E-1,-9.404391289E0,2.495115757E0
3.611792400E0,-1.124626622E-1,-9.394820213E0,2.499901533E0
3.614028849E0,-1.124626622E-1,-9.394820213E0,2.509472847E0
3.616260295E0,-1.363908947E-1,-9.394221306E0,2.504687071E0
3.618499980E0,-1.513460279E-1,-9.413364410E0,2.495115757E0
3.620737223E0,-1.513460279E-1,-9.418149948E0,2.523829699E0
3.622975199E0,-1.519442350E-1,-9.427721024E0,2.542374134E0
3.625210673E0,-1.519442350E-1,-9.432506561E0,2.533401012E0
3.627448100E0,-1.710868180E-1,-9.437292099E0,2.528017044E0
3.629683513E0,-1.668993831E-1,-9.470791817E0,2.537588358E0
3.631920573E0,-1.764706671E-1,-9.480362892E0,2.561516523E0
3.634154216E0,-1.812563092E-1,-9.480362892E0,2.556730986E0
3.636382548E0,-1.818545163E-1,-9.509077072E0,2.551945448E0
3.638631327E0,-2.057827413E-1,-9.508479118E0,2.561516523E0
3.640868815E0,-2.105683982E-1,-9.527621269E0,2.547159672E0
3.643107585E0,-2.201396823E-1,-9.536594391E0,2.537588358E0
3.645342143E0,-2.350948304E-1,-9.560523033E0,2.523231506E0
3.647577495E0,-2.255235314E-1,-9.565308571E0,2.504088879E0
3.649816996E0,-2.249253243E-1,-9.555737495E0,2.504088879E0
3.652060710E0,-2.440679073E-1,-9.569496155E0,2.465803623E0
3.654288249E0,-2.297109663E-1,-9.570094109E0,2.480160713E0
3.656522074E0,-2.584248483E-1,-9.569496155E0,2.427518606E0
3.658745341E0,-2.578266263E-1,-9.564111710E0,2.417947292E0
3.660984110E0,-2.482553422E-1,-9.568898201E0,2.379662037E0
3.663224772E0,-2.572284341E-1,-9.544969559E0,2.365305185E0
3.665474590E0,-2.524427772E-1,-9.554540634E0,2.341377020E0
3.667711589E0,-2.572284341E-1,-9.535398483E0,2.317448616E0
3.669947367E0,-2.614158690E-1,-9.534799576E0,2.289333105E0
3.672179362E0,-2.566302419E-1,-9.535398483E0,2.284547329E0
3.674419169E0,-2.566302419E-1,-9.534799576E0,2.270190477E0
3.676653910E0,-2.656033039E-1,-9.510871887E0,2.246262312E0
3.678881572E0,-2.656033039E-1,-9.520442963E0,2.265404940E0
3.681130656E0,-2.751746178E-1,-9.520442963E0,2.246262312E0
3.683366130E0,-2.608176768E-1,-9.501300812E0,2.246262312E0
3.685605937E0,-2.650051117E-1,-9.501300812E0,2.222334146E0
3.687834696E0,-2.751746178E-1,-9.530014038E0,2.231905222E0
3.690058146E0,-2.847459018E-1,-9.529416084E0,2.236690998E0
3.692313151E0,-2.991028428E-1,-9.510273933E0,2.240878344E0
3.694550944E0,-2.656033039E-1,-9.520442963E0,2.241476536E0
3.696791362E0,-2.751746178E-1,-9.506086349E0,2.251047850E0
3.699021647E0,-2.991028428E-1,-9.519845009E0,2.260020971E0
3.701247966E0,-2.997010350E-1,-9.519845009E0,2.269592285E0
3.703496989E0,-3.092723191E-1,-9.538987160E0,2.293520451E0
3.705730387E0,-3.092723191E-1,-9.543772697E0,2.298306227E0
3.707959025E0,-3.146561682E-1,-9.562915802E0,2.283949137E0
3.710195964E0,-3.194418252E-1,-9.567701340E0,2.307877541E0
3.712444987E0,-3.242274821E-1,-9.558130264E0,2.322234392E0
3.714683757E0,-3.248256743E-1,-9.553344727E0,2.350350142E0
3.716921489E0,-3.487538993E-1,-9.543772697E0,2.364706993E0
3.719153972E0,-3.152543902E-1,-9.549157143E0,2.369492531E0
3.721391032E0,-3.050848842E-1,-9.520442963E0,2.379063845E0
3.723627360E0,-3.146561682E-1,-9.510871887E0,2.407777786E0
3.725864665E0,-3.248256743E-1,-9.510871887E0,2.426920414E0
3.728101481E0,-3.098705411E-1,-9.496515274E0,2.431705952E0
3.730339091E0,-3.146561682E-1,-9.472586632E0,2.450848579E0
3.732575114E0,-3.242274821E-1,-9.477372169E0,2.436491728E0
3.734812663E0,-3.194418252E-1,-9.482157707E0,2.469991207E0
3.737048015E0,-3.242274821E-1,-9.472586632E0,2.493321180E0
3.739282328E0,-3.194418252E-1,-9.449256897E0,2.488535643E0
3.741510600E0,-3.140579760E-1,-9.430113792E0,2.502892494E0
3.743758525E0,-3.194418252E-1,-9.449256897E0,2.522035122E0
3.745995829E0,-3.337987661E-1,-9.444471359E0,2.526820660E0
3.748236064E0,-3.337987661E-1,-9.444471359E0,2.550748825E0
3.750469218E0,-3.439682424E-1,-9.444471359E0,2.559721947E0
3.752706645E0,-3.248256743E-1,-9.449256897E0,2.560320139E0
3.754942058E0,-3.343969584E-1,-9.454042435E0,2.574677229E0
3.757179362E0,-3.439682424E-1,-9.449256897E0,2.588435888E0
3.759415690E0,-3.439682424E-1,-9.449256897E0,2.588435888E0
3.761652751E0,-3.678964674E-1,-9.443872452E0,2.593221426E0
3.763889628E0,-3.589234054E-1,-9.454042435E0,2.607578516E0
3.766127665E0,-3.541377485E-1,-9.458827972E0,2.617149830E0
3.768363444E0,-3.732803464E-1,-9.458230019E0,2.612364054E0
3.770600810E0,-3.780659735E-1,-9.467801094E0,2.612364054E0
3.772836284E0,-3.834498227E-1,-9.506086349E0,2.588435888E0
3.775073344E0,-3.780659735E-1,-9.491728783E0,2.559721947E0
3.777309794E0,-4.115654826E-1,-9.491130829E0,2.568695068E0
3.779547099E0,-3.972085714E-1,-9.495916367E0,2.535793781E0
3.781784098E0,-3.924229145E-1,-9.515059471E0,2.521436930E0
3.784021403E0,-3.924229145E-1,-9.510273933E0,2.516651154E0
3.786257243E0,-4.211367965E-1,-9.519247055E0,2.511865616E0
3.788494975E0,-4.163511395E-1,-9.519247055E0,2.497508526E0
3.790730388E0,-4.163511395E-1,-9.524032593E0,2.497508526E0
3.792967448E0,-4.109672904E-1,-9.524032593E0,2.464009047E0
3.795203776E0,-4.205385745E-1,-9.528818130E0,2.454437733E0
3.797441081E0,-4.205385745E-1,-9.538389206E0,2.440080881E0
3.799677958E0,-4.205385745E-1,-9.504889488E0,2.449652195E0
3.801915690E0,-4.486542344E-1,-9.499505997E0,2.425724030E0
3.804151286E0,-4.534398913E-1,-9.522835732E0,2.382653236E0
3.806389079E0,-4.492524564E-1,-9.532406807E0,2.397010088E0
3.808624370E0,-4.534398913E-1,-9.532406807E0,2.373081923E0
3.810861491E0,-4.630111754E-1,-9.518050194E0,2.368296146E0
3.813097819E0,-4.486542344E-1,-9.522835732E0,2.353939295E0
3.815335124E0,-4.630111754E-1,-9.537193298E0,2.363510609E0
3.817572001E0,-4.677968323E-1,-9.541379929E0,2.330011129E0
3.819809794E0,-4.492524564E-1,-9.561120987E0,2.330609322E0
3.822045573E0,-4.348955154E-1,-9.570692062E0,2.325823545E0
3.824283122E0,-4.492524564E-1,-9.556335449E0,2.330609322E0
3.826515483E0,-4.444667995E-1,-9.580264091E0,2.325823545E0
3.828744059E0,-4.636093974E-1,-9.561120987E0,2.334796667E0
3.830993083E0,-4.683950245E-1,-9.565308571E0,2.334796667E0
3.833229228E0,-4.683950245E-1,-9.574879646E0,2.296511650E0
3.835469218E0,-4.731806815E-1,-9.594022751E0,2.310868502E0
3.837703593E0,-4.689932466E-1,-9.613164902E0,2.306680918E0
3.839939921E0,-4.731806815E-1,-9.589237213E0,2.306082726E0
3.842177409E0,-4.779663086E-1,-9.584450722E0,2.296511650E0
3.844412761E0,-4.438686073E-1,-9.580264091E0,2.287538528E0
3.846649760E0,-4.247260094E-1,-9.580264091E0,2.277967215E0
3.848886088E0,-4.301098585E-1,-9.608977318E0,2.273181438E0
3.851123149E0,-4.444667995E-1,-9.585049629E0,2.282752752E0
3.853360026E0,-4.438686073E-1,-9.580264091E0,2.282752752E0
3.855597819E0,-4.492524564E-1,-9.594620705E0,2.287538528E0
3.857830424E0,-4.342973232E-1,-9.575477600E0,2.277967215E0
3.860058329E0,-4.247260094E-1,-9.561120987E0,2.273181438E0
3.862306804E0,-4.103690982E-1,-9.566504478E0,2.282752752E0
3.864543864E0,-4.247260094E-1,-9.541978836E0,2.297109842E0
3.866783488E0,-4.289134443E-1,-9.532406807E0,2.277967215E0
3.869017436E0,-4.199403822E-1,-9.541978836E0,2.301895380E0
3.871254130E0,-4.097708762E-1,-9.518648148E0,2.297109842E0
3.873492167E0,-4.145565331E-1,-9.518648148E0,2.301895380E0
3.875727946E0,-3.858426511E-1,-9.504291534E0,2.312064886E0
3.877962748E0,-3.619144261E-1,-9.509675026E0,2.307279348E0
3.880189555E0,-3.475574851E-1,-9.509675026E0,2.312064886E0
3.882437846E0,-3.475574851E-1,-9.491130829E0,2.345564365E0
3.884674235E0,-3.236292601E-1,-9.481559753E0,2.355135679E0
3.886914348E0,-3.278166950E-1,-9.457631111E0,2.364706993E0
3.889148356E0,-3.134597540E-1,-9.448657990E0,2.379063845E0
3.891385966E0,-3.140579760E-1,-9.463015556E0,2.379063845E0
3.893621989E0,-3.086741269E-1,-9.443872452E0,2.388635159E0
3.895859538E0,-3.134597540E-1,-9.439086914E0,2.407777786E0
3.898096477E0,-2.805584669E-1,-9.449256897E0,2.422134638E0
3.900338237E0,-2.799602449E-1,-9.425328255E0,2.426920414E0
3.902568217E0,-2.805584669E-1,-9.434899330E0,2.436491728E0
3.904800761E0,-2.608176768E-1,-9.411569595E0,2.455634356E0
3.907022746E0,-2.614158690E-1,-9.435498238E0,2.460419893E0
3.909280986E0,-2.662015259E-1,-9.425926208E0,2.446063042E0
3.911516154E0,-2.566302419E-1,-9.421140671E0,2.465205431E0
3.913758403E0,-2.374876440E-1,-9.416953087E0,2.475374937E0
3.915988689E0,-2.422732860E-1,-9.425926208E0,2.469991207E0
3.918226054E0,-2.476571500E-1,-9.431310654E0,2.513062000E0
3.920462749E0,-2.428714931E-1,-9.440881729E0,2.527418852E0
3.922699626E0,-2.285145670E-1,-9.445667267E0,2.532204628E0
3.924936503E0,-2.285145670E-1,-9.440881729E0,2.536990166E0
3.927174174E0,-2.237289101E-1,-9.451051712E0,2.551347256E0
3.929410136E0,-2.099701911E-1,-9.474979401E0,2.547159672E0
3.931647868E0,-2.141576260E-1,-9.455837250E0,2.542374134E0
3.933882976E0,-2.093719840E-1,-9.451051712E0,2.532802820E0
3.936120280E0,-1.998006850E-1,-9.451051712E0,2.542374134E0
3.938356547E0,-1.950150430E-1,-9.446265221E0,2.537588358E0
3.940593669E0,-1.854437590E-1,-9.446265221E0,2.537588358E0
3.942830546E0,-2.045863420E-1,-9.431908607E0,2.528017044E0
3.945068522E0,-1.992024779E-1,-9.407979965E0,2.513660192E0
3.947304118E0,-1.848455518E-1,-9.412766457E0,2.532802820E0
3.949541728E0,-1.896311939E-1,-9.412766457E0,2.542374134E0
3.951777202E0,-1.806581169E-1,-9.427721024E0,2.532802820E0
3.954014323E0,-1.848455518E-1,-9.403793335E0,2.551945448E0
3.956250651E0,-1.848455518E-1,-9.412766457E0,2.537588358E0
3.958487712E0,-1.752742529E-1,-9.422935486E0,2.532802820E0
3.960724833E0,-1.902294010E-1,-9.441479683E0,2.542374134E0
3.962962626E0,-1.950150430E-1,-9.446265221E0,2.537588358E0
3.965198466E0,-1.998006850E-1,-9.465408325E0,2.518445730E0
3.967435954E0,-2.147558331E-1,-9.489336014E0,2.532802820E0
3.969671306E0,-2.147558331E-1,-9.493523598E0,2.523231506E0
3.971908549E0,-2.243271172E-1,-9.517452240E0,2.499303341E0
3.974144694E0,-2.392822653E-1,-9.546165466E0,2.494517565E0
3.976381999E0,-2.440679073E-1,-9.564710617E0,2.475374937E0
3.978618754E0,-2.536391914E-1,-9.559925079E0,2.446661234E0
3.980856425E0,-2.590230405E-1,-9.598209381E0,2.437089920E0
3.983092448E0,-2.727817893E-1,-9.588040352E0,2.413161755E0
3.985329997E0,-2.679961324E-1,-9.602396965E0,2.389233351E0
3.987565410E0,-2.967100143E-1,-9.582656860E0,2.384447813E0
3.989800883E0,-2.913261652E-1,-9.592227936E0,2.336591244E0
3.992030131E0,-3.008974493E-1,-9.596415520E0,2.303091764E0
3.994268962E0,-3.008974493E-1,-9.591629982E0,2.307877541E0
3.996512858E0,-3.242274821E-1,-9.562915802E0,2.312663078E0
3.998752421E0,-3.146561682E-1,-9.558130264E0,2.283949137E0
4.000988322E0,-3.236292601E-1,-9.534201622E0,2.283949137E0
4.003224345E0,-3.284149170E-1,-9.528818130E0,2.255235434E0
4.005459636E0,-3.517449200E-1,-9.500103951E0,2.273779631E0
4.007696635E0,-3.613162339E-1,-9.500103951E0,2.268994093E0
4.009932719E0,-3.846462369E-1,-9.475577354E0,2.254637241E0
4.012170024E0,-3.846462369E-1,-9.456435204E0,2.240280151E0
4.014406962E0,-3.990031779E-1,-9.446864128E0,2.244467735E0
4.016642008E0,-3.792623878E-1,-9.442078590E0,2.225923300E0
4.018868632E0,-3.840480447E-1,-9.446864128E0,2.221137524E0
4.021118327E0,-4.079762697E-1,-9.436694145E0,2.216351986E0
4.023353374E0,-3.888336718E-1,-9.446864128E0,2.216351986E0
4.025593791E0,-4.025924206E-1,-9.407979965E0,2.220539331E0
4.027824504E0,-3.984049559E-1,-9.436694145E0,2.216351986E0
4.030054606E0,-4.031906128E-1,-9.418149948E0,2.244467735E0
4.032306803E0,-4.223332107E-1,-9.441479683E0,2.230110645E0
4.034538737E0,-4.133601189E-1,-9.470193863E0,2.216351986E0
4.036774638E0,-3.948157430E-1,-9.475577354E0,2.263610125E0
4.038999003E0,-3.996013701E-1,-9.475577354E0,2.263610125E0
4.041247722E0,-3.756731451E-1,-9.480362892E0,2.254637241E0
4.043484721E0,-3.613162339E-1,-9.485747337E0,2.278565407E0
4.045724101E0,-3.469592929E-1,-9.485747337E0,2.273779631E0
4.047955485E0,-3.421736360E-1,-9.490532875E0,2.292922258E0
4.050183512E0,-3.278166950E-1,-9.491130829E0,2.312064886E0
4.052432841E0,-2.991028428E-1,-9.486943245E0,2.307877541E0
4.054668864E0,-2.560320199E-1,-9.487542152E0,2.327019930E0
4.056909343E0,-2.560320199E-1,-9.458827972E0,2.327019930E0
4.059141826E0,-2.177468538E-1,-9.464211464E0,2.346760750E0
4.061379069E0,-2.075773627E-1,-9.435498238E0,2.346760750E0
4.063615397E0,-1.884347796E-1,-9.421739578E0,2.361117840E0
4.065852580E0,-1.453639716E-1,-9.427123070E0,2.361716032E0
4.068089701E0,-1.357926875E-1,-9.422935486E0,2.390429735E0
4.070326762E0,-1.166501045E-1,-9.399007797E0,2.400001049E0
4.072563090E0,-9.272187948E-2,-9.394820213E0,2.414358139E0
4.074802104E0,-7.357929647E-2,-9.394820213E0,2.409572363E0
4.077036052E0,-2.093719877E-2,-9.410373688E0,2.400599241E0
4.079272929E0,-4.007977992E-2,-9.400203705E0,2.438884497E0
4.081509013E0,-6.580262445E-3,-9.391230583E0,2.414956331E0
4.083746440E0,-2.392822644E-3,-9.434301376E0,2.448455811E0
4.085983378E0,4.067798331E-2,-9.420542717E0,2.425125837E0
4.088221110E0,5.024927482E-2,-9.449854851E0,2.439482689E0
4.090456950E0,4.486542568E-2,-9.463613510E0,2.425125837E0
4.092694499E0,5.922235921E-2,-9.459425926E0,2.434697151E0
4.094929851E0,5.443671346E-2,-9.478569031E0,2.420938253E0
4.097167155E0,6.879365444E-2,-9.478569031E0,2.425724030E0
4.099403483E0,7.298108935E-2,-9.516854286E0,2.420938253E0
4.101637675E0,7.298108935E-2,-9.521639824E0,2.397010088E0
4.103862955E0,7.836493850E-2,-9.516854286E0,2.397010088E0
4.106103556E0,8.315058798E-2,-9.531210899E0,2.373081923E0
4.108351481E0,7.836493850E-2,-9.526425362E0,2.368296146E0
4.110591472E0,6.340979785E-2,-9.549755096E0,2.363510609E0
4.112824931E0,6.879365444E-2,-9.540184021E0,2.339582443E0
4.115052531E0,6.879365444E-2,-9.554540634E0,2.320439816E0
4.117297526E0,4.486542568E-2,-9.539586067E0,2.320439816E0
4.119534587E0,4.965107143E-2,-9.534799576E0,2.301297188E0
4.121773844E0,5.024927482E-2,-9.534799576E0,2.282154560E0
4.124009501E0,3.589234129E-2,-9.520442963E0,2.286940336E0
4.126245341E0,-6.580262445E-3,-9.500701904E0,2.253440619E0
4.128482829E0,-6.580262445E-3,-9.486345291E0,2.257628202E0
4.130718120E0,-6.580262445E-3,-9.500701904E0,2.253440619E0
4.132952311E0,-4.067798331E-2,-9.514460564E0,2.248056889E0
4.135177104E0,-3.050848842E-2,-9.504889488E0,2.238485575E0
4.137416911E0,-6.400800496E-2,-9.499505997E0,2.233700037E0
4.139665751E0,-5.922235921E-2,-9.499505997E0,2.233700037E0
4.141906352E0,-8.374879509E-2,-9.518648148E0,2.238485575E0
4.144142131E0,-1.220339537E-1,-9.517452240E0,2.228316069E0
4.146377116E0,-1.310070455E-1,-9.493523598E0,2.237887383E0
4.148612163E0,-1.166501045E-1,-9.517452240E0,2.204387903E0
4.150849345E0,-1.698904037E-1,-9.535996437E0,2.222932339E0
4.153085795E0,-1.848455518E-1,-9.540781975E0,2.246860504E0
4.155322917E0,-2.033899277E-1,-9.521040916E0,2.232503414E0
4.157559733E0,-1.986042857E-1,-9.544969559E0,2.213361025E0
4.159793254E0,-2.273181528E-1,-9.540184021E0,2.208575249E0
4.162014262E0,-2.464607358E-1,-9.549157143E0,2.207977057E0
4.164259013E0,-2.273181528E-1,-9.558728218E0,2.203789711E0
4.166506572E0,-2.321037948E-1,-9.553942680E0,2.184647083E0
4.168747599E0,-2.470589429E-1,-9.568299294E0,2.207977057E0
4.170982890E0,-2.614158690E-1,-9.563513756E0,2.217548370E0
4.173216899E0,-2.715853751E-1,-9.606584549E0,2.236690998E0
4.175453776E0,-2.805584669E-1,-9.582057953E0,2.217548370E0
4.177691569E0,-2.901297510E-1,-9.582057953E0,2.212762833E0
4.179927470E0,-2.901297510E-1,-9.572486877E0,2.227119684E0
4.182165263E0,-3.044866920E-1,-9.562915802E0,2.216950178E0
4.184400554E0,-3.134597540E-1,-9.552745819E0,2.197807550E0
4.186637614E0,-2.895315289E-1,-9.534201622E0,2.207977057E0
4.188873881E0,-3.038884699E-1,-9.529416084E0,2.212164640E0
4.191111003E0,-2.937189937E-1,-9.491130829E0,2.216950178E0
4.193348124E0,-2.895315289E-1,-9.505488396E0,2.221735716E0
4.195582804E0,-2.937189937E-1,-9.510273933E0,2.198405743E0
4.197808635E0,-2.697907388E-1,-9.496515274E0,2.212762833E0
4.200056620E0,-2.656033039E-1,-9.501300812E0,2.231905222E0
4.202294780E0,-2.650051117E-1,-9.486943245E0,2.236690998E0
4.204534709E0,-2.745763958E-1,-9.477372169E0,2.250449657E0
4.206768656E0,-2.602194548E-1,-9.458230019E0,2.260619164E0
4.209005229E0,-2.602194548E-1,-9.443872452E0,2.264806747E0
4.211242106E0,-2.506481707E-1,-9.463613510E0,2.274976015E0
4.213479716E0,-2.458625287E-1,-9.454042435E0,2.274976015E0
4.215715800E0,-2.410768867E-1,-9.463613510E0,2.255833626E0
4.217950602E0,-2.171486616E-1,-9.464211464E0,2.274976015E0
4.220176921E0,-2.075773627E-1,-9.445069313E0,2.294118643E0
4.222425700E0,-2.075773627E-1,-9.449854851E0,2.284547329E0
4.224662211E0,-2.075773627E-1,-9.445069313E0,2.294118643E0
4.226902263E0,-1.884347796E-1,-9.440283775E0,2.298904419E0
4.229136210E0,-2.027917206E-1,-9.445069313E0,2.303689957E0
4.231373942E0,-2.075773627E-1,-9.445069313E0,2.308475733E0
4.233609782E0,-1.932204217E-1,-9.440881729E0,2.322832584E0
4.235847331E0,-2.177468538E-1,-9.449854851E0,2.327618122E0
4.238079692E0,-1.986042857E-1,-9.455238342E0,2.365903378E0
4.240304972E0,-1.848455518E-1,-9.474381447E0,2.385046005E0
4.242544108E0,-1.746760458E-1,-9.460023880E0,2.380260229E0
4.244793376E0,-1.704886109E-1,-9.470193863E0,2.380260229E0
4.247033183E0,-1.944168359E-1,-9.474381447E0,2.394617319E0
4.249271037E0,-1.992024779E-1,-9.460023880E0,2.404188633E0
4.251503825E0,-1.944168359E-1,-9.474381447E0,2.413759947E0
4.253741374E0,-1.896311939E-1,-9.464810371E0,2.404188633E0
4.255976726E0,-1.848455518E-1,-9.464810371E0,2.404188633E0
4.258211100E0,-2.045863420E-1,-9.498309135E0,2.399402857E0
4.260438701E0,-1.950150430E-1,-9.498309135E0,2.408974171E0
4.262687663E0,-1.758724600E-1,-9.498908043E0,2.408974171E0
4.264924296E0,-1.902294010E-1,-9.517452240E0,2.404188633E0
4.267165263E0,-2.045863420E-1,-9.527023315E0,2.394617319E0
4.269398173E0,-1.992024779E-1,-9.512666702E0,2.361117840E0
4.271635966E0,-1.902294010E-1,-9.522237778E0,2.375474691E0
4.273870952E0,-1.854437590E-1,-9.546165466E0,2.337189436E0
4.276108012E0,-1.998006850E-1,-9.545567513E0,2.313261271E0
4.278341410E0,-1.854437590E-1,-9.569496155E0,2.299502611E0
4.280569743E0,-1.902294010E-1,-9.574281693E0,2.294716835E0
4.282817607E0,-1.944168359E-1,-9.559925079E0,2.261217356E0
4.285056376E0,-1.992024779E-1,-9.559925079E0,2.256431818E0
4.287295085E0,-1.944168359E-1,-9.559925079E0,2.227717876E0
4.289530009E0,-1.944168359E-1,-9.569496155E0,2.218146563E0
4.291765239E0,-1.896311939E-1,-9.568898201E0,2.194218397E0
4.294002055E0,-1.794617027E-1,-9.573683739E0,2.161317110E0
4.296238444E0,-1.938186288E-1,-9.578469276E0,2.142174482E0
4.298475749E0,-2.033899277E-1,-9.583254814E0,2.132004976E0
4.300712870E0,-1.986042857E-1,-9.577870369E0,2.103889227E0
4.302950419E0,-1.938186288E-1,-9.573683739E0,2.113460541E0
4.305186259E0,-2.027917206E-1,-9.582656860E0,2.075175524E0
4.307423930E0,-2.273181528E-1,-9.591629982E0,2.065604210E0
4.309659099E0,-2.123630047E-1,-9.597013474E0,2.056032896E0
4.311896403E0,-2.123630047E-1,-9.591629982E0,2.022533417E0
4.314132731E0,-2.171486616E-1,-9.610772133E0,2.017747641E0
4.316370097E0,-2.081755698E-1,-9.620942116E0,2.027318954E0
4.318606852E0,-2.033899277E-1,-9.640084267E0,2.012962103E0
4.320844462E0,-2.225325108E-1,-9.629914284E0,2.012962103E0
4.323080485E0,-2.177468538E-1,-9.644271851E0,2.022533417E0
4.325316264E0,-2.225325108E-1,-9.639486313E0,2.008176327E0
4.327546245E0,-2.033899277E-1,-9.639486313E0,1.998605132E0
4.329790202E0,-1.932204217E-1,-9.625727654E0,1.999203324E0
4.332026958E0,-2.081755698E-1,-9.644271851E0,1.998605132E0
4.334265605E0,-2.081755698E-1,-9.620942116E0,2.022533417E0
4.336500956E0,-1.890329868E-1,-9.630513191E0,2.018345833E0
4.338738444E0,-1.932204217E-1,-9.601799011E0,2.022533417E0
4.340974589E0,-1.938186288E-1,-9.611370087E0,2.036890268E0
4.343212077E0,-2.027917206E-1,-9.577870369E0,2.027318954E0
4.345447490E0,-1.932204217E-1,-9.568299294E0,2.060818434E0
4.347684733E0,-1.830509305E-1,-9.535398483E0,2.060818434E0
4.349921062E0,-1.884347796E-1,-9.554540634E0,2.089532375E0
4.352155192E0,-1.878365725E-1,-9.525827408E0,2.103889227E0
4.354380351E0,-1.974078715E-1,-9.506684303E0,2.127219439E0
4.356618999E0,-1.878365725E-1,-9.511469841E0,2.136790514E0
4.358856608E0,-1.692921966E-1,-9.512067795E0,2.175673962E0
4.361094462E0,-1.836491376E-1,-9.492925644E0,2.194218397E0
4.363329875E0,-1.932204217E-1,-9.478569031E0,2.213361025E0
4.365566142E0,-1.836491376E-1,-9.473783493E0,2.237289190E0
4.367803264E0,-1.884347796E-1,-9.478569031E0,2.256431818E0
4.370039897E0,-1.836491376E-1,-9.478569031E0,2.270788670E0
4.372280314E0,-1.986042857E-1,-9.473783493E0,2.298904419E0
4.374527018E0,-2.033899277E-1,-9.454640388E0,2.341975212E0
4.376751017E0,-2.033899277E-1,-9.473783493E0,2.346760750E0
4.378988505E0,-2.225325108E-1,-9.459425926E0,2.379662037E0
4.381221049E0,-1.992024779E-1,-9.460023880E0,2.408375978E0
4.383461100E0,-2.135594189E-1,-9.455238342E0,2.422732830E0
4.385697490E0,-2.279163599E-1,-9.436096191E0,2.446661234E0
4.387934672E0,-2.231307179E-1,-9.436096191E0,2.461018085E0
4.390171305E0,-2.333002090E-1,-9.450452805E0,2.498705149E0
4.392409098E0,-2.333002090E-1,-9.455238342E0,2.498705149E0
4.394644877E0,-2.524427772E-1,-9.449854851E0,2.508276224E0
4.396882548E0,-2.476571500E-1,-9.431310654E0,2.522633314E0
4.399118022E0,-2.428714931E-1,-9.426525116E0,2.536990166E0
4.401355021E0,-2.327020019E-1,-9.426525116E0,2.517847538E0
4.403591289E0,-2.524427772E-1,-9.431310654E0,2.556132793E0
4.405825969E0,-2.380858511E-1,-9.436096191E0,2.570489645E0
4.408066264E0,-2.620140910E-1,-9.436096191E0,2.541775942E0
4.410303569E0,-2.428714931E-1,-9.445667267E0,2.541775942E0
4.412539896E0,-2.476571500E-1,-9.440881729E0,2.536990166E0
4.414776591E0,-2.620140910E-1,-9.445069313E0,2.508276224E0
4.417015665E0,-2.428714931E-1,-9.445667267E0,2.498705149E0
4.419263835E0,-2.470589429E-1,-9.435498238E0,2.484348059E0
4.421500408E0,-2.614158690E-1,-9.449854851E0,2.460419893E0
4.423734172E0,-2.566302419E-1,-9.449854851E0,2.455634356E0
4.425959941E0,-2.422732860E-1,-9.445069313E0,2.437089920E0
4.428209086E0,-2.566302419E-1,-9.459425926E0,2.450848579E0
4.430444804E0,-2.566302419E-1,-9.468997002E0,2.413161755E0
4.432682536E0,-2.566302419E-1,-9.468399048E0,2.384447813E0
4.434903422E0,-2.614158690E-1,-9.463613510E0,2.384447813E0
4.437143290E0,-2.805584669E-1,-9.482755661E0,2.365305185E0
4.439391521E0,-2.662015259E-1,-9.487542152E0,2.350948334E0
4.441631450E0,-2.608176768E-1,-9.487542152E0,2.307877541E0
4.443868388E0,-2.757728100E-1,-9.501300812E0,2.307877541E0
4.446100199E0,-2.895315289E-1,-9.506086349E0,2.283949137E0
4.448327067E0,-2.901297510E-1,-9.525228500E0,2.283949137E0
4.450576640E0,-3.092723191E-1,-9.515059471E0,2.288734913E0
4.452812175E0,-2.991028428E-1,-9.524630547E0,2.245664120E0
4.455052165E0,-3.134597540E-1,-9.529416084E0,2.240878344E0
4.457285319E0,-2.991028428E-1,-9.543772697E0,2.207977057E0
4.459522624E0,-3.044866920E-1,-9.567701340E0,2.198405743E0
4.461759684E0,-3.326023519E-1,-9.567103386E0,2.169093609E0
4.463997294E0,-3.326023519E-1,-9.566504478E0,2.159522533E0
4.466233073E0,-3.278166950E-1,-9.576076508E0,2.126621008E0
4.468470561E0,-3.278166950E-1,-9.571290970E0,2.121835470E0
4.470705913E0,-3.326023519E-1,-9.571290970E0,2.117049932E0
4.472943034E0,-3.182454109E-1,-9.590433121E0,2.078764677E0
4.475179606E0,-3.278166950E-1,-9.600004196E0,2.078764677E0
4.477416728E0,-3.134597540E-1,-9.604789734E0,2.050050735E0
4.479653849E0,-2.895315289E-1,-9.605388641E0,2.041077614E0
4.481891520E0,-2.793620527E-1,-9.610174179E0,2.012363911E0
4.484127177E0,-2.650051117E-1,-9.610174179E0,2.002792597E0
4.486364909E0,-2.362912297E-1,-9.615557671E0,2.012962103E0
4.488600139E0,-2.506481707E-1,-9.624530792E0,1.993819475E0
4.490832743E0,-2.321037948E-1,-9.625128746E0,2.003390789E0
4.493056193E0,-2.321037948E-1,-9.634700775E0,2.017747641E0
4.495310527E0,-2.273181528E-1,-9.639486313E0,2.027318954E0
4.497548136E0,-2.231307179E-1,-9.658628464E0,2.046461582E0
4.499789958E0,-2.183450609E-1,-9.640084267E0,2.060818434E0
4.502021525E0,-2.422732860E-1,-9.649057388E0,2.056032896E0
4.504258891E0,-2.518445849E-1,-9.653842926E0,2.065006018E0
4.506494304E0,-2.327020019E-1,-9.634700775E0,2.084148407E0
4.508731608E0,-2.614158690E-1,-9.639486313E0,2.079362869E0
4.510967937E0,-2.662015259E-1,-9.639486313E0,2.093719721E0
4.513204997E0,-2.470589429E-1,-9.639486313E0,2.098505497E0
4.515441813E0,-2.614158690E-1,-9.605986595E0,2.112862349E0
4.517679667E0,-2.560320199E-1,-9.596415520E0,2.117648125E0
4.519915690E0,-2.231307179E-1,-9.587442398E0,2.151147604E0
4.522153056E0,-2.033899277E-1,-9.573683739E0,2.151147604E0
4.524388591E0,-2.033899277E-1,-9.559326172E0,2.160718918E0
4.526625590E0,-1.645065546E-1,-9.526425362E0,2.180459738E0
4.528859232E0,-1.692921966E-1,-9.492925644E0,2.232503414E0
4.531088054E0,-1.740778536E-1,-9.492925644E0,2.246860504E0
4.533336100E0,-1.549352705E-1,-9.488738060E0,2.251646042E0
4.535573649E0,-1.597209126E-1,-9.469595909E0,2.289931297E0
4.537810282E0,-1.411765367E-1,-9.484550476E0,2.299502611E0
4.540039225E0,-1.459621787E-1,-9.460622787E0,2.323430777E0
4.542282634E0,-1.459621787E-1,-9.446265221E0,2.356930256E0
4.544519694E0,-1.411765367E-1,-9.441479683E0,2.389831543E0
4.546757975E0,-1.363908947E-1,-9.437292099E0,2.394617319E0
4.548993083E0,-1.220339537E-1,-9.413364410E0,2.414358139E0
4.551230143E0,-1.214357466E-1,-9.384650230E0,2.452044964E0
4.553467753E0,-1.076770201E-1,-9.399605751E0,2.433500528E0
4.555703898E0,-1.124626622E-1,-9.404391289E0,2.452044964E0
4.557938639E0,-1.124626622E-1,-9.385248184E0,2.480758905E0
4.560164958E0,-1.172483116E-1,-9.390034676E0,2.485544443E0
4.562413676E0,-1.178465188E-1,-9.404391289E0,2.509472847E0
4.564650004E0,-1.130608693E-1,-9.399605751E0,2.528615236E0
4.566890300E0,-1.178465188E-1,-9.399605751E0,2.519043922E0
4.569124186E0,-1.130608693E-1,-9.413962364E0,2.519043922E0
4.571358744E0,-1.178465188E-1,-9.413962364E0,2.533401012E0
4.573585612E0,-1.178465188E-1,-9.413962364E0,2.514258385E0
4.575835368E0,-1.369891018E-1,-9.404391289E0,2.538186550E0
4.578067973E0,-1.369891018E-1,-9.409176826E0,2.509472847E0
4.580299846E0,-1.417747438E-1,-9.413364410E0,2.519043922E0
4.582544353E0,-1.417747438E-1,-9.403793335E0,2.499901533E0
4.584781413E0,-1.178465188E-1,-9.404391289E0,2.514258385E0
4.587021037E0,-1.034895778E-1,-9.404391289E0,2.504687071E0
4.589256022E0,-1.226321608E-1,-9.413962364E0,2.495115757E0
4.591491923E0,-1.178465188E-1,-9.423533440E0,2.499901533E0
4.593729655E0,-1.268195957E-1,-9.404391289E0,2.490330219E0
4.595964763E0,-1.417747438E-1,-9.422935486E0,2.475973129E0
4.598202128E0,-1.316052526E-1,-9.418149948E0,2.447259426E0
4.600435649E0,-1.322034448E-1,-9.432506561E0,2.456830740E0
4.602660868E0,-1.369891018E-1,-9.446864128E0,2.418545485E0
4.604900798E0,-1.316052526E-1,-9.451649666E0,2.400001049E0
4.607150004E0,-1.172483116E-1,-9.451649666E0,2.400001049E0
4.609388896E0,-1.220339537E-1,-9.456435204E0,2.380858421E0
4.611626628E0,-1.268195957E-1,-9.465408325E0,2.361716032E0
4.613859050E0,-1.268195957E-1,-9.470193863E0,2.352144718E0
4.616096171E0,-1.118644550E-1,-9.456435204E0,2.328216314E0
4.618332622E0,-1.124626622E-1,-9.494122505E0,2.309672117E0
4.620569499E0,-9.332008660E-2,-9.509077072E0,2.290529490E0
4.622806620E0,-9.810572863E-2,-9.522835732E0,2.271386862E0
