"Time (s)","Gyroscope x (rad/s)","Gyroscope y (rad/s)","Gyroscope z (rad/s)"
1.507657500E-2,-4.683809280E-1,-1.754710376E-1,1.487456858E-1
1.730766900E-2,-5.025894046E-1,-1.516472995E-1,1.766927689E-1
1.955072600E-2,-5.256495476E-1,-1.293507218E-1,2.035708427E-1
2.178713500E-2,-5.424483418E-1,-1.023199260E-1,2.255619913E-1
2.402457700E-2,-5.543602109E-1,-7.177666575E-2,2.451096773E-1
2.626090500E-2,-5.612324476E-1,-4.505131021E-2,2.599231601E-1
2.849644000E-2,-5.571091175E-1,-2.076941915E-2,2.698497176E-1
3.073337800E-2,-5.493205786E-1,3.359758761E-3,2.748893499E-1
3.297172100E-2,-5.317581892E-1,2.367102914E-2,2.787072659E-1
3.521818100E-2,-5.138903856E-1,4.871650413E-2,2.765692472E-1
3.745792700E-2,-4.864014387E-1,6.765332818E-2,2.683225572E-1
3.969761200E-2,-4.563163519E-1,8.643743396E-2,2.564106882E-1
4.193149900E-2,-4.214970171E-1,1.015563458E-1,2.420553565E-1
4.416910800E-2,-3.817907870E-1,1.140790880E-1,2.254092693E-1
4.640305500E-2,-3.394883573E-1,1.290452778E-1,2.049452960E-1
4.863981100E-2,-2.984076738E-1,1.392772794E-1,1.771509200E-1
5.087516300E-2,-2.536617815E-1,1.492038369E-1,1.507309973E-1
5.311216200E-2,-2.102903575E-1,1.568396538E-1,1.217148975E-1
5.534855200E-2,-1.716531366E-1,1.682933718E-1,8.659014851E-2
5.758585600E-2,-1.342376322E-1,1.760819107E-1,5.513058975E-2
5.982267300E-2,-1.006400511E-1,1.826487035E-1,1.878410578E-2
6.206028300E-2,-7.559457421E-2,1.907426715E-1,-2.015855350E-2
6.429630500E-2,-5.207626149E-2,1.902845204E-1,-5.543602258E-2
6.653379300E-2,-3.084869497E-2,1.861611903E-1,-9.315694869E-2
6.876890100E-2,-1.343903504E-2,1.882992089E-1,-1.272126883E-1
7.100596100E-2,4.581489484E-4,1.904372424E-1,-1.589776874E-1
7.324253400E-2,1.298088674E-2,1.950187236E-1,-1.844813079E-1
7.547965500E-2,2.183843218E-2,1.973094791E-1,-2.089159191E-1
7.771653200E-2,2.580905706E-2,2.032654136E-1,-2.272418737E-1
7.995426500E-2,2.718350291E-2,2.044871449E-1,-2.406809032E-1
8.219016500E-2,2.122756653E-2,2.095267773E-1,-2.553416789E-1
8.442789700E-2,7.635815535E-3,2.073887438E-1,-2.616030276E-1
8.666300500E-2,-5.955935922E-3,2.063197345E-1,-2.666426897E-1
8.890030900E-2,-2.565634064E-2,2.018909603E-1,-2.692388594E-1
9.113657700E-2,-4.688390717E-2,1.913535446E-1,-2.658790946E-1
9.337375900E-2,-7.162395120E-2,1.846340150E-1,-2.635883391E-1
9.561075900E-2,-1.001819000E-1,1.730275750E-1,-2.602286041E-1
9.784604900E-2,-1.266018152E-1,1.492038369E-1,-2.495384514E-1
1.000751140E-1,-1.579086632E-1,1.267545372E-1,-2.388483137E-1
1.023216350E-1,-1.815796942E-1,1.139263660E-1,-2.330450863E-1
1.045570480E-1,-1.992947906E-1,9.605856240E-2,-2.222022265E-1
1.067939860E-1,-2.244929820E-1,6.872233748E-2,-2.115120888E-1
1.090171310E-1,-2.449569702E-1,3.390302137E-2,-2.020436823E-1
1.112526040E-1,-2.654209435E-1,3.054326226E-4,-1.925752759E-1
1.134898490E-1,-2.874121070E-1,-4.306599870E-2,-1.794416606E-1
1.157330730E-1,-3.031418920E-1,-8.765916526E-2,-1.650863290E-1
1.179784950E-1,-3.178026378E-1,-1.394299865E-1,-1.507309973E-1
1.202067060E-1,-3.298672438E-1,-1.841758788E-1,-1.351539344E-1
1.224540810E-1,-3.382666409E-1,-2.313652188E-1,-1.232420653E-1
1.246882730E-1,-3.504839242E-1,-2.796235681E-1,-1.113301888E-1
1.269274700E-1,-3.637702465E-1,-3.242167234E-1,-1.029307917E-1
1.291617230E-1,-3.793473244E-1,-3.640756905E-1,-9.101892263E-2
1.313982950E-1,-3.924809098E-1,-3.988949955E-1,-8.277224004E-2
1.336362100E-1,-4.054618180E-1,-4.277583957E-1,-7.437284291E-2
1.358722940E-1,-4.185954034E-1,-4.639521539E-1,-5.879577994E-2
1.381100870E-1,-4.366159439E-1,-4.951062799E-1,-4.795292020E-2
1.403451340E-1,-4.482223690E-1,-5.192354321E-1,-4.092797264E-2
1.425821940E-1,-4.584543705E-1,-5.384777188E-1,-3.497203439E-2
1.448187060E-1,-4.688390791E-1,-5.612324476E-1,-2.779436857E-2
1.470528360E-1,-4.790710807E-1,-5.841398835E-1,-2.916881628E-2
1.492806190E-1,-4.918992519E-1,-6.081163287E-1,-3.298672289E-2
1.515298870E-1,-5.045747161E-1,-6.310238242E-1,-4.306599870E-2
1.537660320E-1,-5.149593949E-1,-6.574437022E-1,-4.932736978E-2
1.560067550E-1,-5.247332454E-1,-7.107416987E-1,-3.741549700E-2
1.582389330E-1,-5.409211516E-1,-7.771732807E-1,-2.061670274E-2
1.604759930E-1,-5.606215596E-1,-8.350527883E-1,-5.192354787E-3
1.627125650E-1,-5.739079118E-1,-8.784242272E-1,5.497787148E-3
1.649498700E-1,-5.893322229E-1,-9.036223888E-1,1.267545391E-2
1.671865640E-1,-6.006332636E-1,-9.143125415E-1,1.496619824E-2
1.694245400E-1,-6.126978397E-1,-9.068294764E-1,1.252273750E-2
1.716603190E-1,-6.258314252E-1,-8.834638596E-1,3.817907767E-3
1.738978680E-1,-6.284276247E-1,-8.373435140E-1,-4.581489135E-3
1.761329150E-1,-6.285803318E-1,-7.875580192E-1,-1.649336144E-2
1.783702190E-1,-6.235406995E-1,-7.257078886E-1,-2.611448988E-2
1.806065470E-1,-6.146831512E-1,-6.531676650E-1,-3.787364438E-2
1.828436690E-1,-5.994115472E-1,-5.745187402E-1,-5.100724846E-2
1.850805460E-1,-5.816964507E-1,-4.935791194E-1,-6.276640296E-2
1.873185220E-1,-5.589417219E-1,-4.114177525E-1,-7.437284291E-2
1.895538130E-1,-5.338962078E-1,-3.306308091E-1,-8.857546002E-2
1.917904460E-1,-5.051855445E-1,-2.571742535E-1,-1.050688252E-1
1.940269580E-1,-4.754058719E-1,-1.886046380E-1,-1.168279797E-1
1.962643230E-1,-4.468479156E-1,-1.212567538E-1,-1.285871267E-1
1.984980260E-1,-4.173736870E-1,-7.086037099E-2,-1.415680200E-1
2.007230630E-1,-3.845396638E-1,-3.145955876E-2,-1.521054506E-1
2.029598790E-1,-3.518583775E-1,-2.901609987E-3,-1.615738571E-1
2.052006020E-1,-3.233004212E-1,7.483099122E-3,-1.661553532E-1
2.074511520E-1,-2.926044464E-1,3.207042580E-3,-1.695151031E-1
2.096888840E-1,-2.645046413E-1,-4.581489135E-3,-1.742493063E-1
2.119239310E-1,-2.353358418E-1,-2.458732575E-2,-1.777617931E-1
2.141581220E-1,-2.136501223E-1,-5.054909736E-2,-1.788308024E-1
2.163946330E-1,-1.921171248E-1,-8.491026610E-2,-1.812742651E-1
2.186288250E-1,-1.744020283E-1,-1.229366288E-1,-1.824959964E-1
2.208568520E-1,-1.556179225E-1,-1.656972021E-1,-1.824959964E-1
2.231061200E-1,-1.441642046E-1,-2.096794993E-1,-1.826487035E-1
2.253422650E-1,-1.328631938E-1,-2.571742535E-1,-1.802052408E-1
2.275829270E-1,-1.276708394E-1,-3.069597781E-1,-1.779145002E-1
2.298174230E-1,-1.237002090E-1,-3.520110846E-1,-1.719585657E-1
2.320614420E-1,-1.174388453E-1,-4.019493461E-1,-1.660026312E-1
2.342886150E-1,-1.148426682E-1,-4.541783035E-1,-1.551597714E-1
2.365224410E-1,-1.111774743E-1,-5.112941861E-1,-1.420261711E-1
2.387448530E-1,-1.125519201E-1,-5.707008839E-1,-1.311833113E-1
2.409882000E-1,-1.127046347E-1,-6.386595964E-1,-1.180497110E-1
2.432363080E-1,-1.178969890E-1,-7.101308703E-1,-1.036943719E-1
2.454768480E-1,-1.220203340E-1,-7.803803682E-1,-8.933904022E-2
2.477118940E-1,-1.223257631E-1,-8.520042896E-1,-7.131851465E-2
2.499450480E-1,-1.287398487E-1,-9.210320711E-1,-5.696318299E-2
2.521781420E-1,-1.337794960E-1,-9.841039181E-1,-4.001167417E-2
2.544199020E-1,-1.351539344E-1,-1.045953989E0,-2.687807009E-2
2.566537270E-1,-1.400408596E-1,-1.101695418E0,-8.704829961E-3
2.588836470E-1,-1.449277848E-1,-1.156215191E0,4.428773187E-3
2.611302900E-1,-1.522581577E-1,-1.208291411E0,1.511891466E-2
2.633677780E-1,-1.592831165E-1,-1.250593901E0,2.229658142E-2
2.656058760E-1,-1.601994038E-1,-1.288162112E0,2.947424725E-2
2.678396410E-1,-1.644754708E-1,-1.317178130E0,3.054326214E-2
2.700743210E-1,-1.649336219E-1,-1.340238333E0,3.527746722E-2
2.723137010E-1,-1.641700417E-1,-1.358564258E0,3.649919853E-2
2.745507000E-1,-1.629483104E-1,-1.364672899E0,3.283400834E-2
2.767858080E-1,-1.530217379E-1,-1.363603950E0,2.916881628E-2
2.790121260E-1,-1.365283877E-1,-1.339627504E0,2.336559631E-2
2.812616380E-1,-1.186605766E-1,-1.309695125E0,2.000583708E-2
2.834972330E-1,-9.315694869E-2,-1.264032960E0,1.542434748E-2
2.857372850E-1,-6.230825558E-2,-1.204015374E0,9.773843922E-3
2.879677530E-1,-2.764165215E-2,-1.134224057E0,1.832595794E-3
2.901962080E-1,5.955935922E-3,-1.058476806E0,-3.665191587E-3
2.924448040E-1,3.848451003E-2,-9.776898026E-1,-1.160643995E-2
2.946825970E-1,7.116580009E-2,-8.898779750E-1,-1.832595654E-2
2.969212450E-1,1.010981947E-1,-8.054258227E-1,-2.260201424E-2
2.991556810E-1,1.336267740E-1,-7.199047208E-1,-2.443460934E-2
3.013912760E-1,1.649336219E-1,-6.380487680E-1,-2.626720630E-2
3.036284590E-1,1.974621862E-1,-5.513058901E-1,-2.565634064E-2
3.058644210E-1,2.322815061E-1,-4.694499373E-1,-2.138028294E-2
3.081016640E-1,2.672535479E-1,-3.851505518E-1,-1.588249579E-2
3.103384810E-1,2.984076738E-1,-3.020728528E-1,-5.497787148E-3
3.125763960E-1,3.342960179E-1,-2.263255715E-1,0.000000000E0
3.148105270E-1,3.727805018E-1,-1.493565589E-1,1.175915636E-2
3.170431320E-1,4.085161388E-1,-8.216137439E-2,2.199114859E-2
3.192850750E-1,4.418082833E-1,-1.481348183E-2,3.359758854E-2
3.215223800E-1,4.712825418E-1,4.413501546E-2,4.642575979E-2
3.237604170E-1,5.016731024E-1,9.086620808E-2,5.787948146E-2
3.259960130E-1,5.232060552E-1,1.243110746E-1,7.040221989E-2
3.282325240E-1,5.409211516E-1,1.531744599E-1,8.170322329E-2
3.304701340E-1,5.523748994E-1,1.734857261E-1,9.040805697E-2
3.327062170E-1,5.552765131E-1,1.977676302E-1,9.544769675E-2
3.349440110E-1,5.545129180E-1,2.183843255E-1,1.003346145E-1
3.371791180E-1,5.510004759E-1,2.342668176E-1,1.065959856E-1
3.394161180E-1,5.390886068E-1,2.515237629E-1,1.076650023E-1
3.416524460E-1,5.244278312E-1,2.626720667E-1,1.101084575E-1
3.438898110E-1,5.036584139E-1,2.667953968E-1,1.050688252E-1
3.461266890E-1,4.790710807E-1,2.672535479E-1,9.743300825E-2
3.483644820E-1,4.508185387E-1,2.629774809E-1,8.994990587E-2
3.506002600E-1,4.149302244E-1,2.503020465E-1,8.216137439E-2
3.528378090E-1,3.752239645E-1,2.316706479E-1,6.948592514E-2
3.550731610E-1,3.304781020E-1,2.046398520E-1,5.314527452E-2
3.573095510E-1,2.892446816E-1,1.702786833E-1,3.802636266E-2
3.595431320E-1,2.467895597E-1,1.346957833E-1,2.031126991E-2
3.617838540E-1,2.005165219E-1,9.300423414E-2,3.817907767E-3
3.640206710E-1,1.565342247E-1,4.657847434E-2,-1.634064503E-2
3.662593790E-1,1.149953827E-1,-3.512475174E-3,-3.634648025E-2
3.684942420E-1,7.238753140E-2,-5.131268129E-2,-5.772676691E-2
3.707316080E-1,3.084869497E-2,-1.026253626E-1,-8.155050874E-2
3.729671430E-1,-5.803219974E-3,-1.614211351E-1,-1.065959856E-1
3.752042040E-1,-4.260785133E-2,-2.261728644E-1,-1.353066564E-1
3.774406540E-1,-7.712173462E-2,-2.935207486E-1,-1.627955884E-1
3.796778970E-1,-1.114829108E-1,-3.558290005E-1,-1.878410578E-1
3.819147140E-1,-1.394299865E-1,-4.086688459E-1,-2.127338201E-1
3.841522630E-1,-1.660026312E-1,-4.506658316E-1,-2.351831198E-1
3.863881020E-1,-1.896736622E-1,-4.757113159E-1,-2.587014437E-1
3.886258950E-1,-2.083050460E-1,-4.886921942E-1,-2.773328125E-1
3.908612470E-1,-2.264782935E-1,-4.822781086E-1,-2.909245789E-1
3.930983070E-1,-2.382374406E-1,-4.564690590E-1,-3.006984293E-1
3.953346360E-1,-2.446515262E-1,-4.127921760E-1,-3.078760803E-1
3.975719400E-1,-2.470949888E-1,-3.483459055E-1,-3.126102984E-1
3.998087570E-1,-2.417499274E-1,-2.707660198E-1,-3.194825351E-1
4.020428270E-1,-2.287690341E-1,-1.776090711E-1,-3.300199509E-1
4.042681680E-1,-2.141082734E-1,-6.994406879E-2,-3.405573666E-1
4.065196330E-1,-2.003637999E-1,5.726861581E-2,-3.521638215E-1
4.087550460E-1,-1.901318133E-1,1.918116808E-1,-3.662137091E-1
4.109958900E-1,-1.824959964E-1,3.251330256E-1,-3.790418804E-1
4.132289840E-1,-1.797471046E-1,4.549418986E-1,-3.955352604E-1
4.154659830E-1,-1.722639948E-1,5.725334287E-1,-4.158465266E-1
4.177025550E-1,-1.664607823E-1,6.707300544E-1,-4.349360466E-1
4.199403480E-1,-1.612684280E-1,7.385360599E-1,-4.505131245E-1
4.221763710E-1,-1.565342247E-1,7.857254148E-1,-4.650211632E-1
4.244137980E-1,-1.531744599E-1,8.197811842E-1,-4.831944108E-1
4.266492720E-1,-1.562287807E-1,8.477282524E-1,-5.027421117E-1
4.288860880E-1,-1.594358236E-1,8.622363210E-1,-5.222898126E-1
4.311227220E-1,-1.643227488E-1,8.623890281E-1,-5.455026627E-1
4.333597210E-1,-1.704314053E-1,8.552113175E-1,-5.688682795E-1
4.355966590E-1,-1.771509200E-1,8.214610219E-1,-5.874996781E-1
4.378314610E-1,-1.829541475E-1,7.693848014E-1,-6.023131609E-1
4.400585120E-1,-1.866193265E-1,7.087563872E-1,-6.209445000E-1
4.423077800E-1,-1.843285859E-1,6.334672570E-1,-6.334672570E-1
4.445430710E-1,-2.034181207E-1,4.845688641E-1,-6.256787181E-1
4.467831220E-1,-2.342668176E-1,2.994766831E-1,-6.084218025E-1
4.490167040E-1,-2.603813112E-1,1.131627858E-1,-5.885686874E-1
4.512535810E-1,-2.764165103E-1,-5.772676691E-2,-5.612324476E-1
4.534907020E-1,-2.903137207E-1,-1.921171248E-1,-5.349652171E-1
4.557284340E-1,-3.097086847E-1,-2.887865305E-1,-5.135849714E-1
4.579613440E-1,-3.344487250E-1,-3.515529633E-1,-4.955644310E-1
4.601898600E-1,-3.698789179E-1,-3.883575797E-1,-4.838052690E-1
4.624371140E-1,-4.108068645E-1,-4.045455158E-1,-4.708243906E-1
4.646742350E-1,-4.590652287E-1,-4.146247804E-1,-4.627304375E-1
4.669137990E-1,-5.097670555E-1,-4.147774875E-1,-4.495968223E-1
4.691478070E-1,-5.575672388E-1,-4.005748928E-1,-4.353941977E-1
4.713844400E-1,-6.102544069E-1,-3.825543523E-1,-4.185954034E-1
4.736222330E-1,-6.580545902E-1,-3.669773042E-1,-3.969096839E-1
4.758583170E-1,-7.011205554E-1,-3.552181423E-1,-3.691153228E-1
4.780959270E-1,-7.383833528E-1,-3.617849350E-1,-3.400992155E-1
4.803321940E-1,-7.722864151E-1,-3.805690408E-1,-3.049744666E-1
4.825721230E-1,-7.953465581E-1,-4.141666293E-1,-2.660318017E-1
4.848046060E-1,-8.187121153E-1,-4.598288238E-1,-2.286163121E-1
4.870419110E-1,-8.399397135E-1,-5.187773108E-1,-1.837177277E-1
4.892778120E-1,-8.504771590E-1,-5.963571668E-1,-1.375973970E-1
4.915165810E-1,-8.561276197E-1,-6.762278080E-1,-8.414668590E-2
4.937523600E-1,-8.619308472E-1,-7.586946487E-1,-2.458732575E-2
4.959898480E-1,-8.590292335E-1,-8.388707042E-1,3.390302137E-2
4.982249560E-1,-8.498662710E-1,-9.118691087E-1,9.483683109E-2
5.004622600E-1,-8.332201838E-1,-9.801332951E-1,1.595885456E-1
5.026986490E-1,-8.126034737E-1,-1.034042120E0,2.255619913E-1
5.049360150E-1,-7.855727077E-1,-1.076955438E0,2.831360400E-1
5.071699020E-1,-7.518224120E-1,-1.099557400E0,3.359758854E-1
5.093959150E-1,-7.153232098E-1,-1.101390004E0,3.802636266E-1
5.116344400E-1,-6.808093190E-1,-1.086271167E0,4.173736870E-1
5.138838910E-1,-6.444628239E-1,-1.050688267E0,4.459316432E-1
5.161219280E-1,-6.067419052E-1,-9.992228150E-1,4.648684561E-1
5.183592940E-1,-5.720753074E-1,-9.330966473E-1,4.728097022E-1
5.205926310E-1,-5.398521423E-1,-8.573493958E-1,4.746423066E-1
5.228267620E-1,-5.036584139E-1,-7.742717266E-1,4.654793143E-1
5.250546060E-1,-4.647157490E-1,-6.803511381E-1,4.538728893E-1
5.273044230E-1,-4.282165468E-1,-5.852088928E-1,4.350887835E-1
5.295405070E-1,-3.927863538E-1,-4.925101101E-1,4.088215530E-1
5.317810470E-1,-3.514002264E-1,-3.998112977E-1,3.825543523E-1
5.340133470E-1,-3.197879493E-1,-3.045163155E-1,3.538436890E-1
5.362503460E-1,-2.904664278E-1,-2.044871449E-1,3.312416673E-1
5.384866130E-1,-2.756529450E-1,-8.933904022E-2,3.171917796E-1
5.407234910E-1,-2.661845386E-1,1.847867295E-2,3.263547719E-1
5.429606730E-1,-2.632829249E-1,1.105666086E-1,3.622430861E-1
5.451986490E-1,-2.634356320E-1,1.846340150E-1,4.248567820E-1
5.474343060E-1,-2.579378486E-1,2.414444834E-1,5.083925724E-1
5.496717940E-1,-2.612976134E-1,2.913827300E-1,6.052147150E-1
5.519040940E-1,-2.719877362E-1,3.437644243E-1,7.044803500E-1
5.541324870E-1,-2.947424948E-1,4.072943926E-1,8.011497855E-1
5.563808390E-1,-3.295617998E-1,4.807509482E-1,8.733845949E-1
5.586180830E-1,-3.798054755E-1,5.606215596E-1,9.088147879E-1
5.608577070E-1,-4.520402849E-1,6.469063163E-1,9.133962393E-1
5.630927530E-1,-5.291619897E-1,7.212791443E-1,8.933904171E-1
5.653284710E-1,-6.136141419E-1,7.921395302E-1,8.550586104E-1
5.675658370E-1,-6.982190013E-1,8.495608568E-1,8.019133210E-1
5.697996010E-1,-7.782423496E-1,8.972083330E-1,7.452555895E-1
5.720322680E-1,-8.486445546E-1,9.265298843E-1,6.933320761E-1
5.742745770E-1,-9.120218158E-1,9.411906004E-1,6.524040699E-1
5.765118820E-1,-9.689850211E-1,9.240863919E-1,6.360634565E-1
5.787501630E-1,-1.013120055E0,9.272934198E-1,6.307183504E-1
5.809863080E-1,-1.050382733E0,9.705121517E-1,6.269004345E-1
5.832223920E-1,-1.081995010E0,1.054964304E0,6.246097088E-1
5.854601240E-1,-1.099557400E0,1.157131433E0,6.247624159E-1
5.876952920E-1,-1.103833556E0,1.245859623E0,6.226243973E-1
5.899325360E-1,-1.101542711E0,1.298088670E0,6.107125282E-1
5.921687420E-1,-1.083980322E0,1.306182623E0,5.998696685E-1
5.944056810E-1,-1.057560444E0,1.276555657E0,6.061310172E-1
5.966396280E-1,-1.025184631E0,1.239445567E0,6.233879924E-1
5.988680830E-1,-9.958630800E-1,1.238834739E0,6.418666840E-1
6.011164350E-1,-9.607383013E-1,1.278235555E0,6.583600044E-1
6.033539840E-1,-9.217956662E-1,1.317483664E0,6.759223938E-1
6.055925710E-1,-8.738427162E-1,1.321454287E0,6.885978580E-1
6.078233440E-1,-8.321511745E-1,1.312138557E0,6.864598393E-1
6.100469760E-1,-7.951938510E-1,1.306640744E0,6.733261943E-1
6.122810460E-1,-7.553348541E-1,1.326493859E0,6.540839672E-1
6.145248820E-1,-7.319692969E-1,1.376890302E0,6.288857460E-1
6.167745770E-1,-7.076873779E-1,1.409266114E0,6.096435189E-1
6.190023610E-1,-6.869179606E-1,1.399186850E0,5.949827433E-1
6.212506520E-1,-6.776022911E-1,1.421941519E0,5.658139586E-1
6.234829510E-1,-6.699664593E-1,1.478904724E0,5.196936131E-1
6.257230640E-1,-6.695083380E-1,1.545641780E0,4.685336351E-1
6.279538370E-1,-6.719517708E-1,1.588249683E0,4.111123085E-1
6.301793010E-1,-6.753115058E-1,1.587027907E0,3.486513495E-1
6.324186810E-1,-6.818783283E-1,1.542281985E0,2.884811163E-1
6.346684370E-1,-6.947064996E-1,1.444238186E0,2.440406680E-1
6.369043380E-1,-7.104362845E-1,1.321912408E0,2.078468949E-1
6.391328540E-1,-7.339546084E-1,1.184162259E0,1.802052408E-1
6.413773600E-1,-7.553348541E-1,1.037707329E0,1.611157060E-1
6.436143600E-1,-7.852672935E-1,8.926268220E-1,1.540907621E-1
6.458538010E-1,-8.191702962E-1,7.391469479E-1,1.617265791E-1
6.480879930E-1,-8.487972617E-1,5.674937963E-1,2.060143054E-1
6.503246260E-1,-8.813258410E-1,3.872885704E-1,2.674062550E-1
6.525624800E-1,-9.187413454E-1,2.034181207E-1,3.361285925E-1
6.547985030E-1,-9.573785663E-1,2.580905706E-2,4.146247804E-1
6.570361130E-1,-9.923505783E-1,-1.579086632E-1,4.955644310E-1
6.592714030E-1,-1.021519423E0,-3.539963961E-1,5.765040517E-1
6.615084030E-1,-1.042136073E0,-5.539020896E-1,6.563746929E-1
6.637447310E-1,-1.058018565E0,-7.609853745E-1,7.312057018E-1
6.659817910E-1,-1.071152210E0,-9.659306407E-1,7.974845767E-1
6.682186080E-1,-1.075580955E0,-1.164919972E0,8.579602242E-1
6.704562180E-1,-1.077260852E0,-1.348026872E0,9.060658813E-1
6.726910190E-1,-1.075733662E0,-1.507157326E0,9.445503950E-1
6.749247840E-1,-1.073748350E0,-1.640631318E0,9.758572578E-1
6.771655070E-1,-1.067639709E0,-1.756084919E0,9.975429177E-1
6.794025070E-1,-1.067181587E0,-1.848325491E0,1.009454846E0
6.816401170E-1,-1.062447429E0,-1.919949412E0,1.016479731E0
6.838758950E-1,-1.056338668E0,-1.977065325E0,1.018770456E0
6.861129560E-1,-1.041677952E0,-2.039373636E0,1.024726391E0
6.883505050E-1,-1.031751394E0,-2.094046116E0,1.029460669E0
6.905863440E-1,-1.021977544E0,-2.100307465E0,1.036943793E0
6.928238320E-1,-1.011134744E0,-2.111455679E0,1.039387226E0
6.950591840E-1,-9.986119866E-1,-2.101987362E0,1.038318157E0
6.972963060E-1,-9.831876159E-1,-2.070833206E0,1.033736706E0
6.995298870E-1,-9.686795473E-1,-2.025018215E0,1.022893906E0
7.017579750E-1,-9.512699246E-1,-1.963473558E0,1.008691192E0
7.040068160E-1,-9.324858189E-1,-1.888489962E0,9.896016717E-1
7.062446090E-1,-9.109528065E-1,-1.809993744E0,9.656252265E-1
7.084836230E-1,-8.820894361E-1,-1.733024716E0,9.392052889E-1
7.107179360E-1,-8.471173644E-1,-1.653612256E0,9.080511928E-1
7.129532880E-1,-8.118399382E-1,-1.565647602E0,8.720101118E-1
7.151904710E-1,-7.716755271E-1,-1.481500983E0,8.371908069E-1
7.174252120E-1,-7.302893996E-1,-1.396132469E0,7.962628603E-1
7.196581220E-1,-6.873761415E-1,-1.298699498E0,7.518224120E-1
7.219007370E-1,-6.406449080E-1,-1.195157886E0,7.011205554E-1
7.241384080E-1,-5.900958180E-1,-1.094212413E0,6.432411075E-1
7.263758950E-1,-5.355761051E-1,-9.750936627E-1,5.732970238E-1
7.286119790E-1,-4.775438905E-1,-8.755226135E-1,4.897612035E-1
7.308473310E-1,-4.189008474E-1,-8.098546267E-1,4.024074674E-1
7.330843910E-1,-3.562871516E-1,-7.855727077E-1,3.124575615E-1
7.353209640E-1,-2.918408811E-1,-7.941248417E-1,2.200642079E-1
7.375580240E-1,-2.194533348E-1,-8.381071091E-1,1.261436790E-1
7.397949020E-1,-1.438587606E-1,-9.086620808E-1,3.359758854E-2
7.420326340E-1,-6.505715102E-2,-9.999864101E-1,-5.299255997E-2
7.442684730E-1,1.572977938E-2,-1.105971575E0,-1.346957833E-1
7.465060830E-1,1.052215397E-1,-1.219287038E0,-2.176207453E-1
7.487414960E-1,1.895209402E-1,-1.337489486E0,-2.956587672E-1
7.509781290E-1,2.738203406E-1,-1.453095675E0,-3.736968040E-1
7.532147630E-1,3.607159257E-1,-1.567785621E0,-4.529565871E-1
7.554527380E-1,4.442517459E-1,-1.665218711E0,-5.236642361E-1
7.576918740E-1,5.291619897E-1,-1.749365330E0,-5.954409242E-1
7.599264930E-1,6.157521605E-1,-1.815338850E0,-6.647741199E-1
7.621625160E-1,7.014260292E-1,-1.860695481E0,-7.266241908E-1
7.643993330E-1,7.800748944E-1,-1.881617665E0,-7.811439037E-1
7.666354170E-1,8.555167913E-1,-1.880701423E0,-8.257371187E-1
7.688724160E-1,9.277516007E-1,-1.857793927E0,-8.642216325E-1
7.711088060E-1,9.952521920E-1,-1.811826348E0,-8.952230215E-1
7.733460490E-1,1.056949615E0,-1.752419710E0,-9.188940525E-1
7.755827430E-1,1.114065528E0,-1.672243595E0,-9.303477407E-1
7.778177290E-1,1.166599870E0,-1.576185107E0,-9.320276380E-1
7.800443520E-1,1.206917048E0,-1.467756510E0,-9.286679029E-1
7.822941080E-1,1.244943380E0,-1.345888853E0,-9.169087410E-1
7.845291550E-1,1.273501277E0,-1.206917048E0,-8.940013051E-1
7.867695110E-1,1.298546791E0,-1.058018565E0,-8.626944423E-1
7.890027880E-1,1.317483664E0,-8.970556259E-1,-8.251262307E-1
7.912399090E-1,1.333824277E0,-7.408268452E-1,-7.791585922E-1
7.934767250E-1,1.337947607E0,-5.795583725E-1,-7.208209634E-1
7.957147010E-1,1.339322090E0,-4.326453209E-1,-6.554583907E-1
7.979481610E-1,1.337642193E0,-3.089450896E-1,-5.839871764E-1
8.001762490E-1,1.324050426E0,-2.249511331E-1,-5.079344511E-1
8.024235030E-1,1.300990224E0,-1.783726513E-1,-4.271475375E-1
8.046603800E-1,1.275181174E0,-1.463022232E-1,-3.416263759E-1
8.068998830E-1,1.245554209E0,-1.262963861E-1,-2.548835278E-1
8.091341960E-1,1.210734963E0,-1.123992056E-1,-1.658499092E-1
8.113710120E-1,1.174693823E0,-9.468411654E-2,-8.032877743E-2
8.136085610E-1,1.131475091E0,-7.315111160E-2,6.261368748E-3
8.158444010E-1,1.094670534E0,-3.848451003E-2,9.300423414E-2
8.180821330E-1,1.047023058E0,8.552113548E-3,1.771509200E-1
8.203173020E-1,1.001971722E0,5.910121277E-2,2.590068579E-1
8.225546060E-1,9.581421614E-1,1.134682223E-1,3.408628106E-1
8.247908740E-1,9.118691087E-1,1.615738571E-1,4.176791012E-1
8.270279950E-1,8.680394888E-1,2.122756690E-1,4.958698750E-1
8.292648110E-1,8.242099285E-1,2.628247738E-1,5.677992702E-1
8.315026040E-1,7.779368758E-1,3.086396754E-1,6.349944472E-1
8.337385050E-1,7.302893996E-1,3.495676219E-1,6.995934248E-1
8.359762370E-1,6.815729141E-1,3.978259861E-1,7.593054771E-1
8.382123220E-1,6.340781450E-1,4.424191415E-1,8.141306639E-1
8.404525560E-1,5.902485251E-1,4.821254015E-1,8.640688658E-1
8.426849170E-1,5.438227654E-1,5.122104883E-1,9.054549932E-1
8.449220380E-1,5.018258095E-1,5.227479339E-1,9.442449808E-1
8.471578770E-1,4.596760869E-1,5.161811113E-1,9.732610583E-1
8.493966470E-1,4.208861589E-1,4.987714589E-1,1.003498912E0
8.516324870E-1,3.842342496E-1,4.595233798E-1,1.025031924E0
8.538700360E-1,3.486513495E-1,4.091269970E-1,1.038012743E0
8.561053880E-1,3.153591752E-1,3.466660380E-1,1.043510556E0
8.583426920E-1,2.868012190E-1,2.719877362E-1,1.041830659E0
8.605790210E-1,2.603813112E-1,1.803579628E-1,1.032667756E0
8.628160810E-1,2.399173230E-1,8.124507964E-2,1.023504734E0
8.650528970E-1,2.217440903E-1,-3.252857551E-2,1.010676503E0
8.672906900E-1,2.174680233E-1,-1.841758788E-1,1.007469535E0
8.695265300E-1,2.101376504E-1,-3.016147017E-1,1.004567862E0
8.717640790E-1,2.093740702E-1,-4.048509300E-1,9.906707406E-1
8.739993700E-1,2.148718536E-1,-5.044219494E-1,9.669997096E-1
8.762364910E-1,2.246456891E-1,-5.798638463E-1,9.349292517E-1
8.784730630E-1,2.336559594E-1,-6.383541822E-1,8.907942176E-1
8.807101240E-1,2.432770878E-1,-6.711881757E-1,8.356636763E-1
8.829463910E-1,2.541199327E-1,-6.992880106E-1,7.780895829E-1
8.851793010E-1,2.677116990E-1,-7.177666426E-1,7.145596147E-1
8.874086100E-1,2.767219543E-1,-7.203628421E-1,6.461427212E-1
8.896581220E-1,2.898555696E-1,-7.072292566E-1,5.777258277E-1
8.918940840E-1,2.970332205E-1,-6.794348955E-1,5.080871582E-1
8.941337080E-1,2.985603809E-1,-6.273586154E-1,4.386012554E-1
8.963668010E-1,2.976440787E-1,-5.739079118E-1,3.703370690E-1
8.986038620E-1,2.869539559E-1,-5.154175758E-1,3.019201458E-1
9.008407390E-1,2.785545588E-1,-4.667010605E-1,2.396118939E-1
9.030788370E-1,2.602286041E-1,-4.178318381E-1,1.797471046E-1
9.053146770E-1,2.342668176E-1,-3.820962012E-1,1.209513173E-1
9.075521650E-1,2.032654136E-1,-3.572034538E-1,6.444628537E-2
9.097872110E-1,1.670716405E-1,-3.346014321E-1,1.527163107E-2
9.120245160E-1,1.272126883E-1,-3.132211566E-1,-3.023782931E-2
9.142608440E-1,8.720101416E-2,-2.979495227E-1,-6.841690838E-2
9.164980270E-1,4.825835302E-2,-2.825251818E-1,-9.926560521E-2
9.187320960E-1,5.650503561E-3,-2.658790946E-1,-1.215621829E-1
9.209579260E-1,-3.711006418E-2,-2.565633953E-1,-1.403462887E-1
9.231967570E-1,-8.231408894E-2,-2.460259795E-1,-1.504255682E-1
9.254461470E-1,-1.215621829E-1,-2.342668176E-1,-1.531744599E-1
9.276842450E-1,-1.631010175E-1,-2.214386463E-1,-1.522581577E-1
9.299216110E-1,-2.058615834E-1,-2.047925740E-1,-1.488984078E-1
9.321551310E-1,-2.461786866E-1,-1.881465018E-1,-1.394299865E-1
9.343920700E-1,-2.828305960E-1,-1.705841124E-1,-1.273654103E-1
9.366260780E-1,-3.182607889E-1,-1.528690308E-1,-1.177442744E-1
9.388545940E-1,-3.501785100E-1,-1.437060535E-1,-1.082758680E-1
9.411025190E-1,-3.773620129E-1,-1.432479024E-1,-9.865473956E-2
9.433402510E-1,-4.007275999E-1,-1.427897513E-1,-9.269879758E-2
9.455785330E-1,-4.156937897E-1,-1.472185254E-1,-9.040805697E-2
9.478097330E-1,-4.230241776E-1,-1.482875347E-1,-9.178250283E-2
9.500381880E-1,-4.243986309E-1,-1.495092660E-1,-8.933904022E-2
9.522860520E-1,-4.169155359E-1,-1.472185254E-1,-9.407325089E-2
9.545232340E-1,-4.008803070E-1,-1.463022232E-1,-9.651670605E-2
9.567607220E-1,-3.843869567E-1,-1.296561509E-1,-1.010981947E-1
9.589850260E-1,-3.594942093E-1,-1.131627858E-1,-1.046106741E-1
9.612339890E-1,-3.318525553E-1,-8.582656831E-2,-1.090394482E-1
9.634663490E-1,-2.945897579E-1,-6.948592514E-2,-1.050688252E-1
9.656976730E-1,-2.583959997E-1,-4.474587739E-2,-1.009454802E-1
9.679403480E-1,-2.215913683E-1,1.160643995E-2,-1.015563458E-1
9.701683760E-1,-1.776090711E-1,5.314527452E-2,-1.072068512E-1
9.724199630E-1,-1.375973970E-1,7.910704613E-2,-1.091921628E-1
9.746549480E-1,-9.804387391E-2,1.463022232E-1,-1.134682223E-1
9.768937790E-1,-6.200282276E-2,2.196060568E-1,-1.238529310E-1
9.791283980E-1,-2.611448988E-2,2.880229652E-1,-1.368338168E-1
9.813636270E-1,4.734205548E-3,3.481931984E-1,-1.435533315E-1
9.836006880E-1,3.298672289E-2,4.082106948E-1,-1.443169117E-1
9.858370160E-1,5.635231733E-2,4.636467099E-1,-1.389718503E-1
9.880740770E-1,7.834346592E-2,5.190827250E-1,-1.301143020E-1
9.903109540E-1,9.514226019E-2,5.635231733E-1,-1.174388453E-1
9.925487470E-1,1.032362282E-1,6.023131609E-1,-1.014036313E-1
9.947846480E-1,1.111774743E-1,6.372851729E-1,-8.888089657E-2
9.970224410E-1,1.154535338E-1,6.724098921E-1,-6.918048859E-2
9.992576700E-1,1.169806942E-1,6.966918111E-1,-5.070181563E-2
1.001494548E0,1.172861308E-1,7.136433125E-1,-3.588833287E-2
1.003730998E0,1.149953827E-1,7.293730974E-1,-2.000583708E-2
1.005965006E0,1.101084575E-1,7.380779386E-1,-1.679879380E-3
1.008190592E0,1.052215397E-1,7.429648638E-1,1.664607786E-2
1.010430827E0,1.014036313E-1,7.418958545E-1,3.497203439E-2
1.012678691E0,9.758572280E-2,7.382306457E-1,4.963280261E-2
1.014918987E0,9.117163718E-2,7.334964275E-1,6.551529467E-2
1.017154216E0,8.231408894E-2,7.264714837E-1,7.757988572E-2
1.019388530E0,7.590000331E-2,7.144069076E-1,8.735372871E-2
1.021624919E0,6.582073122E-2,7.049384713E-1,9.330966324E-2
1.023862284E0,5.421429127E-2,6.869179606E-1,9.682214260E-2
1.026099101E0,4.795292020E-2,6.772968173E-1,9.911288321E-2
1.028336894E0,4.291328415E-2,6.701191664E-1,9.666942805E-2
1.030572673E0,3.405573592E-2,6.606507897E-1,8.796459436E-2
1.032810222E0,3.512475267E-2,6.508769393E-1,8.063421398E-2
1.035045573E0,3.512475267E-2,6.400340796E-1,6.948592514E-2
1.037282878E0,3.726277873E-2,6.241515875E-1,5.726861581E-2
1.039519206E0,4.077525437E-2,6.082690954E-1,4.489859566E-2
1.041756266E0,4.535674304E-2,5.876523852E-1,2.901609987E-2
1.043993083E0,5.604688451E-2,5.667302608E-1,1.435533352E-2
1.046230876E0,6.444628537E-2,5.459607840E-1,-1.527163084E-3
1.048466655E0,7.635815442E-2,5.227479339E-1,-1.618792862E-2
1.050702555E0,8.460483700E-2,4.970915914E-1,-2.977968007E-2
1.052934733E0,9.758572280E-2,4.700607955E-1,-4.321871698E-2
1.055180766E0,1.094975919E-1,4.468479156E-1,-5.665775016E-2
1.057413005E0,1.226311997E-1,4.210388660E-1,-6.887505949E-2
1.059651530E0,1.345430762E-1,3.917173445E-1,-8.109235764E-2
1.061886150E0,1.438587606E-1,3.623957932E-1,-8.979719132E-2
1.064124980E0,1.507309973E-1,3.342960179E-1,-9.834930301E-2
1.066360820E0,1.597412676E-1,2.929098904E-1,-1.046106741E-1
1.068598307E0,1.762346178E-1,2.550362349E-1,-1.058324054E-1
1.070833598E0,1.876883507E-1,2.183843255E-1,-1.046106741E-1
1.073070659E0,1.966986060E-1,1.744020283E-1,-1.023199260E-1
1.075307048E0,2.153300047E-1,1.279762685E-1,-9.132435173E-2
1.077544352E0,2.257147133E-1,9.376781434E-2,-8.399397135E-2
1.079781230E0,2.383901626E-1,5.589416996E-2,-7.544185966E-2
1.082019023E0,2.496911734E-1,4.734205548E-3,-7.437284291E-2
1.084254801E0,2.597704530E-1,-4.642575979E-2,-7.208210230E-2
1.086491251E0,2.709187269E-1,-9.880745411E-2,-7.101308554E-2
1.088720195E0,2.809980214E-1,-1.499674171E-1,-7.467827946E-2
1.090952556E0,2.913827300E-1,-1.890627891E-1,-7.849618047E-2
1.093201335E0,3.028364480E-1,-2.281581759E-1,-8.582656831E-2
1.095439494E0,3.156646192E-1,-2.658790946E-1,-9.208793938E-2
1.097678264E0,3.236058652E-1,-3.013092875E-1,-9.941831976E-2
1.099912761E0,3.277291954E-1,-3.426954150E-1,-1.020144969E-1
1.102148844E0,3.332269788E-1,-3.779728711E-1,-1.070541367E-1
1.104386332E0,3.399465084E-1,-4.144720733E-1,-1.120937690E-1
1.106621501E0,3.391829133E-1,-4.508185387E-1,-1.183551401E-1
1.108855815E0,3.361285925E-1,-4.871650338E-1,-1.270599663E-1
1.111080363E0,3.320052624E-1,-5.114469528E-1,-1.394299865E-1
1.113320353E0,3.229950070E-1,-5.331326723E-1,-1.518000066E-1
1.115569499E0,3.141374588E-1,-5.474879742E-1,-1.641700417E-1
1.117808879E0,3.017674387E-1,-5.557346344E-1,-1.777617931E-1
1.120042277E0,2.822197378E-1,-5.564982295E-1,-1.864666194E-1
1.122280314E0,2.638937831E-1,-5.500841737E-1,-1.963931769E-1
1.124515544E0,2.446515262E-1,-5.326744914E-1,-2.063197345E-1
1.126753703E0,2.228130996E-1,-5.177083015E-1,-2.125810981E-1
1.128984477E0,1.947132945E-1,-5.086980462E-1,-2.151772827E-1
1.131207682E0,1.576032341E-1,-5.091561675E-1,-2.008219510E-1
1.133463053E0,1.180497110E-1,-5.157229900E-1,-1.815796942E-1
1.135700847E0,7.467827946E-2,-5.184718966E-1,-1.612684280E-1
1.137938456E0,2.886338346E-2,-5.199990273E-1,-1.346957833E-1
1.140164775E0,-1.695151068E-2,-5.190827250E-1,-9.590584040E-2
1.142395854E0,-6.337726861E-2,-4.952589869E-1,-6.444628537E-2
1.144632487E0,-1.049161032E-1,-4.688390791E-1,-4.382958263E-2
1.146869182E0,-1.375973970E-1,-4.439463317E-1,-3.665191308E-2
1.149108806E0,-1.716531366E-1,-4.239404798E-1,-3.573561832E-2
1.151345500E0,-2.021963894E-1,-4.098905921E-1,-3.833179548E-2
1.153582927E0,-2.350303978E-1,-3.947716653E-1,-4.825835302E-2
1.155818949E0,-2.680171132E-1,-3.831652105E-1,-6.444628537E-2
1.158056620E0,-2.994766831E-1,-3.619376719E-1,-7.803803682E-2
1.160292399E0,-3.307835162E-1,-3.321579695E-1,-9.422596544E-2
1.162529155E0,-3.643811047E-1,-2.974913716E-1,-1.090394482E-1
1.164769206E0,-3.929390609E-1,-2.545780838E-1,-1.188132912E-1
1.167017131E0,-4.214970171E-1,-2.054034323E-1,-1.275181174E-1
1.169254130E0,-4.514294267E-1,-1.672243625E-1,-1.360702366E-1
1.171492716E0,-4.766276181E-1,-1.339322031E-1,-1.435533315E-1
1.173728923E0,-5.044219494E-1,-1.139263660E-1,-1.498146951E-1
1.175962321E0,-5.264131427E-1,-1.050688252E-1,-1.536326110E-1
1.178197673E0,-5.438227654E-1,-1.119410545E-1,-1.562287807E-1
1.180433939E0,-5.612324476E-1,-1.238529310E-1,-1.614211351E-1
1.182671306E0,-5.688682795E-1,-1.394299865E-1,-1.638645977E-1
1.184908366E0,-5.716171265E-1,-1.563815027E-1,-1.640173197E-1
1.187145182E0,-5.694791079E-1,-1.721112877E-1,-1.640173197E-1
1.189382975E0,-5.623014569E-1,-1.808161139E-1,-1.627955884E-1
1.191618815E0,-5.502368808E-1,-1.882992089E-1,-1.579086632E-1
1.193856364E0,-5.306891799E-1,-1.924225539E-1,-1.540907621E-1
1.196091716E0,-5.122104883E-1,-1.915062517E-1,-1.453859210E-1
1.198326884E0,-4.813618064E-1,-1.860084683E-1,-1.401935667E-1
1.200556743E0,-4.515821338E-1,-1.768454909E-1,-1.337794960E-1
1.202802165E0,-4.219551682E-1,-1.653917581E-1,-1.322523206E-1
1.205039225E0,-3.869831264E-1,-1.453859210E-1,-1.281289905E-1
1.207279154E0,-3.509420753E-1,-1.302670091E-1,-1.314887404E-1
1.209512980E0,-3.161227703E-1,-1.116356254E-1,-1.371392459E-1
1.211750712E0,-2.825251818E-1,-9.651670605E-2,-1.466076523E-1
1.213986003E0,-2.501493096E-1,-8.613199741E-2,-1.585195363E-1
1.216223002E0,-2.215913683E-1,-7.590000331E-2,-1.730275750E-1
1.218459086E0,-1.957823038E-1,-8.002334833E-2,-1.837177277E-1
1.220696391E0,-1.685988009E-1,-8.048149943E-2,-1.970040351E-1
1.222933268E0,-1.463022232E-1,-8.093964309E-2,-2.102903575E-1
1.225171122E0,-1.266018152E-1,-8.124507964E-2,-2.211332172E-1
1.227406901E0,-1.079704314E-1,-8.292495459E-2,-2.319760770E-1
1.229644450E0,-9.560041130E-2,-7.712173462E-2,-2.391537428E-1
1.231879741E0,-8.445212245E-2,-7.605272532E-2,-2.452623993E-1
1.234116801E0,-7.574728876E-2,-7.131851465E-2,-2.487748712E-1
1.236353129E0,-6.688974798E-2,-6.673702598E-2,-2.535090744E-1
1.238590251E0,-6.307183951E-2,-6.078109145E-2,-2.571742535E-1
1.240827311E0,-5.925392732E-2,-5.467243865E-2,-2.608394623E-1
1.243064860E0,-5.925392732E-2,-5.345070735E-2,-2.620611787E-1
1.245300761E0,-6.154467165E-2,-5.100724846E-2,-2.645046413E-1
1.247538432E0,-6.536258012E-2,-5.222897977E-2,-2.669481039E-1
1.249773601E0,-7.024950534E-2,-5.329799280E-2,-2.669481039E-1
1.252010905E0,-7.406741381E-2,-5.558873713E-2,-2.634356320E-1
1.254247233E0,-8.032877743E-2,-6.276640296E-2,-2.609921694E-1
1.256484599E0,-8.307767659E-2,-7.360926270E-2,-2.562579811E-1
1.258721354E0,-8.582656831E-2,-8.216137439E-2,-2.477058619E-1
1.260955973E0,-8.720101416E-2,-9.056077152E-2,-2.403754741E-1
1.263183024E0,-8.017606288E-2,-1.017090604E-1,-2.281581759E-1
1.265432536E0,-7.437284291E-2,-1.163698286E-1,-2.147191316E-1
1.267667888E0,-6.230825558E-2,-1.275181174E-1,-2.072360367E-1
1.269907939E0,-4.535674304E-2,-1.386664063E-1,-1.974621862E-1
1.272141521E0,-2.611448988E-2,-1.536326110E-1,-1.863138974E-1
1.274378581E0,-6.719517522E-3,-1.661553532E-1,-1.715004146E-1
1.276612406E0,1.252273750E-2,-1.835650057E-1,-1.615738571E-1
1.278840861E0,3.436116874E-2,-1.997529417E-1,-1.492038369E-1
1.281088481E0,5.589416996E-2,-2.208277881E-1,-1.394299865E-1
1.283326274E0,7.880161703E-2,-2.443460971E-1,-1.307251602E-1
1.285564678E0,9.544769675E-2,-2.701551616E-1,-1.220203340E-1
1.287799784E0,1.192714423E-1,-3.106249869E-1,-1.195768714E-1
1.290038249E0,1.354593635E-1,-3.594942093E-1,-1.160643995E-1
1.292272441E0,1.502728462E-1,-4.179845452E-1,-1.148426682E-1
1.294509501E0,1.661553532E-1,-4.862487316E-1,-1.137736514E-1
1.296743815E0,1.794416606E-1,-5.581781268E-1,-1.102611795E-1
1.298972148E0,1.863138974E-1,-6.383541822E-1,-1.007927656E-1
1.301220622E0,1.921171248E-1,-7.101308703E-1,-8.750644326E-2
1.303455913E0,1.905899495E-1,-7.817547917E-1,-6.826419383E-2
1.305695780E0,1.866193265E-1,-8.458956480E-1,-4.535674304E-2
1.307926554E0,1.789835095E-1,-9.089674950E-1,-1.756237634E-2
1.310154460E0,1.675297916E-1,-9.766207933E-1,2.000583708E-2
1.312403483E0,1.487456858E-1,-1.041830659E0,6.368270516E-2
1.314641032E0,1.272126883E-1,-1.111774802E0,1.120937690E-1
1.316880168E0,1.044579595E-1,-1.185384035E0,1.679879427E-1
1.319114665E0,7.559457421E-2,-1.250288486E0,2.273945808E-1
1.321349956E0,4.688390717E-2,-1.311680436E0,2.918408811E-1
1.323586833E0,9.773843922E-3,-1.352302909E0,3.646865487E-1
1.325823649E0,-2.962696366E-2,-1.385442376E0,4.450153410E-1
1.328060710E0,-7.116580009E-2,-1.407738924E0,5.290092826E-1
1.330297587E0,-1.139263660E-1,-1.417818189E0,6.203336716E-1
1.332535075E0,-1.601994038E-1,-1.420567155E0,7.203628421E-1
1.334771159E0,-2.139555514E-1,-1.420719862E0,8.251262307E-1
1.337008708E0,-2.677116990E-1,-1.425759435E0,9.323330522E-1
1.339244060E0,-3.178026378E-1,-1.432173610E0,1.038318157E0
1.341481059E0,-3.717114925E-1,-1.446834326E0,1.145372391E0
1.343717387E0,-4.175263941E-1,-1.477530360E0,1.257466078E0
1.345954448E0,-4.561636150E-1,-1.525330544E0,1.362229466E0
1.348191325E0,-4.902193546E-1,-1.592678428E0,1.470505357E0
1.350429118E0,-5.187773108E-1,-1.689195156E0,1.573894262E0
1.352665019E0,-5.427537560E-1,-1.806481242E0,1.677283287E0
1.354902751E0,-5.607742667E-1,-1.934762955E0,1.771967411E0
1.357137797E0,-5.658139586E-1,-2.088853598E0,1.865582466E0
1.359374919E0,-5.687155724E-1,-2.263561249E0,1.956601381E0
1.361611430E0,-5.696318150E-1,-2.457663536E0,2.041511536E0
1.363848552E0,-5.635231733E-1,-2.672535419E0,2.126269102E0
1.366082438E0,-5.476406813E-1,-2.893821478E0,2.209957838E0
1.368311992E0,-5.329799056E-1,-3.118619680E0,2.289981127E0
1.370562175E0,-5.258022547E-1,-3.348152399E0,2.363743067E0
1.372796611E0,-5.148066878E-1,-3.569132805E0,2.437657833E0
1.375035137E0,-5.035057068E-1,-3.776979923E0,2.496758938E0
1.377268412E0,-4.992296100E-1,-3.972456694E0,2.548682451E0
1.379505534E0,-4.957171381E-1,-4.153272629E0,2.596940756E0
1.381742534E0,-4.946481287E-1,-4.322024345E0,2.647642612E0
1.383979411E0,-5.059491396E-1,-4.496579170E0,2.704300404E0
1.386217204E0,-5.218316317E-1,-4.652807713E0,2.762332678E0
1.388452983E0,-5.374087095E-1,-4.795750141E0,2.814256191E0
1.390690409E0,-5.502368808E-1,-4.924184799E0,2.858849287E0
1.392926188E0,-5.639813542E-1,-5.041623592E0,2.902373552E0
1.395163188E0,-5.751296282E-1,-5.154175282E0,2.944675922E0
1.397399394E0,-5.861251950E-1,-5.257106304E0,2.978426218E0
1.399636638E0,-5.980370641E-1,-5.352859497E0,3.008511305E0
1.401873698E0,-6.099489331E-1,-5.439907551E0,3.034931183E0
1.404111003E0,-6.165157557E-1,-5.516265869E0,3.059060335E0
1.406345866E0,-6.265950203E-1,-5.580406666E0,3.084411383E0
1.408584575E0,-6.352998614E-1,-5.632483006E0,3.109762192E0
1.410819926E0,-6.436992288E-1,-5.672341824E0,3.138931036E0
1.413057292E0,-6.554583907E-1,-5.702426910E0,3.168099880E0
1.415293376E0,-6.659958363E-1,-5.724112988E0,3.203377247E0
1.417530681E0,-6.753115058E-1,-5.744576931E0,3.247206926E0
1.419767558E0,-6.870706677E-1,-5.757710457E0,3.296076059E0
1.422005351E0,-6.985244155E-1,-5.758626461E0,3.348610640E0
1.424241130E0,-7.089090943E-1,-5.760917187E0,3.409697056E0
1.426478679E0,-7.189884186E-1,-5.754655838E0,3.472005367E0
1.428713969E0,-7.304421067E-1,-5.752059937E0,3.541643858E0
1.430951091E0,-7.434229851E-1,-5.752975941E0,3.617391348E0
1.433187663E0,-7.489207983E-1,-5.756488800E0,3.696956396E0
1.435424723E0,-7.568620443E-1,-5.757557869E0,3.780034065E0
1.437661601E0,-7.686212063E-1,-5.759848595E0,3.865555286E0
1.439899333E0,-7.817547917E-1,-5.769316673E0,3.953519821E0
1.442135173E0,-7.959573865E-1,-5.778632641E0,4.037819386E0
1.444373027E0,-8.078693151E-1,-5.785809994E0,4.120896816E0
1.446609233E0,-8.194757104E-1,-5.786726475E0,4.200309277E0
1.448845134E0,-8.298604488E-1,-5.789017200E0,4.276056767E0
1.451081645E0,-8.379544020E-1,-5.796195030E0,4.344473839E0
1.453318156E0,-8.422304392E-1,-5.804594040E0,4.408003807E0
1.455555400E0,-8.463537693E-1,-5.809328556E0,4.464355946E0
1.457795878E0,-8.480336666E-1,-5.815437317E0,4.513225079E0
1.460039286E0,-8.483390808E-1,-5.816658974E0,4.555985928E0
1.462266826E0,-8.425359130E-1,-5.819102287E0,4.592790127E0
1.464502055E0,-8.304712772E-1,-5.820629597E0,4.621042728E0
1.466736614E0,-8.133670688E-1,-5.817269802E0,4.644408226E0
1.468975505E0,-7.935139537E-1,-5.806732178E0,4.664261341E0
1.471212870E0,-7.661777139E-1,-5.787948132E0,4.680449486E0
1.473449870E0,-7.299839854E-1,-5.759542942E0,4.689459801E0
1.475687236E0,-6.861543655E-1,-5.725181580E0,4.696026802E0
1.477920330E0,-6.349944472E-1,-5.688529968E0,4.703968048E0
1.480149028E0,-5.714644194E-1,-5.648518085E0,4.710840225E0
1.482396159E0,-5.027421117E-1,-5.598885536E0,4.716490746E0
1.484633159E0,-4.303545654E-1,-5.540853024E0,4.725958824E0
1.486868937E0,-3.524692357E-1,-5.467091084E0,4.736649036E0
1.489092753E0,-2.707660198E-1,-5.375308514E0,4.745048523E0
1.491343913E0,-1.922698319E-1,-5.268865585E0,4.759709358E0
1.493581279E0,-1.159116775E-1,-5.141652584E0,4.775439262E0
1.495820841E0,-5.528330430E-2,-4.997183323E0,4.783991337E0
1.498051859E0,-5.497787148E-3,-4.844008446E0,4.798499107E0
1.500278544E0,3.344487399E-2,-4.683351040E0,4.814076424E0
1.502527446E0,5.604688451E-2,-4.530940056E0,4.829653263E0
1.504763591E0,6.627888232E-2,-4.384332657E0,4.852255344E0
1.507003825E0,6.032294407E-2,-4.245819092E0,4.879744530E0
1.509237651E0,4.642575979E-2,-4.131587029E0,4.919297695E0
1.511475322E0,2.474004216E-2,-4.030336380E0,4.963432789E0
1.513711283E0,-8.399397135E-3,-3.943593264E0,5.011232853E0
1.515945658E0,-4.169155285E-2,-3.875023603E0,5.055367947E0
1.518172282E0,-7.528914511E-2,-3.814853430E0,5.096906662E0
1.520421306E0,-1.039998084E-1,-3.764609814E0,5.133558750E0
1.522657939E0,-1.267545372E-1,-3.721696615E0,5.154328346E0
1.524897990E0,-1.420261711E-1,-3.687335253E0,5.161658764E0
1.527132060E0,-1.450804919E-1,-3.653279543E0,5.158145905E0
1.529369548E0,-1.441642046E-1,-3.614489555E0,5.138751030E0
1.531605387E0,-1.258382350E-1,-3.569896460E0,5.110956669E0
1.533842875E0,-9.498954564E-2,-3.520721912E0,5.072166920E0
1.536078227E0,-5.772676691E-2,-3.462078810E0,5.020090580E0
1.538315348E0,-1.282817032E-2,-3.388927698E0,4.965723515E0
1.540551860E0,3.497203439E-2,-3.304933786E0,4.906622410E0
1.542788676E0,9.254608303E-2,-3.218648911E0,4.840037823E0
1.545025614E0,1.492038369E-1,-3.118925333E0,4.768719673E0
1.547263591E0,2.110539377E-1,-3.008511305E0,4.687779903E0
1.549499491E0,2.710714638E-1,-2.867706776E0,4.614170551E0
1.551737040E0,3.355177343E-1,-2.690556049E0,4.542088509E0
1.553972270E0,3.908010423E-1,-2.539977789E0,4.463592529E0
1.556209391E0,4.523457289E-1,-2.395508051E0,4.363104820E0
1.558445964E0,5.239696503E-1,-2.247525930E0,4.226118565E0
1.560682963E0,5.911648273E-1,-2.133599520E0,4.091269970E0
1.562919657E0,6.514877677E-1,-2.059532166E0,3.958712339E0
1.565157634E0,7.087563872E-1,-2.009593964E0,3.830888748E0
1.567393473E0,7.582364678E-1,-1.981494188E0,3.705508471E0
1.569631083E0,8.049677014E-1,-1.965306163E0,3.583488226E0
1.571866313E0,8.489499688E-1,-1.960113883E0,3.465285778E0
1.574103373E0,8.868235946E-1,-1.958433986E0,3.348152399E0
1.576336711E0,9.230173826E-1,-1.970040441E0,3.235753298E0
1.578564860E0,9.553932548E-1,-1.986381054E0,3.129615307E0
1.580813945E0,9.778425694E-1,-2.006234169E0,3.025615454E0
1.583051738E0,9.967793822E-1,-2.016313553E0,2.927877188E0
1.585290568E0,1.009760261E0,-2.015397072E0,2.839912415E0
1.587525004E0,1.024115562E0,-1.993864179E0,2.781422138E0
1.589760112E0,1.029766083E0,-1.980577826E0,2.721557379E0
1.591997416E0,1.016479731E0,-1.983937621E0,2.668717623E0
1.594230754E0,9.931141734E-1,-2.002874374E0,2.623208046E0
1.596458903E0,9.669997096E-1,-2.031432390E0,2.573880672E0
1.598707682E0,9.334021211E-1,-2.067167997E0,2.518444777E0
1.600945475E0,8.961393237E-1,-2.100460052E0,2.456747293E0
1.603184367E0,8.663596511E-1,-2.133904934E0,2.389093876E0
1.605419169E0,8.442157507E-1,-2.163684607E0,2.317775488E0
1.607651530E0,8.231409192E-1,-2.192395449E0,2.242944479E0
1.609876872E0,8.058840036E-1,-2.215150118E0,2.169182539E0
1.612116130E0,7.826710939E-1,-2.232865095E0,2.095573187E0
1.614365153E0,7.557930350E-1,-2.244471550E0,2.027920008E0
1.616602396E0,7.255551815E-1,-2.243860722E0,1.965306163E0
1.618832439E0,6.864598393E-1,-2.244318962E0,1.908648491E0
1.621075419E0,6.377432942E-1,-2.238515615E0,1.860542774E0
1.623313334E0,5.876523852E-1,-2.235155821E0,1.814880610E0
1.625550761E0,5.313000679E-1,-2.233934164E0,1.775174379E0
1.627782206E0,4.790710807E-1,-2.207514286E0,1.754099607E0
1.630007426E0,4.346306324E-1,-2.152078152E0,1.746616483E0
1.632255290E0,3.889684379E-1,-2.092824221E0,1.756237626E0
1.634495768E0,3.442225754E-1,-2.043496847E0,1.782962918E0
1.636736124E0,2.942843437E-1,-2.002416372E0,1.824349046E0
1.638964274E0,2.417499274E-1,-1.973552942E0,1.866804242E0
1.641192545E0,1.901318133E-1,-1.951867223E0,1.911702752E0
1.643427775E0,1.362229437E-1,-1.924072862E0,1.955379605E0
1.645669292E0,8.475755155E-2,-1.893987656E0,1.999209285E0
1.647916606E0,3.466660157E-2,-1.866346002E0,2.035555601E0
1.650145183E0,-1.053742506E-2,-1.836260915E0,2.064724445E0
1.652392619E0,-5.070181563E-2,-1.808924675E0,2.090228081E0
1.654627482E0,-8.857546002E-2,-1.788766146E0,2.110692024E0
1.656866130E0,-1.180497110E-1,-1.773494482E0,2.126421928E0
1.659100993E0,-1.374446750E-1,-1.758681059E0,2.139860868E0
1.661336345E0,-1.510364264E-1,-1.753488660E0,2.150703907E0
1.663573649E0,-1.597412676E-1,-1.755779386E0,2.155590773E0
1.665809978E0,-1.609629989E-1,-1.758222938E0,2.160325050E0
1.668047038E0,-1.597412676E-1,-1.757001162E0,2.162921190E0
1.670283854E0,-1.485929638E-1,-1.753488660E0,2.158034086E0
1.672521647E0,-1.324050426E-1,-1.745394707E0,2.148413181E0
1.674757548E0,-1.146899462E-1,-1.726305127E0,2.140166283E0
1.676995341E0,-9.071348608E-2,-1.701259732E0,2.128101826E0
1.679230632E0,-6.780604273E-2,-1.670105577E0,2.112524748E0
1.681464701E0,-4.230241850E-2,-1.630552053E0,2.097100496E0
1.683691997E0,-1.298088674E-2,-1.591151237E0,2.079079866E0
1.685941020E0,2.015855350E-2,-1.544420004E0,2.057546854E0
1.688177897E0,5.696318299E-2,-1.496619821E0,2.037235498E0
1.690418681E0,9.636399150E-2,-1.443932772E0,2.015855312E0
1.692651591E0,1.368338168E-1,-1.393841743E0,1.991878867E0
1.694889323E0,1.873829067E-1,-1.337794900E0,1.963168144E0
1.697124431E0,2.330450863E-1,-1.287703991E0,1.931861281E0
1.699361796E0,2.895501256E-1,-1.241430879E0,1.897042036E0
1.701598247E0,3.498730659E-1,-1.200197458E0,1.853670597E0
1.703835124E0,4.196644127E-1,-1.172403097E0,1.805565000E0
1.706071940E0,4.967861474E-1,-1.148426652E0,1.753641367E0
1.708309611E0,5.812382698E-1,-1.133002281E0,1.695761919E0
1.710545329E0,6.716463566E-1,-1.126282811E0,1.634064555E0
1.712783061E0,7.721336484E-1,-1.116203547E0,1.567632914E0
1.715018168E0,8.848382831E-1,-1.107345939E0,1.498910546E0
1.717255595E0,1.002429843E0,-1.095128655E0,1.426523089E0
1.719488200E0,1.130100727E0,-1.078177214E0,1.349401355E0
1.721710002E0,1.261742115E0,-1.051604509E0,1.264949203E0
1.723951640E0,1.402699351E0,-1.002124429E0,1.159880400E0
1.726203776E0,1.551139593E0,-9.407324791E-1,1.056185961E0
1.728443522E0,1.698205352E0,-8.865181804E-1,9.573785663E-1
1.730680827E0,1.839009762E0,-8.286387324E-1,8.755226135E-1
1.732912761E0,1.971262097E0,-7.632761002E-1,8.072584271E-1
1.735149821E0,2.098780155E0,-6.869179606E-1,7.486153841E-1
1.737386149E0,2.211637735E0,-6.041457057E-1,7.070765495E-1
1.739623210E0,2.312124968E0,-5.126686692E-1,6.814202070E-1
1.741860270E0,2.397951603E0,-4.111123085E-1,6.692028642E-1
1.744097819E0,2.467895508E0,-3.020728528E-1,6.676757336E-1
1.746333659E0,2.526691437E0,-1.892155111E-1,6.821837425E-1
1.748571147E0,2.570826292E0,-7.590000331E-2,7.049384713E-1
1.750806499E0,2.595108271E0,4.489859566E-2,7.350236177E-1
1.753043620E0,2.602285862E0,1.673770845E-1,7.759515643E-1
1.755280192E0,2.590832233E0,2.816088796E-1,8.216137290E-1
1.757517375E0,2.568230152E0,3.985895813E-1,8.659014702E-1
1.759750346E0,2.530662060E0,5.073235631E-1,9.065240026E-1
1.761973490E0,2.481945515E0,6.041457057E-1,9.431759119E-1
1.764222575E0,2.426662207E0,6.792821288E-1,9.723447561E-1
1.766465129E0,2.364964724E0,7.411322594E-1,9.891435504E-1
1.768704814E0,2.299449444E0,7.884743214E-1,9.900598526E-1
1.770938945E0,2.231185198E0,8.129089475E-1,9.798278809E-1
1.773174296E0,2.161546707E0,8.324565887E-1,9.596692920E-1
1.775411540E0,2.096642256E0,8.446739316E-1,9.274461865E-1
1.777648112E0,2.030668736E0,8.568912148E-1,8.914051056E-1
1.779885661E0,1.973552942E0,8.762862086E-1,8.494081497E-1
1.782121684E0,1.921476603E0,9.027060866E-1,8.025242090E-1
1.784359294E0,1.875967145E0,9.497427344E-1,7.460191846E-1
1.786594707E0,1.831068516E0,1.016174316E0,6.847799420E-1
1.788831889E0,1.793653131E0,1.093296051E0,6.210972667E-1
1.791067973E0,1.763873339E0,1.181260705E0,5.526803136E-1
1.793305095E0,1.733177423E0,1.282664299E0,4.757113159E-1
1.795542155E0,1.704924941E0,1.380249977E0,3.962988257E-1
1.797778422E0,1.676672339E0,1.473101497E0,3.107776940E-1
1.800009501E0,1.650863290E0,1.568243742E0,2.229658216E-1
1.802248881E0,1.622458100E0,1.652543187E0,1.372919679E-1
1.804470805E0,1.595121861E0,1.733177423E0,4.688390717E-2
1.806727336E0,1.567785621E0,1.810299158E0,-4.108068720E-2
1.808962260E0,1.542740226E0,1.882381201E0,-1.279762685E-1
1.811203594E0,1.507615447E0,1.943773150E0,-2.197587788E-1
1.813436259E0,1.466229320E0,1.993100524E0,-3.129157126E-1
1.815673991E0,1.417054653E0,2.025629044E0,-4.050036669E-1
1.817906901E0,1.374904990E0,2.047009468E0,-4.883867502E-1
1.820135417E0,1.332297087E0,2.043038845E0,-5.696318150E-1
1.822382670E0,1.290605545E0,2.022116661E0,-6.470590234E-1
1.824619731E0,1.250899315E0,1.981646895E0,-7.247915864E-1
1.826859111E0,1.210734963E0,1.922851086E0,-7.962628603E-1
1.829093425E0,1.170417786E0,1.857030392E0,-8.593347073E-1
1.831330302E0,1.130253434E0,1.791056871E0,-9.246972799E-1
1.833568095E0,1.086118460E0,1.721570969E0,-9.828822017E-1
1.835803935E0,1.039692640E0,1.656819224E0,-1.039845347E0
1.838038737E0,9.918924570E-1,1.591151237E0,-1.094365120E0
1.840265056E0,9.468411207E-1,1.537395120E0,-1.150106549E0
1.842514079E0,8.991936445E-1,1.480126500E0,-1.199586630E0
1.844750346E0,8.542950749E-1,1.430035591E0,-1.251662850E0
1.846990398E0,8.116871715E-1,1.373835921E0,-1.301142931E0
1.849223613E0,7.764097452E-1,1.319927096E0,-1.346957922E0
1.851459391E0,7.423539758E-1,1.264643788E0,-1.385442376E0
1.853697978E0,7.119634151E-1,1.213178396E0,-1.417665482E0
1.855935710E0,6.762278080E-1,1.149495721E0,-1.434158921E0
1.858171488E0,6.481280327E-1,1.097877502E0,-1.441947460E0
1.860408122E0,6.165157557E-1,1.054811597E0,-1.443627238E0
1.862644389E0,5.826127529E-1,1.021519423E0,-1.437976837E0
1.864881511E0,5.500841737E-1,1.000291824E0,-1.429730058E0
1.867118327E0,5.065600276E-1,9.841039181E-1,-1.411862254E0
1.869356120E0,4.509712756E-1,9.900598526E-1,-1.376737595E0
1.871591960E0,4.027129114E-1,9.897544384E-1,-1.334282398E0
1.873829509E0,3.819434941E-1,9.502009153E-1,-1.306488037E0
1.876064860E0,3.840815127E-1,8.784242272E-1,-1.286024094E0
1.878302165E0,3.982841372E-1,7.944302559E-1,-1.270294309E0
1.880538493E0,4.187481403E-1,7.151705027E-1,-1.258229733E0
1.882775554E0,4.488332272E-1,6.272059083E-1,-1.244790673E0
1.885011027E0,4.778493345E-1,5.404630303E-1,-1.226617455E0
1.887244731E0,5.067127347E-1,4.586070776E-1,-1.199739337E0
1.889485820E0,5.380195379E-1,3.706424832E-1,-1.169348836E0
1.891723796E0,5.778785348E-1,2.872593701E-1,-1.133765936E0
1.893960246E0,6.267477274E-1,2.183843255E-1,-1.095739484E0
1.896196269E0,6.881396770E-1,1.650863290E-1,-1.057407737E0
1.898432475E0,7.531968355E-1,1.091921628E-1,-1.014341712E0
1.900669597E0,8.132143617E-1,4.963280261E-2,-9.737191796E-1
1.902906413E0,8.660541773E-1,-3.512475174E-3,-9.343183637E-1
1.905144206E0,9.265298843E-1,-4.841107130E-2,-8.959866166E-1
1.907380107E0,9.770789742E-1,-8.582656831E-2,-8.565858006E-1
1.909617839E0,1.001208186E0,-1.020144969E-1,-8.112290502E-1
1.911852885E0,1.016632438E0,-1.096503139E-1,-7.681630254E-1
1.914089946E0,1.033583999E0,-1.136209369E-1,-7.264714837E-1
1.916326274E0,1.045648575E0,-1.163698286E-1,-6.945537925E-1
1.918563701E0,1.050382733E0,-1.163698286E-1,-6.664539576E-1
1.920800761E0,1.047939301E0,-1.065959856E-1,-6.418666840E-1
1.923038310E0,1.043357849E0,-8.109235764E-2,-6.223189831E-1
1.925274089E0,1.031445980E0,-5.299255997E-2,-6.038402915E-1
1.927508586E0,1.010982037E0,-2.703078650E-2,-5.856670737E-1
1.929731120E0,9.769262671E-1,2.748893574E-3,-5.687155724E-1
1.931968608E0,9.356928468E-1,3.634648025E-2,-5.542075038E-1
1.934220378E0,8.943067193E-1,6.872233748E-2,-5.360342264E-1
1.936460612E0,8.428413272E-1,8.552113175E-2,-5.229006410E-1
1.938698100E0,7.849618196E-1,8.659014851E-2,-5.062545538E-1
1.940932109E0,7.182248235E-1,8.307767659E-2,-4.860960245E-1
1.943168132E0,6.455318332E-1,8.811730891E-2,-4.683809280E-1
1.945405742E0,5.705481172E-1,9.926560521E-2,-4.506658316E-1
1.947641093E0,4.883867502E-1,1.178969890E-1,-4.364632070E-1
1.949879374E0,4.098905921E-1,1.351539344E-1,-4.273002446E-1
1.952118815E0,3.289509416E-1,1.525636017E-1,-4.218024611E-1
1.954351725E0,2.567161322E-1,1.721112877E-1,-4.224133193E-1
1.956585795E0,1.895209402E-1,1.977676302E-1,-4.326453209E-1
1.958814311E0,1.278235465E-1,2.451096773E-1,-4.439463317E-1
1.961062175E0,7.712173462E-2,2.884811163E-1,-4.576907754E-1
1.963299723E0,3.008511290E-2,3.355177343E-1,-4.653266072E-1
1.965537822E0,-1.237002108E-2,3.619376719E-1,-4.679227769E-1
1.967771586E0,-5.329799280E-2,3.504839242E-1,-4.647157490E-1
1.970002971E0,-8.765916526E-2,2.965750694E-1,-4.602869749E-1
1.972235515E0,-1.067487001E-1,2.070833147E-1,-4.485278130E-1
1.974482585E0,-1.266018152E-1,8.735372871E-2,-4.334088862E-1
1.976718181E0,-1.424843222E-1,-2.275473066E-2,-4.118759036E-1
1.978946818E0,-1.595885456E-1,-1.304197311E-1,-3.880521357E-1
1.981193766E0,-1.660026312E-1,-1.970040351E-1,-3.675881624E-1
1.983429118E0,-1.658499092E-1,-2.419026345E-1,-3.543018401E-1
1.985669414E0,-1.605048478E-1,-2.747366428E-1,-3.371976018E-1
1.987899760E0,-1.605048478E-1,-3.330742717E-1,-3.202461004E-1
1.990127848E0,-1.469130963E-1,-4.389066696E-1,-2.948952019E-1
1.992376628E0,-1.420261711E-1,-6.125451326E-1,-2.576324046E-1
1.994614421E0,-1.411098689E-1,-8.553640842E-1,-2.096794993E-1
1.996850199E0,-1.447750628E-1,-1.139263630E0,-1.508837193E-1
1.999075602E0,-1.498146951E-1,-1.427897453E0,-8.842274547E-2
2.001323100E0,-1.608102769E-1,-1.706910253E0,-3.344487399E-2
2.003560222E0,-1.702786833E-1,-1.917811394E0,1.099557430E-2
2.005799846E0,-1.783726513E-1,-2.001347303E0,3.375030309E-2
2.008033793E0,-1.860084683E-1,-2.010968447E0,4.474587739E-2
2.010270426E0,-1.962404549E-1,-1.974316478E0,3.619376570E-2
2.012508159E0,-1.908953935E-1,-1.900401831E0,1.450804994E-2
2.014743449E0,-1.858557463E-1,-1.777923346E0,-1.802052557E-2
2.016976481E0,-1.733330190E-1,-1.608255506E0,-6.979135424E-2
2.019205241E0,-1.539380401E-1,-1.398728728E0,-1.324050426E-1
2.021454326E0,-1.322523206E-1,-1.147968531E0,-2.034181207E-1
2.023691447E0,-1.140790880E-1,-8.801041245E-1,-2.793181241E-1
2.025930949E0,-9.682214260E-2,-6.073527932E-1,-3.601050675E-1
2.028164958E0,-8.613199741E-2,-3.442225754E-1,-4.384485185E-1
2.030402202E0,-7.467827946E-2,-1.114829108E-1,-5.157229900E-1
2.032638102E0,-6.643159688E-2,8.628471941E-2,-5.907067060E-1
2.034875834E0,-6.398813426E-2,2.452623993E-1,-6.646214128E-1
2.037111247E0,-6.215553731E-2,3.640756905E-1,-7.412849665E-1
2.039348368E0,-5.146539584E-2,4.427245855E-1,-8.179485798E-1
2.041584819E0,-3.787364438E-2,4.813618064E-1,-8.886561990E-1
2.043821696E0,-2.122756653E-2,4.871650338E-1,-9.619600177E-1
2.046058818E0,-4.123340361E-3,4.601342380E-1,-1.025490046E0
2.048296489E0,1.221730467E-2,4.014911950E-1,-1.079398870E0
2.050532206E0,2.443460934E-2,3.162754774E-1,-1.122464895E0
2.052769877E0,3.481931984E-2,2.093740702E-1,-1.160796642E0
2.055004985E0,4.123340547E-2,8.903361112E-2,-1.190576315E0
2.057242411E0,3.863722831E-2,-4.077525437E-2,-1.215621829E0
2.059478923E0,3.588833287E-2,-1.850921661E-1,-1.230893493E0
2.061716044E0,2.947424725E-2,-3.257438838E-1,-1.246165156E0
2.063952861E0,1.908953860E-2,-4.723515511E-1,-1.257924199E0
2.066190593E0,-0.000000000E0,-6.298020482E-1,-1.269683361E0
2.068426432E0,-1.404990070E-2,-7.848091125E-1,-1.287551165E0
2.070663981E0,-3.329215571E-2,-9.482156038E-1,-1.303128242E0
2.072899272E0,-5.864306539E-2,-1.109178543E0,-1.321148753E0
2.075136210E0,-8.384125680E-2,-1.266476393E0,-1.340238333E0
2.077372172E0,-1.137736514E-1,-1.417512774E0,-1.363145828E0
2.079609843E0,-1.461495161E-1,-1.562440634E0,-1.384831548E0
2.081847148E0,-1.817324162E-1,-1.687973380E0,-1.402852058E0
2.084084819E0,-2.183843255E-1,-1.797776461E0,-1.415832877E0
2.086320536E0,-2.571742535E-1,-1.889253497E0,-1.424995899E0
2.088557963E0,-3.005456924E-1,-1.964848042E0,-1.429424644E0
2.090793315E0,-3.410155177E-1,-2.018604279E0,-1.428661108E0
2.093027384E0,-3.787364662E-1,-2.056783199E0,-1.424385071E0
2.095254802E0,-4.236350358E-1,-2.083814144E0,-1.416291118E0
2.097504069E0,-4.720461071E-1,-2.096184015E0,-1.400866747E0
2.099740946E0,-5.229006410E-1,-2.106110573E0,-1.381624460E0
2.101981792E0,-5.783366561E-1,-2.103819847E0,-1.358869791E0
2.104214823E0,-6.351471543E-1,-2.099085808E0,-1.327562928E0
2.106449442E0,-6.905831695E-1,-2.090686321E0,-1.292438149E0
2.108672953E0,-7.435756922E-1,-2.079996109E0,-1.256244421E0
2.110912761E0,-7.953465581E-1,-2.072818518E0,-1.213789225E0
2.113161235E0,-8.338310719E-1,-2.067320824E0,-1.165225506E0
2.115401042E0,-8.674286604E-1,-2.067931652E0,-1.114065528E0
2.117638164E0,-8.877398968E-1,-2.083203316E0,-1.056796908E0
2.119872661E0,-8.961393237E-1,-2.108554125E0,-9.920451641E-1
2.122108561E0,-8.924741149E-1,-2.148718596E0,-9.199630618E-1
2.124346049E0,-8.779660463E-1,-2.190257311E0,-8.429940343E-1
2.126581462E0,-8.486445546E-1,-2.236988544E0,-7.585419416E-1
2.128818705E0,-8.046622276E-1,-2.284025192E0,-6.690501571E-1
2.131054790E0,-7.519751191E-1,-2.325105906E0,-5.806274414E-1
2.133291972E0,-6.867652535E-1,-2.360383272E0,-4.920519590E-1
2.135529033E0,-6.142250299E-1,-2.398104191E0,-4.071416855E-1
2.137763163E0,-5.316054821E-1,-2.425287724E0,-3.257438838E-1
2.139988016E0,-4.427245855E-1,-2.445293665E0,-2.480112910E-1
2.142225504E0,-3.500257730E-1,-2.465299368E0,-1.751656085E-1
2.144464274E0,-2.536617815E-1,-2.484083414E0,-1.131627858E-1
2.146715984E0,-1.595885456E-1,-2.501798630E0,-6.352998316E-2
2.148949138E0,-6.414084882E-2,-2.521804333E0,-3.222314268E-2
2.151177348E0,2.626720630E-2,-2.547919035E0,-1.069014147E-2
2.153422953E0,1.128573567E-1,-2.582280159E0,9.162978968E-4
2.155660807E0,1.945605874E-1,-2.625193357E0,-4.734205548E-3
2.157896586E0,2.689334154E-1,-2.667953968E0,-2.015855350E-2
2.160122233E0,3.417791128E-1,-2.725222588E0,-4.917465150E-2
2.162369548E0,4.086688459E-1,-2.784629107E0,-9.285151958E-2
2.164606852E0,4.680754840E-1,-2.844035864E0,-1.488984078E-1
2.166846172E0,5.215262175E-1,-2.908176661E0,-2.122756690E-1
2.169080241E0,5.725334287E-1,-2.960253000E0,-2.819143236E-1
2.171316996E0,6.165157557E-1,-3.008358717E0,-3.587306142E-1
2.173554606E0,6.606507897E-1,-3.044399738E0,-4.405865669E-1
2.175790690E0,7.026477456E-1,-3.061045647E0,-5.233588219E-1
2.178025309E0,7.376197577E-1,-3.070208788E0,-6.052147150E-1
2.180250651E0,7.678576112E-1,-3.058602333E0,-6.782131195E-1
2.182495768E0,7.973318696E-1,-3.021492243E0,-7.499898076E-1
2.184737224E0,8.213083148E-1,-2.957656860E0,-8.119926453E-1
2.186977214E0,8.394815922E-1,-2.869386673E0,-8.665123582E-1
2.189212443E0,8.631525636E-1,-2.743701220E0,-9.013316631E-1
2.191449138E0,8.904888034E-1,-2.554943800E0,-9.089674950E-1
2.193684733E0,9.399688840E-1,-2.284025192E0,-8.645270467E-1
2.195922343E0,9.923505783E-1,-1.979203343E0,-7.893906236E-1
2.198158793E0,1.029307961E0,-1.709353685E0,-7.060074806E-1
2.200398845E0,1.048550248E0,-1.459815264E0,-6.094908118E-1
2.202631267E0,1.059851170E0,-1.231809735E0,-5.032002330E-1
2.204868327E0,1.057407737E0,-1.015868902E0,-4.068362415E-1
2.207104410E0,1.050077319E0,-7.996225953E-1,-3.228422701E-1
2.209342875E0,1.041525245E0,-5.884159207E-1,-2.425135076E-1
2.211578532E0,1.029155254E0,-3.842342496E-1,-1.757764816E-1
2.213816264E0,1.013883591E0,-2.104430795E-1,-1.214094684E-1
2.216051616E0,1.004567862E0,-4.886921868E-2,-7.299839705E-2
2.218285807E0,9.860892296E-1,9.101892263E-2,-2.977968007E-2
2.220513286E0,9.648616314E-1,2.104430795E-1,1.084285788E-2
2.222760905E0,9.408851862E-1,3.164281845E-1,5.513058975E-2
2.224994364E0,9.191994667E-1,4.127921760E-1,9.697485715E-2
2.227239970E0,8.935431242E-1,5.079344511E-1,1.534798890E-1
2.229472941E0,8.701775670E-1,5.908594131E-1,2.122756690E-1
2.231711833E0,8.429940343E-1,6.641632318E-1,2.784018219E-1
2.233945720E0,8.139779568E-1,7.192938328E-1,3.543018401E-1
2.236182963E0,7.900014520E-1,7.744244337E-1,4.350887835E-1
2.238416117E0,7.728972435E-1,8.147414923E-1,5.195409060E-1
2.240644694E0,7.596109509E-1,8.501716852E-1,6.039929986E-1
2.242893168E0,7.544185519E-1,8.709411025E-1,6.884451509E-1
2.245130900E0,7.567093372E-1,8.878926635E-1,7.716755271E-1
2.247370097E0,7.684684992E-1,8.863654733E-1,8.513934612E-1
2.249604655E0,7.835873961E-1,8.703302741E-1,9.309586287E-1
2.251839824E0,8.083274364E-1,8.407033086E-1,1.008080363E0
2.254077006E0,8.352054954E-1,7.976372838E-1,1.080467939E0
2.256313335E0,8.657487631E-1,7.498371005E-1,1.158811331E0
2.258547831E0,8.998045325E-1,7.005097270E-1,1.237154841E0
2.260776713E0,9.401215911E-1,6.450737119E-1,1.316872716E0
2.263024821E0,9.813550115E-1,5.812382698E-1,1.398881435E0
2.265260966E0,1.023504734E0,5.099197626E-1,1.489594936E0
2.267501323E0,1.059240341E0,4.231768847E-1,1.582446456E0
2.269733867E0,1.098335743E0,3.179553747E-1,1.681559324E0
2.271971110E0,1.129795313E0,2.020436823E-1,1.784031987E0
2.274207377E0,1.159422278E0,6.307183951E-2,1.888948083E0
2.276444499E0,1.180038929E0,-9.743300825E-2,1.992489696E0
2.278681315E0,1.199128509E0,-2.762638032E-1,2.093587875E0
2.280919169E0,1.214400053E0,-4.659374654E-1,2.181094408E0
2.283155253E0,1.235780358E0,-6.653849483E-1,2.237904787E0
2.285392802E0,1.262200356E0,-8.684976697E-1,2.281429052E0
2.287628093E0,1.266323686E0,-1.068861485E0,2.350304127E0
2.289862101E0,1.259756804E0,-1.235016823E0,2.442544699E0
2.292089458E0,1.248914003E0,-1.376737595E0,2.534938097E0
2.294338603E0,1.239750981E0,-1.495550871E0,2.616335869E0
2.296572916E0,1.224937558E0,-1.591151237E0,2.695442915E0
2.298804484E0,1.200808406E0,-1.664760470E0,2.771953821E0
2.301046366E0,1.179275393E0,-1.729817629E0,2.838843584E0
2.303274943E0,1.145830512E0,-1.786322713E0,2.890919685E0
2.305524822E0,1.104902506E0,-1.846187472E0,2.929557085E0
2.307759135E0,1.059087634E0,-1.912008166E0,2.953380823E0
2.309995829E0,1.002887964E0,-2.004401684E0,2.964681864E0
2.312222392E0,9.343183637E-1,-2.114662647E0,2.963612795E0
2.314469645E0,8.530732989E-1,-2.235614061E0,2.950326443E0
2.316704264E0,7.606799603E-1,-2.364812136E0,2.931847811E0
2.318933940E0,6.670648456E-1,-2.494162798E0,2.918256044E0
2.321180827E0,5.613851547E-1,-2.607325554E0,2.913216352E0
2.323416240E0,4.560109079E-1,-2.707201958E0,2.903289795E0
2.325656413E0,3.547599912E-1,-2.785392761E0,2.896112204E0
2.327886515E0,2.641992271E-1,-2.827237129E0,2.885269165E0
2.330114604E0,1.863138974E-1,-2.843883038E0,2.873510122E0
2.332363444E0,1.165225431E-1,-2.831665754E0,2.862056494E0
2.334601603E0,5.192354694E-2,-2.802496910E0,2.853046179E0
2.336840617E0,-8.857546374E-3,-2.767219543E0,2.840370655E0
2.339074992E0,-5.726861581E-2,-2.727513313E0,2.832734823E0
2.341310405E0,-1.053742543E-1,-2.673146248E0,2.821586609E0
2.343547160E0,-1.456913650E-1,-2.603202343E0,2.800664425E0
2.345783488E0,-1.783726513E-1,-2.524858713E0,2.780047655E0
2.348017375E0,-2.047925740E-1,-2.437047005E0,2.758056641E0
2.350245768E0,-2.252565622E-1,-2.358856201E0,2.742326736E0
2.352495341E0,-2.455678284E-1,-2.273640394E0,2.729040384E0
2.354731486E0,-2.632829249E-1,-2.178498268E0,2.725528002E0
2.356971904E0,-2.664899528E-1,-2.089922667E0,2.729651451E0
2.359204265E0,-2.680171132E-1,-1.990351677E0,2.721404552E0
2.361441264E0,-2.596177161E-1,-1.882534027E0,2.699871778E0
2.363677653E0,-2.509129047E-1,-1.764942408E0,2.671008348E0
2.365914958E0,-2.431243658E-1,-1.636507988E0,2.633745432E0
2.368151774E0,-2.437352389E-1,-1.503033876E0,2.596329927E0
2.370389323E0,-2.432770878E-1,-1.368338108E0,2.563801527E0
2.372625224E0,-2.403754741E-1,-1.233642340E0,2.539977789E0
2.374863200E0,-2.412917763E-1,-1.101390004E0,2.516001225E0
2.377098308E0,-2.444988191E-1,-9.726501703E-1,2.485916138E0
2.379335429E0,-2.441933751E-1,-8.428413272E-1,2.450944185E0
2.381571818E0,-2.435825169E-1,-7.057020664E-1,2.403754711E0
2.383808757E0,-2.428189367E-1,-5.685628057E-1,2.354121923E0
2.386045817E0,-2.331978083E-1,-4.193589985E-1,2.293646336E0
2.388283305E0,-2.309070677E-1,-2.689334154E-1,2.225840330E0
2.390519206E0,-2.163990140E-1,-1.200350225E-1,2.150703907E0
2.392756694E0,-2.092213482E-1,2.183843218E-2,2.061975718E0
2.394992106E0,-2.067778856E-1,1.626428664E-1,1.959808469E0
2.397229472E0,-2.044871449E-1,2.961169183E-1,1.846492887E0
2.399465983E0,-2.037235647E-1,4.185954034E-1,1.729512215E0
2.401702861E0,-2.055561543E-1,5.316054821E-1,1.608866334E0
2.403939921E0,-2.113593817E-1,6.275113225E-1,1.486845970E0
2.406177653E0,-2.150245607E-1,7.066183686E-1,1.363451242E0
2.408413554E0,-2.327396572E-1,7.651087046E-1,1.246165156E0
2.410651042E0,-2.461786866E-1,7.970264554E-1,1.136056662E0
2.412886394E0,-2.562579811E-1,8.118399382E-1,1.034347534E0
2.415123637E0,-2.666426897E-1,8.095491529E-1,9.450085163E-1
2.417359782E0,-2.825251818E-1,7.941248417E-1,8.628471494E-1
2.419597087E0,-2.897028327E-1,7.736608386E-1,7.904596329E-1
2.421833842E0,-2.971859276E-1,7.470881939E-1,7.168503404E-1
2.424068461E0,-3.034473062E-1,7.192938328E-1,6.556110978E-1
2.426292338E0,-3.061962128E-1,6.878342628E-1,6.052147150E-1
2.428533061E0,-3.057380617E-1,6.404922009E-1,5.645921826E-1
2.430780253E0,-2.955060601E-1,5.905539989E-1,5.387831330E-1
2.433020732E0,-2.755002379E-1,5.355761051E-1,5.277875662E-1
2.435256816E0,-2.472477108E-1,4.780020416E-1,5.314527750E-1
2.437491191E0,-2.115120888E-1,4.250094891E-1,5.487096906E-1
2.439727946E0,-1.681406647E-1,3.817907870E-1,5.745187402E-1
2.441965800E0,-1.139263660E-1,3.370448947E-1,6.041457057E-1
2.444201579E0,-5.314527452E-2,3.042109013E-1,6.327036619E-1
2.446439128E0,1.496619824E-2,2.762638032E-1,6.528622508E-1
2.448674418E0,9.804387391E-2,2.490803003E-1,6.717990637E-1
2.450911479E0,1.811215430E-1,2.220495194E-1,6.846272349E-1
2.453147868E0,2.715296149E-1,1.922698319E-1,6.986771226E-1
2.455385173E0,3.633120954E-1,1.673770845E-1,7.104362845E-1
2.457621989E0,4.575380683E-1,1.424843222E-1,7.232644558E-1
2.459859599E0,5.456553698E-1,1.250746548E-1,7.362453341E-1
2.462095622E0,6.314819455E-1,1.087340117E-1,7.480044961E-1
2.464333232E0,7.049384713E-1,9.285151958E-2,7.619016767E-1
2.466568706E0,7.670940161E-1,6.979135424E-2,7.745771408E-1
2.468805339E0,8.184067011E-1,5.177082866E-2,7.896960378E-1
2.471042094E0,8.573493958E-1,3.405573592E-2,7.997753024E-1
2.473278911E0,8.717046976E-1,1.557706390E-2,8.083274364E-1
2.475516154E0,8.759807348E-1,-1.007927675E-2,8.205447197E-1
2.477753886E0,8.629998565E-1,-4.016438872E-2,8.300131559E-1
2.479989970E0,8.352054954E-1,-7.238753140E-2,8.345946670E-1
2.482227214E0,7.976372838E-1,-1.032362282E-1,8.353582025E-1
2.484462565E0,7.501425147E-1,-1.398881376E-1,8.373435140E-1
2.486699931E0,6.904304624E-1,-1.727221459E-1,8.390234113E-1
2.488936687E0,6.233879924E-1,-1.968513280E-1,8.420777321E-1
2.491173259E0,5.540547967E-1,-2.113593817E-1,8.487972617E-1
2.493410075E0,4.726569951E-1,-2.194533348E-1,8.565858006E-1
2.495647746E0,3.889684379E-1,-2.153300047E-1,8.681922555E-1
2.497880717E0,2.968805134E-1,-2.002110779E-1,8.784242272E-1
2.500109355E0,2.037235647E-1,-1.753183305E-1,8.912523985E-1
2.502356853E0,1.130100712E-1,-1.481348276E-1,9.088147879E-1
2.504593913E0,2.962696366E-2,-1.246165112E-1,9.230173826E-1
2.506833232E0,-5.009094998E-2,-1.084285825E-1,9.309586287E-1
2.509067241E0,-1.299615800E-1,-9.957103431E-2,9.411906004E-1
2.511305461E0,-2.028072625E-1,-1.079704314E-1,9.491318464E-1
2.513544230E0,-2.759583890E-1,-1.295034289E-1,9.570731521E-1
2.515765544E0,-3.454442918E-1,-1.560760736E-1,9.599747062E-1
2.518012675E0,-4.176791012E-1,-1.959350258E-1,9.592111707E-1
2.520238810E0,-4.888449013E-1,-2.455678284E-1,9.535606503E-1
2.522491008E0,-5.526803136E-1,-2.988658249E-1,9.503536224E-1
2.524724284E0,-6.130032539E-1,-3.535382748E-1,9.520334601E-1
2.526964092E0,-6.780604124E-1,-4.105014503E-1,9.476047158E-1
2.529198649E0,-7.408268452E-1,-4.711298347E-1,9.419541955E-1
2.531436015E0,-7.976372838E-1,-5.404630303E-1,9.338602424E-1
2.533672038E0,-8.555167913E-1,-6.049093008E-1,9.231700897E-1
2.535909282E0,-9.120218158E-1,-6.644686460E-1,9.152288437E-1
2.538144938E0,-9.596692920E-1,-7.060074806E-1,9.182831645E-1
2.540381938E0,-1.003346205E0,-7.367035151E-1,9.227119684E-1
2.542618327E0,-1.044121385E0,-7.431175709E-1,9.283624291E-1
2.544855327E0,-1.083522201E0,-7.374670506E-1,9.292787313E-1
2.547089335E0,-1.126130104E0,-7.185302377E-1,9.277516007E-1
2.549315714E0,-1.166294456E0,-6.922630668E-1,9.214902520E-1
2.551554728E0,-1.198670268E0,-6.600399017E-1,9.115636349E-1
2.553803874E0,-1.228755474E0,-6.243042946E-1,9.028588533E-1
2.556041606E0,-1.243721604E0,-5.791002512E-1,8.943067193E-1
2.558278850E0,-1.243568897E0,-5.099197626E-1,8.970556259E-1
2.560512248E0,-1.203404546E0,-4.645630121E-1,9.062185884E-1
2.562749431E0,-1.124602914E0,-4.515821338E-1,9.485210180E-1
2.564986247E0,-1.049771905E0,-4.470006526E-1,1.004262447E0
2.567224101E0,-1.000597239E0,-4.285219610E-1,1.065959811E0
2.569460185E0,-9.783006907E-1,-4.010330439E-1,1.131016970E0
2.571697734E0,-9.694431424E-1,-3.636175394E-1,1.200961113E0
2.573931254E0,-9.728028774E-1,-3.246748745E-1,1.268461704E0
2.576162944E0,-9.824240208E-1,-2.906191349E-1,1.339474797E0
2.578406413E0,-9.995282292E-1,-2.587014437E-1,1.404379249E0
2.580643657E0,-1.026711702E0,-2.423607856E-1,1.466534734E0
2.582882060E0,-1.057865858E0,-2.429716438E-1,1.523803353E0
2.585118144E0,-1.093143344E0,-2.617557645E-1,1.579697490E0
2.587354167E0,-1.130864263E0,-2.877175212E-1,1.634369969E0
2.589591777E0,-1.177442789E0,-3.219259977E-1,1.684002757E0
2.591822733E0,-1.226617455E0,-3.597996235E-1,1.731192112E0
2.594046672E0,-1.279457211E0,-4.001167417E-1,1.774563551E0
2.596300151E0,-1.334740520E0,-4.390594065E-1,1.815491557E0
2.598537577E0,-1.392161846E0,-4.694499373E-1,1.855350494E0
2.600779155E0,-1.453248382E0,-4.914411008E-1,1.885282874E0
2.603012187E0,-1.511738777E0,-5.157229900E-1,1.915215254E0
2.605245098E0,-1.565494895E0,-5.438227654E-1,1.941635132E0
2.607471049E0,-1.614211440E0,-5.707008839E-1,1.961946487E0
2.609709392E0,-1.665371418E0,-6.049093008E-1,1.973552942E0
2.611958171E0,-1.714087844E0,-6.331618428E-1,1.982868552E0
2.614197429E0,-1.753946781E0,-6.579018831E-1,1.984853864E0
2.616434734E0,-1.787391663E0,-6.681338549E-1,1.979661584E0
2.618668620E0,-1.813048005E0,-6.603453159E-1,1.967138767E0
2.620906230E0,-1.836108208E0,-6.537785530E-1,1.951103568E0
2.623142253E0,-1.855655909E0,-6.522513628E-1,1.930181503E0
2.625379802E0,-1.871538401E0,-6.543893814E-1,1.912924528E0
2.627615153E0,-1.884977460E0,-6.565274000E-1,1.889558911E0
2.629849162E0,-1.898569226E0,-6.611089110E-1,1.867415071E0
2.632076518E0,-1.907274008E0,-6.791294217E-1,1.842674971E0
2.634325541E0,-1.911550045E0,-7.105889916E-1,1.820531130E0
2.636558635E0,-1.915673375E0,-7.457137704E-1,1.795943856E0
2.638785136E0,-1.913993478E0,-7.930558324E-1,1.772425532E0
2.641024455E0,-1.913382649E0,-8.281805515E-1,1.741729498E0
2.643274150E0,-1.919491291E0,-7.892379165E-1,1.673312664E0
2.645512980E0,-1.926058173E0,-7.199047208E-1,1.591609359E0
2.647749187E0,-1.933999419E0,-6.469063163E-1,1.512196898E0
2.649979533E0,-1.945453048E0,-5.690209866E-1,1.441489220E0
2.652207927E0,-1.960724711E0,-4.983133376E-1,1.373072386E0
2.654456767E0,-1.978745222E0,-4.337143302E-1,1.311985850E0
2.656691569E0,-1.989282727E0,-3.691153228E-1,1.253495455E0
2.658921367E0,-2.005012512E0,-3.130684495E-1,1.198517561E0
2.661167827E0,-2.018451452E0,-2.641992271E-1,1.153313637E0
2.663402934E0,-2.028378010E0,-2.191479057E-1,1.111774802E0
2.665643230E0,-2.035861254E0,-1.800525337E-1,1.073901057E0
2.667873576E0,-2.039984465E0,-1.472185254E-1,1.041067123E0
2.670101786E0,-2.035097599E0,-1.024726480E-1,1.013120055E0
2.672350810E0,-2.025476456E0,-6.017022580E-2,9.876163602E-1
2.674588603E0,-2.010968447E0,-1.802052557E-2,9.647089243E-1
2.676827434E0,-1.984090328E0,2.641992271E-2,9.430232048E-1
2.679061992E0,-1.942551494E0,6.444628537E-2,9.363036752E-1
2.681297526E0,-1.882686734E0,1.033889428E-1,9.308059216E-1
2.683534526E0,-1.814117074E0,1.420261711E-1,9.242390990E-1
2.685770671E0,-1.738216996E0,1.794416606E-1,9.188940525E-1
2.688009623E0,-1.637577057E0,2.223549485E-1,9.187413454E-1
2.690251567E0,-1.505935550E0,2.791654170E-1,9.201157689E-1
2.692482402E0,-1.364520192E0,3.358231783E-1,9.337075353E-1
2.694718486E0,-1.237460256E0,3.576616049E-1,9.556986690E-1
2.696954570E0,-1.103375316E0,3.611740768E-1,9.813550115E-1
2.699188517E0,-9.469938278E-1,3.762930036E-1,1.012050986E0
2.701416118E0,-7.426594496E-1,4.450153410E-1,1.043510556E0
2.703664653E0,-5.227479339E-1,4.966334403E-1,1.081078768E0
2.705901957E0,-2.813034356E-1,5.792529583E-1,1.129948020E0
2.708141887E0,-3.756821156E-2,6.569855809E-1,1.189812779E0
2.710376445E0,1.930334121E-1,7.009678483E-1,1.258077025E0
2.712612467E0,4.033237696E-1,7.115052938E-1,1.335809588E0
2.714850016E0,5.992587805E-1,6.942483783E-1,1.420567155E0
2.717085368E0,7.875580192E-1,6.565274000E-1,1.505324721E0
2.719322429E0,9.509644508E-1,6.084218025E-1,1.595732689E0
2.721559001E0,1.096961260E0,5.534439087E-1,1.683697343E0
2.723796061E0,1.225853801E0,5.083925724E-1,1.778839588E0
2.726033000E0,1.333671570E0,4.517348409E-1,1.877341628E0
2.728270915E0,1.430341005E0,3.964515328E-1,1.979508877E0
2.730506571E0,1.513265967E0,3.339905739E-1,2.082745075E0
2.732744304E0,1.575116038E0,2.588541508E-1,2.184606791E0
2.734979289E0,1.623374343E0,1.850921661E-1,2.289981127E0
2.737216472E0,1.664455056E0,1.247692257E-1,2.399020433E0
2.739452983E0,1.699427128E0,6.826419383E-2,2.507907152E0
2.741687052E0,1.729817629E0,2.275473066E-2,2.614503145E0
2.743914714E0,1.750739813E0,-3.207042580E-3,2.716059685E0
2.746164470E0,1.770745635E0,-1.695151068E-2,2.815325260E0
2.748400614E0,1.787086248E0,-2.458732575E-2,2.909703970E0
2.750641399E0,1.796401978E0,-2.596177347E-2,2.997821093E0
2.752873515E0,1.806939363E0,-2.382374369E-2,3.082426071E0
2.755110759E0,1.817476869E0,-2.397646010E-2,3.163213015E0
2.757347026E0,1.809382915E0,-3.115412779E-2,3.238960266E0
2.759584208E0,1.812742591E0,-2.153299935E-2,3.305086374E0
2.761821269E0,1.817476869E0,-1.313360315E-2,3.361438751E0
2.764059001E0,1.833206654E0,-1.099557430E-2,3.410613298E0
2.766294596E0,1.851074457E0,-2.351831272E-2,3.454748392E0
2.768532145E0,1.869094968E0,-3.833179548E-2,3.492774725E0
2.770767619E0,1.890475273E0,-6.062837690E-2,3.523470640E0
2.773004557E0,1.918116927E0,-8.796459436E-2,3.548058033E0
2.775241191E0,1.947896600E0,-1.285871267E-1,3.572645426E0
2.777478434E0,1.987297416E0,-1.802052408E-1,3.591124058E0
2.779715373E0,2.016771555E0,-2.451096773E-1,3.604562998E0
2.781953044E0,2.053576231E0,-3.077233732E-1,3.610671759E0
2.784184916E0,2.091755390E0,-3.692680299E-1,3.613267899E0
2.786411540E0,2.111150265E0,-4.436408877E-1,3.613115311E0
2.788661662E0,2.109164953E0,-5.418374538E-1,3.611435413E0
2.790898661E0,2.097253084E0,-6.435465217E-1,3.610977173E0
2.793139079E0,2.115273714E0,-7.252497673E-1,3.609602690E0
2.795372233E0,2.151925564E0,-7.987062931E-1,3.609602690E0
2.797609355E0,2.186286688E0,-8.674286604E-1,3.604715824E0
2.799846782E0,2.230421782E0,-9.410378933E-1,3.597385406E0
2.802082743E0,2.274709463E0,-1.007469535E0,3.585320950E0
2.804320475E0,2.317775488E0,-1.075122833E0,3.570660114E0
2.806555888E0,2.308154345E0,-1.067639709E0,3.555999279E0
2.808793132E0,2.335490465E0,-1.030529618E0,3.454748392E0
2.811026225E0,2.411085129E0,-9.506590366E-1,3.432451725E0
2.813254557E0,2.411543369E0,-8.753699064E-1,3.411987782E0
2.815503398E0,2.408030748E0,-8.765916228E-1,3.377779484E0
2.817741435E0,2.430327415E0,-9.437867999E-1,3.337309599E0
2.819979960E0,2.450791359E0,-1.048550248E0,3.276986599E0
2.822214518E0,2.455067396E0,-1.168737888E0,3.194672585E0
2.824449748E0,2.576171398E0,-1.413847566E0,3.118772507E0
2.826686870E0,2.798373699E0,-1.640173197E0,3.091588974E0
2.828920512E0,3.071125031E0,-1.862680793E0,3.041650772E0
2.831149516E0,3.399923325E0,-2.132530689E0,2.961474657E0
2.833397135E0,3.739869833E0,-2.397646189E0,2.878855228E0
2.835634990E0,4.067598820E0,-2.669786453E0,2.743395805E0
2.837870707E0,4.351651192E0,-2.920393944E0,2.588236094E0
2.840096415E0,4.610658169E0,-3.137861967E0,2.412154198E0
2.842343913E0,4.835609436E0,-3.346167088E0,2.221106052E0
2.844580912E0,5.016883373E0,-3.587458849E0,2.008830309E0
2.846820354E0,5.154480934E0,-3.862042904E0,1.777617812E0
2.849054606E0,5.244583607E0,-4.163504601E0,1.560455322E0
2.851291423E0,5.252830029E0,-4.429383755E0,1.364978433E0
2.853529033E0,5.156771660E0,-4.670217514E0,1.200350165E0
2.855765116E0,4.990463734E0,-4.973970413E0,1.038623691E0
2.858000284E0,4.749629974E0,-5.249470711E0,8.776606321E-1
2.860227702E0,4.446946144E0,-5.465716839E0,7.347181439E-1
2.862474955E0,4.113108635E0,-5.642409325E0,6.099489331E-1
2.864711284E0,3.740327835E0,-5.781839371E0,5.120577812E-1
2.866951213E0,3.327230215E0,-5.844147682E0,4.384485185E-1
2.869185588E0,2.860376596E0,-5.813146591E0,3.820962012E-1
2.871423625E0,2.351372957E0,-5.668524265E0,3.501785100E-1
2.873659342E0,1.813200712E0,-5.432271957E0,3.416263759E-1
2.875896647E0,1.256091714E0,-5.098586559E0,3.529273868E-1
2.878131877E0,6.976081133E-1,-4.700608253E0,3.778201640E-1
2.880368937E0,1.524108797E-1,-4.252996445E0,4.202753007E-1
2.882605388E0,-3.617849350E-1,-3.791487932E0,4.667010605E-1
2.884842692E0,-8.159632683E-1,-3.349374056E0,5.123631954E-1
2.887079570E0,-1.209665895E0,-2.952158928E0,5.619960427E-1
2.889317363E0,-1.534188032E0,-2.610838175E0,6.094908118E-1
2.891553141E0,-1.796707392E0,-2.308459759E0,6.550002694E-1
2.893790690E0,-1.999667406E0,-2.043649673E0,6.947064996E-1
2.896026042E0,-2.146427870E0,-1.800372601E0,7.250970602E-1
2.898263408E0,-2.244318962E0,-1.578933954E0,7.544185519E-1
2.900499919E0,-2.305558205E0,-1.376279354E0,7.732026577E-1
2.902736735E0,-2.335032463E0,-1.187522054E0,7.870998979E-1
2.904973551E0,-2.342668295E0,-1.011440158E0,7.974845767E-1
2.907206950E0,-2.321898699E0,-8.382598162E-1,8.032878041E-1
2.909428263E0,-2.279290915E0,-6.728680730E-1,8.092437387E-1
2.911678447E0,-2.219426155E0,-5.151121020E-1,8.141306639E-1
2.913920329E0,-2.152536392E0,-3.695734739E-1,8.151996732E-1
2.916161724E0,-2.074498415E0,-2.315179259E-1,8.115344644E-1
2.918395305E0,-1.991878867E0,-1.044579595E-1,8.115344644E-1
2.920630717E0,-1.906968594E0,1.771509275E-2,8.078693151E-1
2.922867594E0,-1.820989251E0,1.288925707E-1,8.029823899E-1
2.925105388E0,-1.733940959E0,2.302961946E-1,7.954992652E-1
2.927341288E0,-1.651932359E0,3.245221674E-1,7.892379165E-1
2.929579081E0,-1.568701982E0,4.140139222E-1,7.756461501E-1
2.931814311E0,-1.485777020E0,4.960225821E-1,7.608326674E-1
2.934051188E0,-1.406517267E0,5.673410892E-1,7.409795523E-1
2.936287761E0,-1.322523236E0,6.348416805E-1,7.174612284E-1
2.938525065E0,-1.235016823E0,6.925684810E-1,6.902777553E-1
2.940761943E0,-1.143997908E0,7.406741381E-1,6.557638645E-1
2.942999431E0,-1.057865858E0,7.790058851E-1,6.151412725E-1
2.945235270E0,-9.673051238E-1,8.014551997E-1,5.694791079E-1
2.947473002E0,-8.743008971E-1,8.167268038E-1,5.225952268E-1
2.949708110E0,-7.852672935E-1,8.185594082E-1,4.706716835E-1
2.951945231E0,-6.963863969E-1,8.156577945E-1,4.189008474E-1
2.954181804E0,-6.039929986E-1,7.993171811E-1,3.694207668E-1
2.956419169E0,-5.190827250E-1,7.757988572E-1,3.162754774E-1
2.958655986E0,-4.297437072E-1,7.376197577E-1,2.605340183E-1
2.960893534E0,-3.378084898E-1,6.957755089E-1,2.035708427E-1
2.963129557E0,-2.487748712E-1,6.382014751E-1,1.490511149E-1
2.965367106E0,-1.620320082E-1,5.820018649E-1,9.208793938E-2
2.967602519E0,-7.315111160E-2,5.170974135E-1,3.512475267E-2
2.969836772E0,1.450804994E-2,4.474588037E-1,-1.832595654E-2
2.972064128E0,1.007927656E-1,3.753767014E-1,-6.918048859E-2
2.974313151E0,1.785253733E-1,3.083342314E-1,-1.201877370E-1
2.976549174E0,2.612976134E-1,2.423607856E-1,-1.626428664E-1
2.978787578E0,3.379611969E-1,1.850921661E-1,-2.002110779E-1
2.981023661E0,4.134030640E-1,1.314887404E-1,-2.339613885E-1
2.983261393E0,4.815145433E-1,8.032877743E-2,-2.580905557E-1
2.985497294E0,5.448917747E-1,4.398229718E-2,-2.797762752E-1
2.987733745E0,6.070473194E-1,5.039638374E-3,-2.939788997E-1
2.989967998E0,6.644686460E-1,-2.153299935E-2,-3.046690524E-1
2.992199870E0,7.145596147E-1,-3.955352306E-2,-3.104722500E-1
2.994442118E0,7.635815740E-1,-5.375614017E-2,-3.112358451E-1
2.996671244E0,8.089383245E-1,-5.711590126E-2,-3.133738637E-1
2.998907267E0,8.497135639E-1,-5.543602258E-2,-3.142901659E-1
3.001155192E0,8.793405294E-1,-4.871650413E-2,-3.139847219E-1
3.003392436E0,9.140071273E-1,-3.848451003E-2,-3.171917796E-1
3.005630900E0,9.390525818E-1,-2.321287990E-2,-3.219259977E-1
3.007862834E0,9.567676783E-1,1.832595794E-3,-3.228422701E-1
3.010095927E0,9.685268402E-1,3.436116874E-2,-3.263547719E-1
3.012338298E0,9.766207933E-1,7.192938030E-2,-3.272710443E-1
3.014575847E0,9.763153791E-1,1.119410545E-1,-3.307835162E-1
3.016814433E0,9.735664725E-1,1.580613852E-1,-3.367394805E-1
3.019054789E0,9.647089243E-1,2.020436823E-1,-3.465133011E-1
3.021284587E0,9.558513761E-1,2.495384514E-1,-3.561344445E-1
3.023521830E0,9.372199774E-1,2.984076738E-1,-3.683517575E-1
3.025756572E0,9.222537875E-1,3.448334336E-1,-3.793473244E-1
3.027992350E0,9.034696817E-1,3.888157308E-1,-3.891211748E-1
3.030220378E0,8.773552179E-1,4.318817258E-1,-4.001167417E-1
3.032469951E0,8.549059033E-1,4.723515511E-1,-4.086688459E-1
3.034705729E0,8.297077417E-1,5.032002330E-1,-4.149302244E-1
3.036946208E0,7.996225953E-1,5.328271985E-1,-4.260784984E-1
3.039178630E0,7.706065178E-1,5.577199459E-1,-4.323398769E-1
3.041415873E0,7.414376736E-1,5.740606189E-1,-4.386012554E-1
3.043652080E0,7.061602473E-1,5.917757154E-1,-4.462370574E-1
3.045889567E0,6.743952036E-1,6.044511795E-1,-4.512766898E-1
3.048126139E0,6.401867867E-1,6.123924255E-1,-4.540255964E-1
3.050363993E0,5.983424783E-1,6.145304441E-1,-4.579962194E-1
3.052599772E0,5.587889552E-1,6.067419052E-1,-4.596760869E-1
3.054837565E0,5.117523670E-1,5.968153477E-1,-4.601342380E-1
3.057072673E0,4.648684561E-1,5.867360830E-1,-4.605923891E-1
3.059309977E0,4.140139222E-1,5.694791079E-1,-4.586070776E-1
3.061546245E0,3.620903790E-1,5.584835410E-1,-4.566217661E-1
3.063780802E0,3.087923825E-1,5.461135507E-1,-4.534147382E-1
3.066006999E0,2.556470931E-1,5.386304259E-1,-4.477642179E-1
3.068243327E0,2.025018334E-1,5.239696503E-1,-4.434881806E-1
3.070479228E0,1.492038369E-1,5.128213763E-1,-4.329507351E-1
3.072719463E0,1.023199260E-1,5.088507533E-1,-4.259257913E-1
3.074954814E0,5.787948146E-2,5.036584139E-1,-4.190535545E-1
3.077195537E0,1.572977938E-2,4.984660447E-1,-4.083634019E-1
3.079443522E0,-2.000583708E-2,4.978551865E-1,-3.927863538E-1
3.081680705E0,-5.207626149E-2,5.009095073E-1,-3.784310222E-1
3.083917399E0,-7.819075137E-2,4.966334403E-1,-3.578143120E-1
3.086152263E0,-1.029307917E-1,4.934264123E-1,-3.396410644E-1
3.088388041E0,-1.217148975E-1,4.889976382E-1,-3.190243840E-1
3.090625407E0,-1.368338168E-1,4.819726646E-1,-2.984076738E-1
3.092860942E0,-1.531744599E-1,4.714352489E-1,-2.765692472E-1
3.095098002E0,-1.632537395E-1,4.642575979E-1,-2.547308207E-1
3.097334392E0,-1.696678251E-1,4.570799172E-1,-2.315179259E-1
3.099571452E0,-1.724167168E-1,4.523457289E-1,-2.070833147E-1
3.101808573E0,-1.728748679E-1,4.413501322E-1,-1.826487035E-1
3.104043437E0,-1.695151031E-1,4.327980280E-1,-1.606575549E-1
3.106267557E0,-1.611157060E-1,4.289801121E-1,-1.348485053E-1
3.108505045E0,-1.492038369E-1,4.190535545E-1,-1.116356254E-1
3.110743266E0,-1.397354305E-1,4.056145251E-1,-8.827003092E-2
3.112994975E0,-1.291979998E-1,3.846924007E-1,-6.627888232E-2
3.115231365E0,-1.188132912E-1,3.590360582E-1,-5.039638281E-2
3.117468730E0,-1.072068512E-1,3.309362531E-1,-3.573561832E-2
3.119702861E0,-9.804387391E-2,2.967278063E-1,-2.107485011E-2
3.121940348E0,-8.781187981E-2,2.637410760E-1,-6.414085161E-3
3.124176005E0,-7.513642311E-2,2.258674204E-1,4.581489135E-3
3.126413981E0,-6.123924255E-2,1.843285859E-1,1.175915636E-2
3.128649272E0,-4.871650413E-2,1.368338168E-1,2.031126991E-2
3.130886149E0,-3.848451003E-2,9.651670605E-2,2.504547499E-2
3.133122417E0,-2.458732575E-2,5.497787148E-2,3.115412779E-2
3.135356852E0,-1.557706390E-2,1.847867295E-2,3.604105115E-2
3.137582256E0,-5.345070735E-3,-2.306016348E-2,3.711006418E-2
3.139822795E0,5.039638374E-3,-5.604688451E-2,4.077525437E-2
3.142070536E0,1.420261711E-2,-9.376781434E-2,4.688390717E-2
3.144310893E0,2.092213556E-2,-1.255328059E-1,4.673119262E-2
3.146546061E0,2.641992271E-2,-1.510364264E-1,5.283984542E-2
3.148777445E0,3.573561832E-2,-1.791362315E-1,5.528330430E-2
3.151004985E0,3.772092983E-2,-2.011273801E-1,5.879577994E-2
3.153253886E0,4.108068720E-2,-2.168571651E-1,6.368270516E-2
3.155490885E0,4.199698567E-2,-2.315179259E-1,6.856962293E-2
3.157731425E0,4.306599870E-2,-2.400700450E-1,6.856962293E-2
3.159964518E0,4.398229718E-2,-2.509129047E-1,7.330382615E-2
3.162199748E0,4.276056588E-2,-2.545780838E-1,7.696902007E-2
3.164429057E0,4.138612002E-2,-2.545780838E-1,7.941248268E-2
3.166674174E0,4.016438872E-2,-2.557998300E-1,8.185594529E-2
3.168910747E0,3.772092983E-2,-2.544253767E-1,8.307767659E-2
3.171149699E0,3.649919853E-2,-2.544253767E-1,8.552113175E-2
3.173385050E0,3.649919853E-2,-2.507601976E-1,8.796459436E-2
3.175622783E0,3.527746722E-2,-2.495384514E-1,8.796459436E-2
3.177858683E0,3.405573592E-2,-2.495384514E-1,8.918632567E-2
3.180096110E0,3.298672289E-2,-2.458732575E-1,8.918632567E-2
3.182331401E0,3.420845419E-2,-2.446515262E-1,8.918632567E-2
3.184568461E0,3.298672289E-2,-2.409863323E-1,8.918632567E-2
3.186804790E0,3.176499158E-2,-2.409863323E-1,8.796459436E-2
3.189041911E0,3.176499158E-2,-2.397646159E-1,8.796459436E-2
3.191278971E0,3.313944116E-2,-2.350303978E-1,8.429940045E-2
3.193516520E0,3.573561832E-2,-2.301434875E-1,8.445212245E-2
3.195752421E0,3.940080851E-2,-2.315179259E-1,8.200865984E-2
3.197987162E0,4.321871698E-2,-2.241875380E-1,7.834346592E-2
3.200213542E0,4.337143153E-2,-2.206750661E-1,7.834346592E-2
3.202462565E0,4.352414981E-2,-2.145664245E-1,7.467827946E-2
3.204698894E0,4.856378585E-2,-2.098322064E-1,7.116580009E-2
3.206939189E0,4.871650413E-2,-2.037235647E-1,6.872233748E-2
3.209170146E0,5.009094998E-2,-1.941024363E-1,6.505715102E-2
3.211399150E0,5.406157300E-2,-1.879937798E-1,6.017022580E-2
3.213646647E0,5.665775016E-2,-1.820378453E-1,5.421429127E-2
3.215884196E0,6.185010448E-2,-1.711949855E-1,5.177082866E-2
3.218122416E0,6.078109145E-2,-1.614211351E-1,4.566217586E-2
3.220356547E0,6.337726861E-2,-1.554652005E-1,4.337143153E-2
3.222592876E0,6.597344577E-2,-1.507309973E-1,4.092797264E-2
3.224829997E0,7.116580009E-2,-1.386664063E-1,3.604105115E-2
3.227067118E0,7.131851465E-2,-1.337794960E-1,3.008511290E-2
3.229304911E0,7.406741381E-2,-1.180497110E-1,2.886338346E-2
3.231540751E0,7.192938030E-2,-1.070541367E-1,2.397646010E-2
3.233778239E0,7.330382615E-2,-9.743300825E-2,2.031126991E-2
3.236013591E0,7.360926270E-2,-8.888089657E-2,1.802052557E-2
3.238250895E0,7.620543987E-2,-8.048149943E-2,1.435533352E-2
3.240484172E0,7.635815442E-2,-6.948592514E-2,1.313360315E-2
3.242712077E0,7.284568250E-2,-6.337726861E-2,1.191187184E-2
3.244961100E0,7.315111160E-2,-5.131268129E-2,1.084285788E-2
3.247198954E0,6.963863969E-2,-4.398229718E-2,9.621127509E-3
3.249438090E0,6.719517708E-2,-3.787364438E-2,9.621127509E-3
3.251672526E0,6.627888232E-2,-2.565634064E-2,8.399397135E-3
3.253907634E0,6.643159688E-2,-2.199114859E-2,5.955935922E-3
3.256144877E0,6.276640296E-2,-1.466076635E-2,4.734205548E-3
3.258381206E0,6.047565863E-2,-6.108652335E-3,7.177666761E-3
3.260618327E0,5.818491429E-2,3.665191587E-3,8.399397135E-3
3.262855143E0,5.711590126E-2,1.099557430E-2,7.177666761E-3
3.265092997E0,5.482515693E-2,1.832595654E-2,5.955935922E-3
3.267329081E0,5.497787148E-2,2.550362423E-2,3.665191587E-3
3.269566630E0,5.390885845E-2,3.527746722E-2,6.108652335E-3
3.271801921E0,5.161811411E-2,4.260785133E-2,7.330383174E-3
3.274038859E0,4.932736978E-2,4.749477282E-2,6.108652335E-3
3.276275004E0,5.192354694E-2,5.222897977E-2,3.665191587E-3
3.278512370E0,5.192354694E-2,5.589416996E-2,7.330383174E-3
3.280749430E0,5.451972410E-2,6.322455406E-2,6.261368748E-3
3.282987040E0,5.467243865E-2,6.551529467E-2,6.261368748E-3
3.285222819E0,5.589416996E-2,6.918048859E-2,6.261368748E-3
3.287460307E0,5.604688451E-2,7.406741381E-2,9.926560335E-3
3.289695659E0,5.726861581E-2,7.651086897E-2,7.483099122E-3
3.291932841E0,5.849034712E-2,7.528914511E-2,9.926560335E-3
3.294169597E0,5.849034712E-2,7.757988572E-2,9.926560335E-3
3.296406535E0,5.864306539E-2,8.124507964E-2,9.926560335E-3
3.298643778E0,5.864306539E-2,8.124507964E-2,8.704829961E-3
3.300881022E0,5.864306539E-2,8.491026610E-2,7.483099122E-3
3.303117228E0,5.375614017E-2,8.384125680E-2,7.483099122E-3
3.305354838E0,5.253441259E-2,8.506298810E-2,6.261368748E-3
3.307590007E0,5.009094998E-2,8.384125680E-2,2.596177394E-3
3.309826396E0,4.886921868E-2,8.506298810E-2,1.374446787E-3
3.312060832E0,4.520402849E-2,8.643743396E-2,1.374446787E-3
3.314300456E0,4.153883830E-2,8.765916526E-2,0.000000000E0
3.316535502E0,4.153883830E-2,8.765916526E-2,-2.443460980E-3
3.318767619E0,3.787364438E-2,8.903361112E-2,-1.221730490E-3
3.321010966E0,3.558290005E-2,9.269879758E-2,-2.443460980E-3
3.323248698E0,3.313944116E-2,9.880745411E-2,-3.665191587E-3
3.325486125E0,2.962696366E-2,1.036943719E-1,-4.886921961E-3
3.327717936E0,2.703078650E-2,9.896016866E-2,-2.443460980E-3
3.329940715E0,2.336559631E-2,1.026253626E-1,-2.443460980E-3
3.332182536E0,2.092213556E-2,1.050688252E-1,-2.443460980E-3
3.334431559E0,1.725694351E-2,1.052215397E-1,-1.221730490E-3
3.336671000E0,1.847867295E-2,1.027780771E-1,-1.221730490E-3
3.338900981E0,1.725694351E-2,1.003346145E-1,-1.374446787E-3
3.341142985E0,1.588249579E-2,1.003346145E-1,-1.527163113E-4
3.343378032E0,1.343903504E-2,9.911288321E-2,-1.374446787E-3
3.345616984E0,9.773843922E-3,9.804387391E-2,-2.596177394E-3
3.347848186E0,1.343903504E-2,9.544769675E-2,-2.596177394E-3
3.350074870E0,1.450804994E-2,9.071348608E-2,-1.527163113E-4
3.352325663E0,1.191187184E-2,8.582656831E-2,1.069014193E-3
3.354563334E0,1.069014147E-2,8.460483700E-2,2.290744567E-3
3.356799479E0,1.053742506E-2,7.987063378E-2,-1.527163113E-4
3.359024882E0,7.941247895E-3,7.009678334E-2,2.138028387E-3
3.361272380E0,1.038470957E-2,6.643159688E-2,3.359758761E-3
3.363509501E0,6.566801574E-3,6.414084882E-2,2.138028387E-3
3.365745769E0,5.192354787E-3,5.558873713E-2,5.803219974E-3
3.367967997E0,3.817907767E-3,5.085453019E-2,6.872233935E-3
3.370208415E0,3.665191587E-3,4.352414981E-2,6.872233935E-3
3.372457499E0,-1.527163113E-4,3.634648025E-2,9.315694682E-3
3.374696513E0,-3.054326226E-4,3.023782931E-2,6.872233935E-3
3.376933696E0,-1.679879380E-3,2.428189293E-2,1.038470957E-2
3.379166423E0,6.108652451E-4,1.817324013E-2,1.404990070E-2
3.381403422E0,-3.054326167E-3,1.450804994E-2,1.282817032E-2
3.383639812E0,-1.985311974E-3,7.177666761E-3,1.404990070E-2
3.385876811E0,3.054326226E-4,2.290744567E-3,1.649336144E-2
3.388113627E0,-1.069014193E-3,-3.665191587E-3,1.527163107E-2
3.390351237E0,-2.443460980E-3,-9.773843922E-3,1.527163107E-2
3.392587382E0,-0.000000000E0,-1.466076635E-2,1.893682219E-2
3.394825114E0,-1.527163113E-4,-1.832595654E-2,2.122756653E-2
3.397060283E0,-3.054326226E-4,-2.321287990E-2,2.000583708E-2
3.399297587E0,1.985311974E-3,-3.161227703E-2,2.000583708E-2
3.401534038E0,5.650503561E-3,-3.787364438E-2,1.878410578E-2
3.403770915E0,4.276056774E-3,-4.016438872E-2,1.878410578E-2
3.406004679E0,7.941247895E-3,-4.276056588E-2,2.122756653E-2
3.408233256E0,1.160643995E-2,-4.642575979E-2,2.244929783E-2
3.410481364E0,1.145372353E-2,-5.009094998E-2,2.122756653E-2
3.412718974E0,1.511891466E-2,-5.253441259E-2,2.000583708E-2
3.414957561E0,2.000583708E-2,-5.390885845E-2,2.015855350E-2
3.417191569E0,2.367102914E-2,-5.635231733E-2,2.138028294E-2
3.419427958E0,2.244929783E-2,-6.001751125E-2,2.260201424E-2
3.421665202E0,2.367102914E-2,-6.001751125E-2,2.382374369E-2
3.423902079E0,2.718350291E-2,-6.246097013E-2,2.382374369E-2
3.426139811E0,2.977968007E-2,-6.139195710E-2,2.382374369E-2
3.428375346E0,3.451388702E-2,-6.505715102E-2,2.382374369E-2
3.430612956E0,3.833179548E-2,-6.276640296E-2,2.260201424E-2
3.432848552E0,3.817907721E-2,-6.994406879E-2,2.382374369E-2
3.435085856E0,4.306599870E-2,-7.009678334E-2,2.397646010E-2
3.437321940E0,4.428773001E-2,-7.254024595E-2,2.519819140E-2
3.439559001E0,4.184427112E-2,-7.376197726E-2,2.626720630E-2
3.441796061E0,4.535674304E-2,-7.742717117E-2,2.764165215E-2
3.444033915E0,4.657847434E-2,-7.987063378E-2,3.008511290E-2
3.446269755E0,4.764748737E-2,-8.597928286E-2,3.130684420E-2
3.448507243E0,4.886921868E-2,-8.964447677E-2,3.115412779E-2
3.450742534E0,4.993823543E-2,-9.208793938E-2,3.252857551E-2
3.452979594E0,4.871650413E-2,-9.330966324E-2,3.359758854E-2
3.455215983E0,4.749477282E-2,-9.330966324E-2,3.359758854E-2
3.457453349E0,4.856378585E-2,-9.941831976E-2,3.481931984E-2
3.459690348E0,4.734205827E-2,-1.004873365E-1,3.359758854E-2
3.461927714E0,4.734205827E-2,-1.017090604E-1,3.481931984E-2
3.464163737E0,4.963280261E-2,-1.053742543E-1,3.848451003E-2
3.466401225E0,4.978551716E-2,-1.030835137E-1,3.726277873E-2
3.468636577E0,4.352414981E-2,-1.053742543E-1,3.970624134E-2
3.470873393E0,4.474587739E-2,-1.078177169E-1,4.214970022E-2
3.473110026E0,4.108068720E-2,-1.064432710E-1,4.214970022E-2
3.475347331E0,4.108068720E-2,-1.004873365E-1,4.459316283E-2
3.477584269E0,4.367686436E-2,-9.926560521E-2,4.337143153E-2
3.479822001E0,4.489859566E-2,-9.804387391E-2,4.459316283E-2
3.482057841E0,4.734205827E-2,-9.575312585E-2,4.581489414E-2
3.484295573E0,4.871650413E-2,-9.208793938E-2,4.596760869E-2
3.486530681E0,4.749477282E-2,-8.964447677E-2,4.474587739E-2
3.488768046E0,4.749477282E-2,-8.720101416E-2,4.352414981E-2
3.491004436E0,4.886921868E-2,-8.475755155E-2,4.596760869E-2
3.493236857E0,4.886921868E-2,-8.353582025E-2,4.596760869E-2
3.495461039E0,4.764748737E-2,-8.353582025E-2,4.596760869E-2
3.497715678E0,4.642575979E-2,-8.109235764E-2,4.474587739E-2
3.499951945E0,4.657847434E-2,-7.620543987E-2,4.230241850E-2
3.502193889E0,4.276056588E-2,-7.987063378E-2,4.230241850E-2
3.504424785E0,4.276056588E-2,-8.109235764E-2,3.970624134E-2
3.506662028E0,3.909537569E-2,-7.971791178E-2,3.848451003E-2
3.508898234E0,3.909537569E-2,-7.727445662E-2,3.726277873E-2
3.511135234E0,3.558290005E-2,-7.605272532E-2,3.604105115E-2
3.513372477E0,3.191770986E-2,-7.467827946E-2,3.481931984E-2
3.515610026E0,3.054326214E-2,-7.590000331E-2,3.237585723E-2
3.517843730E0,2.703078650E-2,-7.223481685E-2,2.993239649E-2
3.520074626E0,2.580905706E-2,-6.979135424E-2,2.504547499E-2
3.522319011E0,2.092213556E-2,-6.841690838E-2,2.489275858E-2
3.524556071E0,2.107485011E-2,-6.475171447E-2,2.244929783E-2
3.526794657E0,1.496619824E-2,-6.230825558E-2,2.244929783E-2
3.529029704E0,1.252273750E-2,-5.742133409E-2,2.244929783E-2
3.531266520E0,1.145372353E-2,-5.619960278E-2,2.122756653E-2
3.533504069E0,9.010262787E-3,-5.131268129E-2,2.000583708E-2
3.535739970E0,9.010262787E-3,-5.009094998E-2,1.878410578E-2
3.537974955E0,4.276056774E-3,-4.749477282E-2,1.756237634E-2
3.540201152E0,3.054326167E-3,-4.627304152E-2,1.634064503E-2
3.542450358E0,-6.108652451E-4,-4.382958263E-2,1.511891466E-2
3.544686381E0,-6.108652451E-4,-4.016438872E-2,1.389718428E-2
3.546926738E0,7.635815418E-4,-3.772092983E-2,1.511891466E-2
3.549160624E0,-1.679879380E-3,-3.527746722E-2,1.634064503E-2
3.551398661E0,3.359758761E-3,-3.298672289E-2,1.267545391E-2
3.553634196E0,9.162978968E-4,-3.161227703E-2,1.145372353E-2
3.555871745E0,3.359758761E-3,-3.054326214E-2,1.389718428E-2
3.558107036E0,2.138028387E-3,-2.687807009E-2,1.389718428E-2
3.560344340E0,9.162978968E-4,-2.687807009E-2,1.389718428E-2
3.562580485E0,1.069014193E-3,-2.321287990E-2,1.511891466E-2
3.564817790E0,2.290744567E-3,-2.076941915E-2,1.771509275E-2
3.567054606E0,3.665191587E-3,-1.710422710E-2,1.649336144E-2
3.569292460E0,3.512475174E-3,-1.954768784E-2,1.649336144E-2
3.571527507E0,4.734205548E-3,-2.076941915E-2,1.893682219E-2
3.573762919E0,4.734205548E-3,-1.954768784E-2,1.771509275E-2
3.576001323E0,4.734205548E-3,-1.954768784E-2,1.771509275E-2
3.578238200E0,3.512475174E-3,-2.321287990E-2,1.893682219E-2
3.580475504E0,3.512475174E-3,-2.443460934E-2,1.893682219E-2
3.582711772E0,3.359758761E-3,-3.054326214E-2,2.000583708E-2
3.584948771E0,1.985311974E-3,-3.161227703E-2,2.000583708E-2
3.587186747E0,3.207042580E-3,-3.420845419E-2,1.878410578E-2
3.589422587E0,4.276056774E-3,-4.138612002E-2,2.244929783E-2
3.591660075E0,3.054326167E-3,-4.260785133E-2,2.367102914E-2
3.593895122E0,3.970623948E-3,-5.360342562E-2,2.367102914E-2
3.596132426E0,2.748893574E-3,-5.360342562E-2,2.367102914E-2
3.598368754E0,6.414085161E-3,-5.360342562E-2,2.733621933E-2
3.600605876E0,5.192354787E-3,-5.849034712E-2,2.733621933E-2
3.602839762E0,9.926560335E-3,-6.459899992E-2,2.855795063E-2
3.605065836E0,9.773843922E-3,-6.826419383E-2,3.344487399E-2
3.607304728E0,1.343903504E-2,-6.948592514E-2,3.222314268E-2
3.609554423E0,1.221730467E-2,-7.315111160E-2,3.344487399E-2
3.611792400E0,1.466076635E-2,-7.559457421E-2,3.588833287E-2
3.614028849E0,1.695151068E-2,-7.803803682E-2,3.833179548E-2
3.616260295E0,1.939497143E-2,-7.941248268E-2,3.588833287E-2
3.618499980E0,1.817324013E-2,-8.292495459E-2,3.833179548E-2
3.620737223E0,2.046398632E-2,-8.552113175E-2,3.833179548E-2
3.622975199E0,2.412917651E-2,-8.674286306E-2,3.955352306E-2
3.625210673E0,2.306016348E-2,-8.307767659E-2,3.833179548E-2
3.627448100E0,2.550362423E-2,-8.552113175E-2,3.833179548E-2
3.629683513E0,2.428189293E-2,-8.429940045E-2,3.711006418E-2
3.631920573E0,2.550362423E-2,-8.307767659E-2,3.588833287E-2
3.634154216E0,2.916881628E-2,-8.323039114E-2,3.481931984E-2
3.636382548E0,2.932153270E-2,-8.200865984E-2,3.359758854E-2
3.638631327E0,3.176499158E-2,-8.078692853E-2,3.481931984E-2
3.640868815E0,3.665191308E-2,-7.971791178E-2,3.359758854E-2
3.643107585E0,3.680463135E-2,-7.605272532E-2,3.604105115E-2
3.645342143E0,3.558290005E-2,-7.605272532E-2,3.359758854E-2
3.647577495E0,3.436116874E-2,-7.238753140E-2,3.359758854E-2
3.649816996E0,3.573561832E-2,-6.872233748E-2,3.359758854E-2
3.652060710E0,3.573561832E-2,-6.994406879E-2,3.115412779E-2
3.654288249E0,3.329215571E-2,-6.627888232E-2,3.115412779E-2
3.656522074E0,3.207042441E-2,-6.261368841E-2,2.871066704E-2
3.658745341E0,3.222314268E-2,-6.139195710E-2,2.748893574E-2
3.660984110E0,2.855795063E-2,-6.017022580E-2,2.748893574E-2
3.663224772E0,2.733621933E-2,-5.772676691E-2,2.504547499E-2
3.665474590E0,2.244929783E-2,-5.635231733E-2,2.626720630E-2
3.667711589E0,2.122756653E-2,-5.879577994E-2,2.626720630E-2
3.669947367E0,1.511891466E-2,-5.497787148E-2,2.504547499E-2
3.672179362E0,1.389718428E-2,-5.375614017E-2,2.367102914E-2
3.674419169E0,1.145372353E-2,-5.009094998E-2,2.122756653E-2
3.676653910E0,1.023199316E-2,-4.886921868E-2,2.122756653E-2
3.678881572E0,6.566801574E-3,-4.871650413E-2,2.000583708E-2
3.681130656E0,5.497787148E-3,-4.627304152E-2,1.878410578E-2
3.683366130E0,2.901609987E-3,-4.871650413E-2,1.756237634E-2
3.685605937E0,-1.832595794E-3,-4.489859566E-2,1.634064503E-2
3.687834696E0,-4.276056774E-3,-4.245513305E-2,1.634064503E-2
3.690058146E0,-4.276056774E-3,-4.001167417E-2,1.267545391E-2
3.692313151E0,-6.566801574E-3,-3.756821156E-2,1.267545391E-2
3.694550944E0,-9.010262787E-3,-3.390302137E-2,1.389718428E-2
3.696791362E0,-7.788531948E-3,-3.634648025E-2,1.252273750E-2
3.699021647E0,-5.345070735E-3,-3.268129006E-2,9.010262787E-3
3.701247966E0,-1.145372353E-2,-3.145955876E-2,8.857546374E-3
3.703496989E0,-8.857546374E-3,-2.901609987E-2,1.023199316E-2
3.705730387E0,-1.007927675E-2,-3.023782931E-2,8.857546374E-3
3.707959025E0,-1.252273750E-2,-2.901609987E-2,8.857546374E-3
3.710195964E0,-1.007927675E-2,-2.901609987E-2,9.010262787E-3
3.712444987E0,-1.130100712E-2,-2.657263726E-2,7.635815535E-3
3.714683757E0,-1.496619824E-2,-2.641992271E-2,8.857546374E-3
3.716921489E0,-1.145372353E-2,-3.145955876E-2,7.635815535E-3
3.719153972E0,-1.023199316E-2,-3.268129006E-2,7.788531948E-3
3.721391032E0,-1.389718428E-2,-3.008511290E-2,7.635815535E-3
3.723627360E0,-1.634064503E-2,-3.130684420E-2,3.970623948E-3
3.725864665E0,-1.267545391E-2,-3.145955876E-2,6.414085161E-3
3.728101481E0,-1.511891466E-2,-3.008511290E-2,5.192354787E-3
3.730339091E0,-1.511891466E-2,-3.375030309E-2,3.970623948E-3
3.732575114E0,-1.634064503E-2,-3.252857551E-2,5.192354787E-3
3.734812663E0,-1.496619824E-2,-2.886338346E-2,6.414085161E-3
3.737048015E0,-1.634064503E-2,-3.008511290E-2,5.192354787E-3
3.739282328E0,-1.511891466E-2,-3.008511290E-2,6.414085161E-3
3.741510600E0,-1.756237634E-2,-3.130684420E-2,7.635815535E-3
3.743758525E0,-1.634064503E-2,-3.008511290E-2,5.192354787E-3
3.745995829E0,-1.634064503E-2,-3.130684420E-2,6.414085161E-3
3.748236064E0,-1.756237634E-2,-3.375030309E-2,5.192354787E-3
3.750469218E0,-1.618792862E-2,-2.764165215E-2,5.192354787E-3
3.752706645E0,-1.374446787E-2,-2.901609987E-2,3.970623948E-3
3.754942058E0,-8.704829961E-3,-2.412917651E-2,4.123340361E-3
3.757179362E0,-8.857546374E-3,-2.412917651E-2,6.566801574E-3
3.759415690E0,-8.704829961E-3,-2.290744707E-2,7.788531948E-3
3.761652751E0,-3.817907767E-3,-2.306016348E-2,7.788531948E-3
3.763889628E0,-2.596177394E-3,-1.939497143E-2,7.788531948E-3
3.766127665E0,2.443460980E-3,-1.832595654E-2,1.038470957E-2
3.768363444E0,4.886921961E-3,-1.954768784E-2,1.038470957E-2
3.770600810E0,4.886921961E-3,-1.954768784E-2,1.038470957E-2
3.772836284E0,6.108652335E-3,-1.847867295E-2,9.162978269E-3
3.775073344E0,9.773843922E-3,-1.970040426E-2,1.038470957E-2
3.777309794E0,1.343903504E-2,-1.740965992E-2,1.404990070E-2
3.779547099E0,1.099557430E-2,-1.970040426E-2,1.160643995E-2
3.781784098E0,1.221730467E-2,-1.847867295E-2,1.282817032E-2
3.784021403E0,1.343903504E-2,-1.740965992E-2,1.160643995E-2
3.786257243E0,1.710422710E-2,-1.740965992E-2,1.160643995E-2
3.788494975E0,1.710422710E-2,-1.740965992E-2,1.160643995E-2
3.790730388E0,1.725694351E-2,-1.252273750E-2,1.175915636E-2
3.792967448E0,1.970040426E-2,-1.023199316E-2,1.298088674E-2
3.795203776E0,1.985312067E-2,-9.010262787E-3,1.053742506E-2
3.797441081E0,1.618792862E-2,-5.192354787E-3,9.315694682E-3
3.799677958E0,1.740965992E-2,-5.345070735E-3,8.093964309E-3
3.801915690E0,1.374446787E-2,-1.527163084E-3,9.315694682E-3
3.804151286E0,1.511891466E-2,7.635815418E-4,6.872233935E-3
3.806389079E0,1.527163107E-2,5.650503561E-3,6.872233935E-3
3.808624370E0,1.160643995E-2,1.053742506E-2,5.650503561E-3
3.810861491E0,1.298088674E-2,1.542434748E-2,4.428773187E-3
3.813097819E0,6.872233935E-3,2.168571576E-2,3.207042580E-3
3.815335124E0,5.803219974E-3,2.535090782E-2,3.207042580E-3
3.817572001E0,4.581489135E-3,2.779436857E-2,1.985311974E-3
3.819809794E0,2.290744567E-3,3.390302137E-2,1.985311974E-3
3.822045573E0,-0.000000000E0,4.001167417E-2,7.635815418E-4
3.824283122E0,-2.443460980E-3,4.367686436E-2,-4.581489484E-4
3.826515483E0,-5.955935922E-3,4.978551716E-2,-4.581489484E-4
3.828744059E0,-9.621127509E-3,5.222897977E-2,-2.901609987E-3
3.830993083E0,-1.069014147E-2,6.078109145E-2,-5.345070735E-3
3.833229228E0,-1.053742506E-2,6.322455406E-2,-7.788531948E-3
3.835469218E0,-1.038470957E-2,7.055493444E-2,-7.788531948E-3
3.837703593E0,-1.038470957E-2,7.651086897E-2,-7.788531948E-3
3.839939921E0,-1.282817032E-2,7.788532227E-2,-9.010262787E-3
3.842177409E0,-1.756237634E-2,8.277224004E-2,-9.010262787E-3
3.844412761E0,-1.756237634E-2,8.521570265E-2,-7.788531948E-3
3.846649760E0,-2.000583708E-2,8.765916526E-2,-9.010262787E-3
3.848886088E0,-1.740965992E-2,9.254608303E-2,-1.023199316E-2
3.851123149E0,-2.351831272E-2,9.254608303E-2,-1.267545391E-2
3.853360026E0,-2.718350291E-2,9.392052889E-2,-1.267545391E-2
3.855597819E0,-2.840523422E-2,9.514226019E-2,-1.511891466E-2
3.857830424E0,-2.947424725E-2,1.000291854E-1,-1.511891466E-2
3.860058329E0,-3.191770986E-2,1.012509167E-1,-1.511891466E-2
3.862306804E0,-3.313944116E-2,1.012509167E-1,-1.893682219E-2
3.864543864E0,-3.680463135E-2,1.026253626E-1,-1.893682219E-2
3.866783488E0,-3.924809024E-2,1.014036313E-1,-1.893682219E-2
3.869017436E0,-4.291328415E-2,1.038470939E-1,-2.260201424E-2
3.871254130E0,-4.169155285E-2,1.050688252E-1,-2.382374369E-2
3.873492167E0,-4.413501546E-2,1.039998084E-1,-2.138028294E-2
3.875727946E0,-4.780020565E-2,1.088867337E-1,-2.260201424E-2
3.877962748E0,-5.024366826E-2,1.064432710E-1,-2.260201424E-2
3.880189555E0,-4.902193695E-2,1.088867337E-1,-2.382374369E-2
3.882437846E0,-5.390885845E-2,1.113301888E-1,-2.153299935E-2
3.884674235E0,-5.253441259E-2,1.137736514E-1,-2.504547499E-2
3.886914348E0,-5.497787148E-2,1.127046347E-1,-2.519819140E-2
3.889148356E0,-5.742133409E-2,1.127046347E-1,-2.519819140E-2
3.891385966E0,-5.619960278E-2,1.163698286E-1,-2.519819140E-2
3.893621989E0,-5.497787148E-2,1.174388453E-1,-2.504547499E-2
3.895859538E0,-5.986479297E-2,1.188132912E-1,-2.519819140E-2
3.898096477E0,-5.864306539E-2,1.188132912E-1,-2.641992271E-2
3.900338237E0,-5.604688451E-2,1.198823079E-1,-2.626720630E-2
3.902568217E0,-5.726861581E-2,1.223257631E-1,-2.504547499E-2
3.904800761E0,-5.864306539E-2,1.200350225E-1,-2.397646010E-2
3.907022746E0,-5.604688451E-2,1.223257631E-1,-2.504547499E-2
3.909280986E0,-5.238169432E-2,1.235474944E-1,-2.504547499E-2
3.911516154E0,-4.993823543E-2,1.198823079E-1,-2.382374369E-2
3.913758403E0,-4.871650413E-2,1.209513173E-1,-2.260201424E-2
3.915988689E0,-4.749477282E-2,1.172861308E-1,-2.382374369E-2
3.918226054E0,-4.398229718E-2,1.123992056E-1,-2.138028294E-2
3.920462749E0,-4.276056588E-2,1.123992056E-1,-2.138028294E-2
3.922699626E0,-4.153883830E-2,1.136209369E-1,-2.015855350E-2
3.924936503E0,-4.031710699E-2,1.123992056E-1,-2.015855350E-2
3.927174174E0,-3.787364438E-2,1.098030284E-1,-2.138028294E-2
3.929410136E0,-3.680463135E-2,1.038470939E-1,-1.893682219E-2
3.931647868E0,-3.558290005E-2,1.036943719E-1,-1.649336144E-2
3.933882976E0,-3.313944116E-2,1.000291854E-1,-1.649336144E-2
3.936120280E0,-2.947424725E-2,9.880745411E-2,-1.389718428E-2
3.938356547E0,-2.962696366E-2,9.758572280E-2,-1.511891466E-2
3.940593669E0,-2.962696366E-2,9.758572280E-2,-1.267545391E-2
3.942830546E0,-2.962696366E-2,9.636399150E-2,-1.267545391E-2
3.945068522E0,-2.718350291E-2,9.758572280E-2,-1.145372353E-2
3.947304118E0,-2.718350291E-2,9.269879758E-2,-1.267545391E-2
3.949541728E0,-2.840523422E-2,9.392052889E-2,-7.788531948E-3
3.951777202E0,-2.474004216E-2,9.376781434E-2,-9.010262787E-3
3.954014323E0,-2.367102914E-2,8.781187981E-2,-1.145372353E-2
3.956250651E0,-2.107485011E-2,8.888089657E-2,-1.023199316E-2
3.958487712E0,-1.985312067E-2,9.254608303E-2,-7.788531948E-3
3.960724833E0,-1.618792862E-2,9.117163718E-2,-9.010262787E-3
3.962962626E0,-1.374446787E-2,8.872817457E-2,-9.010262787E-3
3.965198466E0,-1.130100712E-2,8.872817457E-2,-6.566801574E-3
3.967435954E0,-7.635815535E-3,8.857546002E-2,-6.414085161E-3
3.969671306E0,-1.527163084E-3,8.735372871E-2,-6.414085161E-3
3.971908549E0,-1.527163084E-3,8.613199741E-2,-6.414085161E-3
3.974144694E0,-1.527163084E-3,8.368854225E-2,-3.970623948E-3
3.976381999E0,-1.679879380E-3,8.246681094E-2,-5.192354787E-3
3.978618754E0,5.650503561E-3,7.987063378E-2,-3.970623948E-3
3.980856425E0,3.207042580E-3,7.987063378E-2,-3.970623948E-3
3.983092448E0,4.428773187E-3,7.864890248E-2,-6.414085161E-3
3.985329997E0,3.207042580E-3,7.987063378E-2,-6.414085161E-3
3.987565410E0,4.581489135E-3,8.109235764E-2,-6.414085161E-3
3.989800883E0,7.635815418E-4,8.002334833E-2,-6.414085161E-3
3.992030131E0,-2.901609987E-3,7.880161703E-2,-7.635815535E-3
3.994268962E0,-5.345070735E-3,8.017606288E-2,-1.007927675E-2
3.996512858E0,-8.857546374E-3,8.506298810E-2,-1.267545391E-2
3.998752421E0,-1.130100712E-2,8.994990587E-2,-1.267545391E-2
4.000988322E0,-1.618792862E-2,9.117163718E-2,-1.267545391E-2
4.003224345E0,-1.863138936E-2,9.132435173E-2,-1.267545391E-2
4.005459636E0,-2.092213556E-2,9.743300825E-2,-1.511891466E-2
4.007696635E0,-2.565634064E-2,1.047633886E-1,-1.634064503E-2
4.009932719E0,-2.687807009E-2,1.108720452E-1,-1.756237634E-2
4.012170024E0,-2.794708498E-2,1.157589629E-1,-1.878410578E-2
4.014406962E0,-3.145955876E-2,1.218676195E-1,-2.122756653E-2
4.016642008E0,-3.268129006E-2,1.218676195E-1,-2.122756653E-2
4.018868632E0,-3.023782931E-2,1.230893433E-1,-2.244929783E-2
4.021118327E0,-3.252857551E-2,1.316414624E-1,-2.122756653E-2
4.023353374E0,-3.497203439E-2,1.340849251E-1,-2.367102914E-2
4.025593791E0,-3.481931984E-2,1.389718503E-1,-2.489275858E-2
4.027824504E0,-3.359758854E-2,1.389718503E-1,-2.611448988E-2
4.030054606E0,-3.604105115E-2,1.401935667E-1,-2.611448988E-2
4.032306803E0,-3.711006418E-2,1.426370293E-1,-2.855795063E-2
4.034538737E0,-3.466660157E-2,1.426370293E-1,-3.222314268E-2
4.036774638E0,-3.466660157E-2,1.401935667E-1,-3.100141138E-2
4.038999003E0,-3.955352306E-2,1.426370293E-1,-3.100141138E-2
4.041247722E0,-3.833179548E-2,1.438587606E-1,-3.100141138E-2
4.043484721E0,-3.848451003E-2,1.401935667E-1,-3.222314268E-2
4.045724101E0,-3.711006418E-2,1.426370293E-1,-3.222314268E-2
4.047955485E0,-3.588833287E-2,1.426370293E-1,-3.222314268E-2
4.050183512E0,-3.588833287E-2,1.426370293E-1,-3.344487399E-2
4.052432841E0,-3.588833287E-2,1.426370293E-1,-3.344487399E-2
4.054668864E0,-3.588833287E-2,1.426370293E-1,-3.344487399E-2
4.056909343E0,-3.711006418E-2,1.438587606E-1,-3.344487399E-2
4.059141826E0,-3.833179548E-2,1.438587606E-1,-3.222314268E-2
4.061379069E0,-3.711006418E-2,1.438587606E-1,-3.344487399E-2
4.063615397E0,-3.711006418E-2,1.438587606E-1,-3.100141138E-2
4.065852580E0,-3.588833287E-2,1.414152980E-1,-2.977968007E-2
4.068089701E0,-3.344487399E-2,1.414152980E-1,-2.977968007E-2
4.070326762E0,-3.466660157E-2,1.414152980E-1,-2.977968007E-2
4.072563090E0,-2.993239649E-2,1.375973970E-1,-2.962696366E-2
4.074802104E0,-2.871066704E-2,1.363756657E-1,-2.840523422E-2
4.077036052E0,-2.382374369E-2,1.314887404E-1,-2.596177347E-2
4.079272929E0,-2.275473066E-2,1.278235465E-1,-2.596177347E-2
4.081509013E0,-1.908953860E-2,1.252273768E-1,-2.229658142E-2
4.083746440E0,-1.664607786E-2,1.215621829E-1,-2.107485011E-2
4.085983378E0,-1.191187184E-2,1.142318025E-1,-1.863138936E-2
4.088221110E0,-1.084285788E-2,1.105666086E-1,-1.740965992E-2
4.090456950E0,-5.955935922E-3,1.056796908E-1,-1.618792862E-2
4.092694499E0,-2.443460980E-3,9.590584040E-2,-1.618792862E-2
4.094929851E0,-3.817907767E-3,8.979719132E-2,-1.496619824E-2
4.097167155E0,9.162978968E-4,8.368854225E-2,-1.130100712E-2
4.099403483E0,3.207042580E-3,7.880161703E-2,-8.857546374E-3
4.101637675E0,1.832595794E-3,7.269296050E-2,-7.635815535E-3
4.103862955E0,3.054326167E-3,6.658431143E-2,-7.635815535E-3
4.106103556E0,5.345070735E-3,5.803219974E-2,-6.414085161E-3
4.108351481E0,5.192354787E-3,5.085453019E-2,-6.566801574E-3
4.110591472E0,3.817907767E-3,4.596760869E-2,-4.123340361E-3
4.112824931E0,1.069014193E-3,3.634648025E-2,-5.345070735E-3
4.115052531E0,3.512475174E-3,3.268129006E-2,-5.345070735E-3
4.117297526E0,9.162978968E-4,2.779436857E-2,-2.901609987E-3
4.119534587E0,9.162978968E-4,2.412917651E-2,-4.276056774E-3
4.121773844E0,-3.054326226E-4,2.290744707E-2,-4.276056774E-3
4.124009501E0,-5.345070735E-3,1.939497143E-2,-5.497787148E-3
4.126245341E0,-5.345070735E-3,1.939497143E-2,-5.497787148E-3
4.128482829E0,-5.497787148E-3,1.572977938E-2,-1.832595794E-3
4.130718120E0,-7.941247895E-3,1.343903504E-2,-5.497787148E-3
4.132952311E0,-9.162978269E-3,1.343903504E-2,-6.719517522E-3
4.135177104E0,-9.162978269E-3,1.466076635E-2,-6.719517522E-3
4.137416911E0,-9.162978269E-3,1.588249579E-2,-7.941247895E-3
4.139665751E0,-1.023199316E-2,1.710422710E-2,-1.160643995E-2
4.141906352E0,-9.010262787E-3,2.076941915E-2,-9.162978269E-3
4.144142131E0,-1.023199316E-2,1.954768784E-2,-1.038470957E-2
4.146377116E0,-9.010262787E-3,2.076941915E-2,-1.282817032E-2
4.148612163E0,-8.857546374E-3,2.321287990E-2,-1.160643995E-2
4.150849345E0,-9.010262787E-3,2.199114859E-2,-1.282817032E-2
4.153085795E0,-1.007927675E-2,2.443460934E-2,-1.282817032E-2
4.155322917E0,-7.635815535E-3,2.672535367E-2,-1.404990070E-2
4.157559733E0,-7.635815535E-3,2.550362423E-2,-1.404990070E-2
4.159793254E0,-7.635815535E-3,2.916881628E-2,-1.404990070E-2
4.162014262E0,-8.704829961E-3,2.916881628E-2,-1.649336144E-2
4.164259013E0,-7.483099122E-3,2.916881628E-2,-1.649336144E-2
4.166506572E0,-1.007927675E-2,2.916881628E-2,-1.527163107E-2
4.168747599E0,-1.007927675E-2,2.916881628E-2,-1.404990070E-2
4.170982890E0,-1.252273750E-2,2.809980139E-2,-1.404990070E-2
4.173216899E0,-1.374446787E-2,3.054326214E-2,-1.282817032E-2
4.175453776E0,-1.496619824E-2,3.176499158E-2,-1.404990070E-2
4.177691569E0,-1.740965992E-2,2.932153270E-2,-1.542434748E-2
4.179927470E0,-1.618792862E-2,2.565634064E-2,-1.420261711E-2
4.182165263E0,-1.618792862E-2,2.687807009E-2,-1.282817032E-2
4.184400554E0,-1.878410578E-2,2.458732575E-2,-1.420261711E-2
4.186637614E0,-2.000583708E-2,1.847867295E-2,-1.664607786E-2
4.188873881E0,-1.878410578E-2,1.847867295E-2,-1.664607786E-2
4.191111003E0,-2.138028294E-2,1.374446787E-2,-1.786780916E-2
4.193348124E0,-2.260201424E-2,1.496619824E-2,-1.542434748E-2
4.195582804E0,-2.138028294E-2,1.130100712E-2,-1.908953860E-2
4.197808635E0,-2.153299935E-2,1.130100712E-2,-1.542434748E-2
4.200056620E0,-2.397646010E-2,1.130100712E-2,-1.542434748E-2
4.202294780E0,-2.275473066E-2,7.635815535E-3,-1.542434748E-2
4.204534709E0,-2.031126991E-2,5.192354787E-3,-1.298088674E-2
4.206768656E0,-1.908953860E-2,5.192354787E-3,-1.420261711E-2
4.209005229E0,-1.664607786E-2,8.704829961E-3,-1.175915636E-2
4.211242106E0,-1.664607786E-2,5.039638374E-3,-1.175915636E-2
4.213479716E0,-1.420261711E-2,3.817907767E-3,-8.093964309E-3
4.215715800E0,-1.053742506E-2,2.596177394E-3,-8.093964309E-3
4.217950602E0,-1.069014147E-2,1.527163113E-4,-5.650503561E-3
4.220176921E0,-7.024950348E-3,-0.000000000E0,-4.428773187E-3
4.222425700E0,-4.581489135E-3,-0.000000000E0,-3.054326167E-3
4.224662211E0,-2.138028387E-3,-3.665191587E-3,-1.832595794E-3
4.226902263E0,-3.512475174E-3,-6.108652335E-3,-6.108652451E-4
4.229136210E0,-2.290744567E-3,-7.330383174E-3,6.108652451E-4
4.231373942E0,-1.069014193E-3,-9.773843922E-3,1.832595794E-3
4.233609782E0,-1.069014193E-3,-1.221730467E-2,2.901609987E-3
4.235847331E0,6.261368748E-3,-1.359175146E-2,4.276056774E-3
4.238079692E0,7.330383174E-3,-1.603521220E-2,4.276056774E-3
4.240304972E0,9.773843922E-3,-1.970040426E-2,1.832595794E-3
4.242544108E0,1.221730467E-2,-2.214386500E-2,4.276056774E-3
4.244793376E0,1.343903504E-2,-2.336559631E-2,5.497787148E-3
4.247033183E0,1.328631863E-2,-2.703078650E-2,3.054326167E-3
4.249271037E0,1.710422710E-2,-2.596177347E-2,5.497787148E-3
4.251503825E0,1.954768784E-2,-2.474004216E-2,6.719517522E-3
4.253741374E0,2.061670274E-2,-2.840523422E-2,6.719517522E-3
4.255976726E0,1.939497143E-2,-2.962696366E-2,4.276056774E-3
4.258211100E0,2.199114859E-2,-2.718350291E-2,4.276056774E-3
4.260438701E0,2.687807009E-2,-2.733621933E-2,3.207042580E-3
4.262687663E0,2.443460934E-2,-2.611448988E-2,3.207042580E-3
4.264924296E0,2.687807009E-2,-2.489275858E-2,5.650503561E-3
4.267165263E0,2.809980139E-2,-2.367102914E-2,5.650503561E-3
4.269398173E0,2.947424725E-2,-2.015855350E-2,4.428773187E-3
4.271635966E0,2.947424725E-2,-2.015855350E-2,5.650503561E-3
4.273870952E0,2.825251780E-2,-2.000583708E-2,5.650503561E-3
4.276108012E0,2.825251780E-2,-1.878410578E-2,4.428773187E-3
4.278341410E0,2.703078650E-2,-1.634064503E-2,4.428773187E-3
4.280569743E0,2.596177347E-2,-1.389718428E-2,4.428773187E-3
4.282817607E0,2.474004216E-2,-7.788531948E-3,1.985311974E-3
4.285056376E0,2.229658142E-2,-7.788531948E-3,3.207042580E-3
4.287295085E0,2.229658142E-2,-9.010262787E-3,5.650503561E-3
4.289530009E0,1.863138936E-2,-6.566801574E-3,5.650503561E-3
4.291765239E0,1.740965992E-2,-6.566801574E-3,3.207042580E-3
4.294002055E0,1.863138936E-2,-6.566801574E-3,7.635815418E-4
4.296238444E0,1.618792862E-2,-1.007927675E-2,7.635815418E-4
4.298475749E0,1.374446787E-2,-8.857546374E-3,6.108652451E-4
4.300712870E0,1.252273750E-2,-7.635815535E-3,6.108652451E-4
4.302950419E0,1.130100712E-2,-6.414085161E-3,6.108652451E-4
4.305186259E0,1.130100712E-2,-8.857546374E-3,-1.832595794E-3
4.307423930E0,7.635815535E-3,-7.483099122E-3,-3.054326167E-3
4.309659099E0,5.039638374E-3,-1.114829071E-2,-3.054326167E-3
4.311896403E0,5.039638374E-3,-1.114829071E-2,-6.719517522E-3
4.314132731E0,1.527163084E-3,-7.330383174E-3,-5.497787148E-3
4.316370097E0,1.527163113E-4,-1.343903504E-2,-4.428773187E-3
4.318606852E0,-2.443460980E-3,-1.588249579E-2,-1.985311974E-3
4.320844462E0,-4.886921961E-3,-1.572977938E-2,-3.207042580E-3
4.323080485E0,-7.330383174E-3,-1.572977938E-2,-5.650503561E-3
4.325316264E0,-1.099557430E-2,-1.557706390E-2,-4.428773187E-3
4.327546245E0,-1.588249579E-2,-1.435533352E-2,-4.428773187E-3
4.329790202E0,-1.725694351E-2,-1.679879427E-2,-2.138028387E-3
4.332026958E0,-1.847867295E-2,-1.786780916E-2,-3.359758761E-3
4.334265605E0,-2.092213556E-2,-1.908953860E-2,-4.581489135E-3
4.336500956E0,-2.596177347E-2,-2.260201424E-2,-3.359758761E-3
4.338738444E0,-2.840523422E-2,-2.260201424E-2,-3.359758761E-3
4.340974589E0,-2.840523422E-2,-2.504547499E-2,-3.359758761E-3
4.343212077E0,-3.207042441E-2,-2.367102914E-2,-3.512475174E-3
4.345447490E0,-3.466660157E-2,-2.611448988E-2,-3.512475174E-3
4.347684733E0,-3.588833287E-2,-2.855795063E-2,-5.955935922E-3
4.349921062E0,-3.695734590E-2,-2.489275858E-2,-5.955935922E-3
4.352155192E0,-3.833179548E-2,-2.489275858E-2,-5.955935922E-3
4.354380351E0,-3.711006418E-2,-2.733621933E-2,-4.734205548E-3
4.356618999E0,-3.726277873E-2,-3.329215571E-2,-5.955935922E-3
4.358856608E0,-3.726277873E-2,-3.329215571E-2,-4.734205548E-3
4.361094462E0,-3.955352306E-2,-3.084869497E-2,-4.734205548E-3
4.363329875E0,-3.711006418E-2,-3.084869497E-2,-4.734205548E-3
4.365566142E0,-3.711006418E-2,-3.207042441E-2,-4.734205548E-3
4.367803264E0,-3.604105115E-2,-3.329215571E-2,-3.512475174E-3
4.370039897E0,-3.481931984E-2,-3.817907721E-2,-3.512475174E-3
4.372280314E0,-3.741549700E-2,-4.062253982E-2,-2.290744567E-3
4.374527018E0,-3.252857551E-2,-4.306599870E-2,-4.734205548E-3
4.376751017E0,-3.252857551E-2,-4.306599870E-2,-2.290744567E-3
4.378988505E0,-2.886338346E-2,-4.688390717E-2,-3.512475174E-3
4.381221049E0,-2.779436857E-2,-5.177082866E-2,1.527163113E-4
4.383461100E0,-2.657263726E-2,-5.543602258E-2,1.374446787E-3
4.385697490E0,-2.535090782E-2,-5.665775016E-2,2.596177394E-3
4.387934672E0,-2.183843218E-2,-5.910121277E-2,3.817907767E-3
4.390171305E0,-1.939497143E-2,-6.398813426E-2,2.596177394E-3
4.392409098E0,-1.817324013E-2,-6.520986557E-2,6.261368748E-3
4.394644877E0,-1.466076635E-2,-6.780604273E-2,7.483099122E-3
4.396882548E0,-1.099557430E-2,-7.024950534E-2,6.261368748E-3
4.399118022E0,-8.552113548E-3,-7.147123665E-2,6.261368748E-3
4.401355021E0,-1.221730490E-3,-7.284568250E-2,1.007927675E-2
4.403591289E0,-0.000000000E0,-7.528914511E-2,1.007927675E-2
4.405825969E0,2.443460980E-3,-7.544185966E-2,1.007927675E-2
4.408066264E0,6.108652335E-3,-7.544185966E-2,1.252273750E-2
4.410303569E0,9.773843922E-3,-7.437284291E-2,1.389718428E-2
4.412539896E0,1.343903504E-2,-7.559457421E-2,1.389718428E-2
4.414776591E0,1.359175146E-2,-7.437284291E-2,1.511891466E-2
4.417015665E0,1.725694351E-2,-7.559457421E-2,1.267545391E-2
4.419263835E0,2.214386500E-2,-7.452555746E-2,1.389718428E-2
4.421500408E0,2.092213556E-2,-7.330382615E-2,1.389718428E-2
4.423734172E0,2.336559631E-2,-7.330382615E-2,1.511891466E-2
4.425959941E0,2.474004216E-2,-7.101308554E-2,1.389718428E-2
4.428209086E0,2.596177347E-2,-6.979135424E-2,1.404990070E-2
4.430444804E0,2.351831272E-2,-6.734789163E-2,1.404990070E-2
4.432682536E0,2.977968007E-2,-6.627888232E-2,1.160643995E-2
4.434903422E0,2.855795063E-2,-6.490442902E-2,1.038470957E-2
4.437143290E0,2.871066704E-2,-5.894849449E-2,1.038470957E-2
4.439391521E0,2.993239649E-2,-5.894849449E-2,1.038470957E-2
4.441631450E0,2.626720630E-2,-5.757404864E-2,7.941247895E-3
4.443868388E0,2.748893574E-2,-5.772676691E-2,7.941247895E-3
4.446100199E0,2.748893574E-2,-5.650503561E-2,6.719517522E-3
4.448327067E0,2.764165215E-2,-5.161811411E-2,5.497787148E-3
4.450576640E0,2.519819140E-2,-5.161811411E-2,3.054326167E-3
4.452812175E0,2.764165215E-2,-5.039638281E-2,1.832595794E-3
4.455052165E0,2.764165215E-2,-5.039638281E-2,6.108652451E-4
4.457285319E0,3.023782931E-2,-4.795292020E-2,-6.108652451E-4
4.459522624E0,3.023782931E-2,-4.550946131E-2,-6.108652451E-4
4.461759684E0,2.779436857E-2,-4.673119262E-2,-6.108652451E-4
4.463997294E0,2.779436857E-2,-4.673119262E-2,-6.108652451E-4
4.466233073E0,2.779436857E-2,-4.795292020E-2,-3.054326167E-3
4.468470561E0,2.535090782E-2,-4.673119262E-2,-3.054326167E-3
4.470705913E0,2.275473066E-2,-4.780020565E-2,-6.108652451E-4
