"Time (s)","Linear Acceleration x (m/s^2)","Linear Acceleration y (m/s^2)","Linear Acceleration z (m/s^2)"
1.492806190E-1,-3.608936071E-2,-2.804601192E-1,-5.610170364E-1
1.671865640E-1,2.885507345E-1,-2.821972370E-1,-1.368274689E-1
1.850805460E-1,4.927285612E-1,-7.770681381E-2,7.263555527E-1
2.029598790E-1,3.959496617E-1,-5.340886116E-2,1.117341995E0
2.208568520E-1,-1.408541948E-1,-1.282737255E-1,5.678682327E-1
2.387448530E-1,-6.060786843E-1,-3.488011360E-1,-1.042175293E-2
2.566537270E-1,-7.239022255E-1,-3.531441689E-1,-1.214551926E-1
2.745507000E-1,-3.240189552E-1,-7.193398476E-2,1.804513931E-1
2.924448040E-1,2.778254151E-1,-1.616876125E-1,8.986110687E-1
3.103384810E-1,7.007222176E-1,-5.976448059E-1,1.128196716E0
3.282325240E-1,4.549593925E-1,-5.440621376E-1,1.150603294E0
3.461266890E-1,-1.868015528E-2,-1.921172142E-1,2.406854630E-1
3.640206710E-1,-2.811223567E-1,2.148211002E-1,-3.466653824E-1
3.819147140E-1,-1.907767951E-1,6.197497845E-1,4.825592041E-4
3.998087570E-1,6.517104506E-1,7.419362068E-1,1.245628357E0
4.177025550E-1,1.729571819E0,3.951780796E-1,1.774526596E0
4.355966590E-1,1.506449461E0,2.039561272E-1,9.878263474E-1
4.534907020E-1,1.945336819E0,-6.252732277E-1,-2.917642593E-1
4.713844400E-1,2.222181082E0,-7.970399857E-1,-1.582033157E0
4.892778120E-1,1.695513129E0,-8.993555307E-1,-1.659866333E0
5.071699020E-1,1.070177197E0,-4.221460819E-1,-1.029722214E0
5.250546060E-1,1.172212958E0,3.407847881E-1,-2.198476791E-1
5.429606730E-1,-5.045301914E-1,4.877963066E-1,-8.645868301E-1
5.608577070E-1,-2.635027885E0,6.161806583E-1,-1.878269672E0
5.787501630E-1,-1.011570454E0,-3.801643848E-1,-2.385402679E0
5.966396280E-1,-5.707740784E-2,4.891099930E-1,-1.654691696E-1
6.145248820E-1,1.196118742E-1,7.387861013E-1,1.536478043E0
6.324186810E-1,3.925828338E-1,-3.726348877E-1,7.981147766E-1
6.503246260E-1,-4.093972445E-1,-1.901433229E0,-1.947124481E0
6.682186080E-1,-2.961629629E-2,-6.703325510E-1,-2.504426003E0
6.861129560E-1,1.034119278E-1,2.888106108E-1,-2.329324722E0
7.040068160E-1,-1.341044903E-3,2.659164667E-1,-8.600997925E-1
7.219007370E-1,-6.769323349E-2,1.406325102E-1,6.563100815E-1
7.397949020E-1,5.865471363E-1,-9.896987677E-2,8.890981674E-1
7.576918740E-1,8.889049292E-1,-1.782276034E-1,1.101478577E0
7.755827430E-1,-1.123391390E-1,-5.034520030E-1,1.775674820E0
7.934767250E-1,-7.496356368E-1,-1.225101352E0,2.057058334E0
8.113710120E-1,-9.443101883E-1,-1.646494627E0,-1.509675980E-1
8.292648110E-1,-1.079044938E0,-1.608222246E0,-9.054346085E-1
8.471578770E-1,-5.549218655E-1,-1.082270861E0,-1.610420227E0
8.650528970E-1,4.936263561E-1,-1.001284599E0,-1.780435562E0
8.829463910E-1,1.629351497E0,-1.608295441E-1,-7.620630264E-1
9.008407390E-1,1.038848281E0,6.917732954E-1,2.739210129E-1
9.187320960E-1,8.878262043E-1,8.799684048E-2,-3.753767014E-1
9.366260780E-1,3.865556717E-1,-2.533971071E-1,-3.065118790E-1
9.545232340E-1,6.107327938E-1,-4.839071035E-1,9.270000458E-1
9.724199630E-1,5.321197510E-1,-4.919404984E-1,1.846796036E0
9.903109540E-1,-1.627526283E-1,-4.269006252E-1,1.893109322E0
1.008190592E0,-3.287743330E-1,-6.879521608E-1,1.057532310E0
1.026099101E0,-3.896577358E-1,-3.480772972E-1,2.559957504E-1
1.043993083E0,-2.460061312E-1,9.354639053E-2,2.369117737E-2
1.061886150E0,-2.736557722E-1,7.443630695E-2,-4.642457962E-1
1.079781230E0,-4.793303013E-1,-5.375493765E-1,-9.808006287E-1
1.097678264E0,9.507465363E-2,1.009600163E-1,-1.170555115E0
1.115569499E0,4.916054010E-1,-2.116580009E-1,-1.367932320E0
1.133463053E0,4.414994717E-1,-5.165097713E-1,-1.784553051E0
1.151345500E0,7.150820494E-1,-3.097026348E-1,-1.385727882E0
1.169254130E0,4.126193523E-1,8.391404152E-2,-6.942253113E-1
1.187145182E0,2.856442928E-1,-1.652855873E-1,4.524145126E-1
1.205039225E0,7.367789745E-2,-2.466744184E-1,1.657276154E0
1.222933268E0,2.841027975E-1,-4.720699787E-2,1.848550797E0
1.240827311E0,6.820023060E-2,8.551537991E-2,1.199330330E0
1.258721354E0,4.370844364E-2,-2.162358761E-1,4.706888199E-1
1.276612406E0,1.626224518E-1,-4.060851336E-1,-1.551389694E-1
1.294509501E0,3.144787550E-1,-5.574204922E-1,-1.595559120E0
1.312403483E0,-5.268836021E-1,-1.225594282E0,-3.187154770E0
1.330297587E0,-1.879856825E0,-2.252130508E0,-4.764928818E0
1.348191325E0,-2.607811689E0,-3.414501190E0,-6.223309517E0
1.366082438E0,-2.643378496E0,-3.740745783E0,-7.521162033E0
1.383979411E0,-2.773745060E0,-3.782865524E0,-8.790695190E0
1.401873698E0,-2.840473890E0,-3.783187151E0,-8.744661331E0
1.419767558E0,-3.139445305E0,-4.778865814E0,-7.684930801E0
1.437661601E0,-3.889743567E0,-5.443600178E0,-6.135967731E0
1.455555400E0,-3.335704803E0,-4.964313030E0,-4.007896900E0
1.473449870E0,-1.323249817E0,-4.528390884E0,-8.569655418E-1
1.491343913E0,-2.182292938E-2,-4.159946442E0,2.597527504E0
1.509237651E0,1.614651680E0,-4.280974865E0,2.333649635E0
1.527132060E0,4.369624138E0,-4.730588913E0,3.288716316E0
1.545025614E0,7.644418716E0,-4.675999641E0,5.631730080E0
1.562919657E0,9.331561089E0,-3.493739605E0,5.827709198E0
1.580813945E0,8.624083519E0,-9.387426376E-1,3.383700371E0
1.598707682E0,6.004021645E0,-6.363496780E-1,6.628720760E-1
1.616602396E0,4.980685711E0,9.576430321E-1,-1.003752112E0
1.634495768E0,2.086641788E0,1.762154102E0,-1.867069006E0
1.652392619E0,1.743216515E-1,8.613729477E-1,-1.721709967E0
1.670283854E0,8.541393280E-2,5.148773193E-1,-5.008533001E-1
1.688177897E0,3.790588379E-1,2.344536781E-1,7.990227938E-1
1.706071940E0,2.247955799E0,-5.579700470E-1,2.470197916E0
1.723951640E0,4.698140144E0,-2.245975971E0,4.409557343E0
1.741860270E0,5.246614933E0,-2.767640591E0,4.476732254E0
1.759750346E0,4.469017506E0,-2.864056110E0,2.666581154E0
1.777648112E0,5.261689186E0,-2.261275291E0,1.062510014E0
1.795542155E0,6.911434650E0,-1.263586044E0,1.068568945E0
1.813436259E0,6.782564640E0,-9.875974655E-1,-9.021830559E-2
1.831330302E0,5.094185829E0,7.307262421E-1,-1.430584431E0
1.849223613E0,3.877989769E0,8.032984734E-1,-2.556560993E0
1.867118327E0,2.370474339E0,-2.179174423E-1,-2.397106171E0
1.885011027E0,1.725100517E0,-1.209032059E0,-6.069705486E-1
1.902906413E0,6.881585121E-1,-1.502573490E0,5.055451393E-1
1.920800761E0,9.829096794E-1,-1.192281246E0,-2.651338577E-1
1.938698100E0,8.267211914E-1,-1.000936508E0,-1.189178944E0
1.956585795E0,2.257418633E-1,-6.205687523E-1,-3.016087532E0
1.974482585E0,-8.785104752E-2,-1.968636513E-1,-2.684656858E0
1.992376628E0,-4.876389503E-1,3.292965889E-1,-2.264672279E0
2.010270426E0,1.225520611E0,5.862903595E-1,-2.427868843E-1
2.028164958E0,1.220709324E0,8.021545410E-1,3.776812553E-1
2.046058818E0,3.580188751E-1,1.503973484E0,-1.365521908E0
2.063952861E0,-1.012233734E0,2.884250641E0,-3.840534210E0
2.081847148E0,-1.260733128E0,4.058021069E0,-4.822029591E0
2.099740946E0,-1.764005661E0,2.820519209E0,-2.857696056E0
2.117638164E0,-2.306710243E0,-5.480127335E-1,-1.921782494E-1
2.135529033E0,-3.502883434E0,-1.147410870E0,2.848354101E0
2.153422953E0,-2.084713459E0,1.501718044E0,2.892279863E0
2.171316996E0,-7.198905945E-2,4.542553425E0,2.006090641E0
2.189212443E0,-3.885550499E-1,4.262147427E0,2.853612900E0
2.207104410E0,-3.606498718E0,3.843259811E-2,4.516458035E0
2.224994364E0,-3.464735508E0,-6.572699547E-1,4.184043884E0
2.242893168E0,-5.418192863E0,-1.348098278E0,2.809522152E0
2.260776713E0,-6.081049919E0,-7.823381424E-1,1.345172167E0
2.278681315E0,-6.752762794E0,-6.779808998E-1,-1.878052473E0
2.296572916E0,-5.273050308E0,-7.125272751E-1,-3.809869766E0
2.314469645E0,-1.972693443E0,-2.112211704E0,-5.224091053E0
2.332363444E0,-1.612405777E-1,-2.457812786E0,-4.123573303E0
2.350245768E0,9.365992546E-1,-1.582602024E0,-1.455884933E0
2.368151774E0,2.423525333E0,-6.050920486E-2,-3.400939107E-1
2.386045817E0,3.315490246E0,-6.500439644E-1,-5.893113613E-1
2.403939921E0,3.988495350E0,-4.923396111E-1,-3.292739391E-1
2.421833842E0,2.956506252E0,7.435798645E-2,5.061026812E-1
2.439727946E0,9.465012550E-1,-2.670217514E0,2.372964859E0
2.457621989E0,1.224383831E0,-3.904630184E0,3.536127567E0
2.475516154E0,1.310945511E0,-3.058681488E0,9.735798836E-1
2.493410075E0,1.655622482E0,-1.475567818E0,-2.632979870E0
2.511305461E0,1.070447922E0,3.712916374E-1,-3.144653320E0
2.529198649E0,1.364137173E0,2.176984310E0,-2.080754042E0
2.547089335E0,8.725523949E-1,4.888305664E-1,-6.813136339E-1
2.564986247E0,-1.233066082E0,1.390823364E0,2.184741974E0
2.582882060E0,-2.243814230E0,2.764149666E0,1.666609645E-1
2.600779155E0,-2.410802841E0,2.275491714E0,-8.205978274E-1
2.618668620E0,-2.097671032E0,1.997418404E0,-6.037206650E-1
2.636558635E0,-1.527810097E0,2.707871437E0,-2.266209573E-1
2.654456767E0,-6.166036129E-1,5.149751663E0,3.420672417E-1
2.672350810E0,-1.213631630E0,5.235299587E0,2.679151297E-1
2.690251567E0,-1.624472141E0,4.508055210E0,1.820393682E0
2.708141887E0,-2.214857340E0,3.333031654E0,2.976292133E0
2.726033000E0,-2.809311152E0,3.275102615E0,1.918944120E0
2.743914714E0,-3.345622063E0,4.010144234E0,9.265161157E-1
2.761821269E0,-3.069170237E0,4.832558155E0,5.952832699E-1
2.779715373E0,-2.229098082E0,5.204697609E0,6.007612944E-1
2.797609355E0,-1.435380220E0,4.775567532E0,7.636476159E-1
2.815503398E0,-1.685881615E-2,-1.694955826E-1,1.799122095E0
2.833397135E0,1.391636372E0,-2.783915520E1,8.840858459E0
2.851291423E0,8.948459029E-1,-2.380428505E1,7.426633358E0
2.869185588E0,-7.813070416E-1,-1.504767418E1,-1.816698074E0
2.887079570E0,-1.434998274E0,-4.399946213E0,-7.262634277E0
2.904973551E0,-8.429428339E-1,1.217765808E-1,-1.679419041E0
2.922867594E0,-5.733271837E-1,2.548686028E0,9.062895775E-1
2.940761943E0,-2.862024009E-1,3.586300373E0,1.055374622E0
2.958655986E0,-7.113143802E-2,3.135955334E0,9.502528906E-1
2.976549174E0,-5.562164783E-1,1.525510788E0,7.371431589E-1
2.994442118E0,-1.414545059E0,7.066726685E-2,3.722908497E-1
3.012338298E0,-1.072592020E0,-6.382293701E-1,-3.992501497E-1
3.030220378E0,-3.056852221E-1,-6.790552139E-1,-8.728164434E-1
3.048126139E0,1.201743260E-1,-5.330400467E-1,-7.577204704E-1
3.066006999E0,2.960898876E-1,-2.377681732E-1,-5.067369938E-1
3.083917399E0,2.966058850E-1,-1.580429077E-1,2.024242878E-1
3.101808573E0,3.107201755E-1,-4.679393768E-2,6.793313026E-1
3.119702861E0,4.646986127E-1,1.981010437E-1,8.102023602E-1
3.137582256E0,6.271480322E-1,2.863559723E-1,7.216503620E-1
3.155490885E0,5.070203543E-1,2.018957138E-1,5.692982674E-1
3.173385050E0,2.394338250E-1,7.309341431E-2,3.612544537E-1
3.191278971E0,-7.783834636E-2,5.424976349E-2,2.247939110E-1
3.209170146E0,-3.179995418E-1,1.660604477E-1,1.864230633E-1
3.227067118E0,-4.618245959E-1,2.048997879E-1,2.235460281E-1
3.244961100E0,-5.303418636E-1,1.393852234E-1,3.093452454E-1
3.262855143E0,-5.339001417E-1,7.387924194E-2,3.851089478E-1
3.280749430E0,-4.785408378E-1,2.716541290E-2,4.107501507E-1
3.298643778E0,-3.769630194E-1,-6.516456604E-3,2.957403660E-1
3.316535502E0,-1.945991516E-1,-2.687740326E-2,1.033678055E-1
3.334431559E0,-6.191439182E-2,-2.323532104E-2,-1.448583603E-2
3.352325663E0,7.181503624E-2,-2.289581299E-2,-3.000378609E-2
3.370208415E0,1.238896102E-1,3.201580048E-2,-3.439688683E-2
3.388113627E0,1.397976279E-1,1.136522293E-1,4.611825943E-2
3.406004679E0,1.196567714E-1,1.056156158E-1,1.850965023E-1
3.423902079E0,5.847918987E-2,9.786128998E-2,3.163890839E-1
3.441796061E0,1.853121817E-2,6.844043732E-2,3.562617302E-1
3.459690348E0,-3.850322217E-2,7.932662964E-2,2.576162815E-1
3.477584269E0,-1.003194451E-1,1.307868958E-1,1.330535412E-1
3.495461039E0,-1.779757589E-1,7.888507843E-2,1.274871826E-2
3.513372477E0,-2.279822230E-1,-5.904579163E-2,-5.340480804E-2
3.531266520E0,-2.286260724E-1,-5.952930450E-2,-6.365895271E-2
3.549160624E0,-1.522354484E-1,1.867103577E-2,7.077455521E-3
3.567054606E0,-5.377658457E-2,3.921890259E-2,9.242320061E-2
3.584948771E0,3.023648262E-2,7.001113892E-2,1.372177601E-1
3.602839762E0,3.775364906E-2,1.252079010E-1,1.934325695E-1
3.620737223E0,-1.703056693E-2,1.404399872E-1,2.540864944E-1
3.638631327E0,-6.265072525E-2,6.502056122E-2,2.990353107E-1
3.656522074E0,-1.140366793E-1,-1.266193390E-2,2.221629620E-1
3.674419169E0,-1.320177466E-1,4.242897034E-3,5.328059196E-2
3.692313151E0,-1.549760550E-1,2.636241913E-2,-1.801228523E-2
3.710195964E0,-1.818645149E-1,-1.723289490E-3,2.571368217E-2
3.728101481E0,-1.905768365E-1,2.768039703E-2,1.384871006E-1
3.745995829E0,-1.971130371E-1,9.094429016E-2,2.417538166E-1
3.763889628E0,-2.235359251E-1,9.655570984E-2,3.289594650E-1
3.781784098E0,-2.610732317E-1,5.248165131E-2,2.995119095E-1
3.799677958E0,-2.868362665E-1,2.615547180E-2,2.085554600E-1
3.817572001E0,-3.257248998E-1,1.405715942E-2,1.039869785E-1
3.835469218E0,-3.307228684E-1,-2.820014954E-2,6.024742126E-2
3.853360026E0,-3.098127842E-1,-4.072189331E-2,2.835726738E-2
3.871254130E0,-2.848103642E-1,4.272460938E-3,3.917407990E-2
3.889148356E0,-2.023155391E-1,7.075309753E-2,1.059193611E-1
3.907022746E0,-1.409593374E-1,1.164894104E-1,2.002489567E-1
3.924936503E0,-1.007438004E-1,1.163673401E-1,2.856662273E-1
3.942830546E0,-6.252153218E-2,1.103353500E-1,3.142924309E-1
3.960724833E0,-4.362820089E-2,1.302394867E-1,3.225142956E-1
3.978618754E0,-8.823446929E-2,2.629661560E-2,2.724368572E-1
3.996512858E0,-1.502244174E-1,-2.425861359E-2,1.271681786E-1
4.014406962E0,-2.214667350E-1,7.356071472E-2,4.858970642E-2
4.032306803E0,-2.528436184E-1,1.218538284E-1,2.450180054E-2
4.050183512E0,-2.037682086E-1,7.627964020E-2,8.306932449E-2
4.068089701E0,-3.904752433E-2,1.222209930E-1,1.642789841E-1
4.085983378E0,1.316024661E-1,1.472482681E-1,2.333374023E-1
4.103862955E0,2.161716819E-1,6.513404846E-2,2.240693569E-1
4.121773844E0,2.093494534E-1,2.605056763E-2,1.314277649E-1
4.139665751E0,1.181501001E-1,5.753326416E-2,6.016254425E-2
4.157559733E0,-1.557110250E-2,3.322696686E-2,4.215478897E-2
4.175453776E0,-1.048683971E-1,-1.063728333E-2,3.371882439E-2
4.193348124E0,-1.438671201E-1,3.824424744E-2,3.503799438E-2
4.211242106E0,-1.164789498E-1,9.329986572E-2,7.733011246E-2
4.229136210E0,-6.319171190E-2,1.161623001E-1,1.152796745E-1
4.247033183E0,-4.267531633E-2,9.954547882E-2,1.934318542E-1
4.264924296E0,-4.356870055E-2,6.826305389E-2,2.225401402E-1
4.282817607E0,-4.607927799E-2,9.927749634E-3,1.226620674E-1
4.300712870E0,-4.916188121E-2,-1.296806335E-2,-3.153705597E-2
4.318606852E0,-6.294423342E-2,-5.105113983E-2,-1.510417461E-1
4.336500956E0,-5.813400447E-2,-6.862258911E-2,-1.740403175E-1
4.354380351E0,-5.009479821E-2,1.874732971E-2,-9.690260887E-2
4.372280314E0,-4.882758856E-2,8.022308350E-2,6.814169884E-2
4.390171305E0,-8.105523884E-2,1.147737503E-1,2.614209652E-1
4.408066264E0,-1.089367718E-1,1.302223206E-1,3.645260334E-1
4.425959941E0,-1.129587442E-1,1.200284958E-1,2.968745232E-1
4.443868388E0,-1.298589408E-1,8.024406433E-2,1.700236797E-1
4.461759684E0,-1.731814444E-1,1.802635193E-2,3.624987602E-2
4.479653849E0,-1.785019934E-1,-3.020381927E-2,-1.068971157E-1
4.497548136E0,-1.065649390E-1,-7.313632965E-2,-1.605539322E-1
4.515441813E0,-1.240359247E-1,-6.760692596E-2,-9.475708008E-2
4.533336100E0,-5.506326258E-2,4.357337952E-2,3.133654594E-2
4.551230143E0,-1.087740809E-2,1.375141144E-1,2.176430225E-1
4.569124186E0,7.485732436E-3,1.624212265E-1,3.356382847E-1
4.587021037E0,-5.070045590E-4,1.614732742E-1,3.472251892E-1
4.604900798E0,-1.255798340E-2,1.333370209E-1,2.782614231E-1
4.622806620E0,9.261786938E-3,7.602214813E-2,1.513679028E-1
4.640703593E0,4.438252002E-2,-3.402519226E-2,-8.534908295E-3
4.658595867E0,6.264707446E-2,-1.099510193E-1,-1.060338020E-1
4.676488749E0,5.189450085E-2,-8.422851562E-2,-1.228964329E-1
4.694382670E0,-7.250510156E-3,-5.792999268E-2,-4.417991638E-2
4.712277018E0,-5.870477110E-2,-1.690006256E-2,-2.720355988E-2
4.730159098E0,-7.756359875E-2,5.296039581E-2,2.720665932E-2
4.748067301E0,-3.756880760E-2,1.050338745E-1,9.284830093E-2
4.765959452E0,3.119112551E-2,1.273727417E-1,1.577749252E-1
4.783853495E0,4.601106793E-2,1.802816391E-1,2.108530998E-1
4.801747721E0,2.282197773E-2,1.548156738E-1,2.908964157E-1
4.819641825E0,-8.751198649E-3,8.580493927E-2,2.510540485E-1
4.837536112E0,-7.203885913E-2,2.696514130E-2,1.401677132E-1
4.855429850E0,-9.638395905E-2,5.228996277E-3,5.219936371E-2
4.873323954E0,-8.344601095E-2,-3.814601898E-2,-3.068470955E-2
4.891217997E0,2.807378769E-3,-6.298637390E-2,-7.488870621E-2
4.909112284E0,2.096791565E-2,8.981704712E-3,-6.845235825E-2
4.927009318E0,3.800775856E-2,6.155872345E-2,-2.832889557E-3
4.944900309E0,8.756078035E-2,-1.051330566E-2,1.468992233E-2
4.962794657E0,1.408789456E-1,-3.843879700E-2,-6.788492203E-3
4.980688884E0,1.360260397E-1,-3.971481323E-2,-2.874493599E-2
4.998582743E0,9.865741432E-2,-3.541755676E-2,-5.308461189E-2
5.016476725E0,9.655243158E-2,-4.619598389E-3,-4.374790192E-2
5.034370951E0,1.026057452E-1,3.710842133E-2,-4.176259041E-2
5.052262065E0,8.627305925E-2,4.119777679E-2,-4.382252693E-2
5.070147624E0,8.802737296E-2,3.893566132E-2,-9.428977966E-3
5.088053446E0,7.634453475E-2,3.488254547E-2,-2.778053284E-3
5.105947489E0,9.059627354E-2,-4.079627991E-2,-1.367568970E-3
5.123837382E0,1.602213085E-1,-2.164459229E-2,-3.632020950E-2
5.141738749E0,2.485954016E-1,6.109046936E-2,-9.552347660E-2
5.159630107E0,3.026929200E-1,8.090496063E-2,-1.349928379E-1
5.177526774E0,3.190991879E-1,7.149887085E-2,-2.110540867E-1
5.195417887E0,3.125801682E-1,-8.095550537E-2,-2.161681652E-1
5.213312175E0,2.730971873E-1,-2.702198029E-1,-2.856837511E-1
5.231206217E0,2.565853298E-1,-2.882366180E-1,-4.333442450E-1
5.249100321E0,2.487401962E-1,-1.681575775E-1,-5.562448502E-1
5.266997355E0,2.171421349E-1,-4.175662994E-2,-4.958109856E-1
5.284888591E0,1.588750780E-1,9.624290466E-2,-3.291339874E-1
5.302782634E0,1.696119756E-1,9.123134613E-2,-1.126645803E-1
5.320676982E0,1.876030117E-1,-1.008329391E-1,-4.919052124E-2
5.338570719E0,2.700081170E-1,-2.358741760E-1,-1.409432888E-1
5.356465068E0,2.836918831E-1,-2.806253433E-1,-2.524479628E-1
5.374359355E0,2.366367429E-1,-2.219724655E-1,-4.888168573E-1
5.392254862E0,1.900610626E-1,-1.766481400E-1,-6.100330353E-1
5.410135478E0,1.296548694E-1,-7.941818237E-2,-8.664388657E-1
5.428038371E0,9.144105017E-2,6.456375122E-3,-8.728953600E-1
5.445935710E0,2.651426494E-1,-2.931222916E-1,-4.117343426E-1
5.463829753E0,3.237642050E-1,-1.086195946E0,-6.563794613E-1
5.481726848E0,5.901890397E-1,-1.748440742E0,-1.209605217E0
5.499618144E0,1.440155983E0,-1.873911858E0,-1.688745737E0
5.517512187E0,6.372409463E-1,-1.240860939E0,-1.958991289E-1
5.535406169E0,-3.830269575E-1,-4.833068848E-1,7.323584557E-1
5.553294047E0,5.799257755E-1,3.872880936E-1,2.547483444E-1
5.571194255E0,1.940838099E-1,3.547830582E-1,-8.576983213E-1
5.589088664E0,-1.118336320E-1,3.339691162E-1,-9.519008398E-1
5.606985881E0,3.022504449E-1,5.023069382E-1,-2.523648739E-2
5.624876689E0,7.557629347E-1,5.001459122E-1,8.007453680E-1
5.642770610E0,6.481796503E-1,1.306266785E-1,9.539966583E-1
5.660665019E0,2.651449442E-1,2.184658051E-1,9.362905025E-1
5.678559001E0,-1.303292513E-1,2.240467072E-1,5.311348438E-1
5.696453105E0,-2.069087029E-1,2.998914719E-1,4.937801361E-1
5.714347392E0,-1.779083014E-1,2.906064987E-1,7.058331966E-1
5.732229411E0,-1.209076643E-1,5.834302902E-1,8.053144217E-1
5.750123698E0,-3.908026218E-2,7.520971298E-1,7.795782089E-1
5.768029704E0,-2.313410044E-1,7.465620041E-1,5.294213295E-1
5.785926799E0,-3.675385714E-1,7.216806412E-1,3.014929295E-1
5.803818095E0,-3.606919050E-1,7.142715454E-1,2.491428852E-1
5.821712077E0,-4.948543310E-1,6.838445663E-1,1.892971992E-1
5.839606425E0,-5.095404387E-1,7.486867905E-1,-7.538580894E-2
5.857500468E0,-7.809157372E-1,1.062417030E0,-3.856616020E-1
5.875394206E0,-8.950091004E-1,1.305980206E0,-4.776828289E-1
5.893291423E0,-8.827270269E-1,1.157759666E0,-7.167329788E-1
5.911182536E0,-8.530935645E-1,7.601423264E-1,-1.046092510E0
5.929076640E0,-5.803625584E-1,5.423126221E-1,-9.870197773E-1
5.946973918E0,-2.757785320E-1,4.437246323E-1,-8.084895611E-1
5.964864909E0,1.098287106E-2,3.956594467E-1,-8.778665066E-1
5.982762004E0,3.235576153E-1,2.930679321E-1,-9.788086414E-1
6.000653544E0,8.841874599E-1,4.622306824E-1,-1.195930004E0
6.018547343E0,1.330940366E0,5.187702179E-1,-1.222841024E0
6.036441630E0,1.660715580E0,4.202442169E-1,-1.231175423E0
6.054335429E0,1.916715026E0,2.055244446E-1,-1.374379873E0
6.072217936E0,2.108246088E0,-2.195177078E-1,-1.297198057E0
6.090111735E0,2.496519327E0,-6.752538681E-1,-1.116755486E0
6.108021769E0,2.563044548E0,-2.906856537E-1,-1.110914946E0
6.125912089E0,2.426789761E0,4.389715195E-1,-1.294109702E0
6.143806559E0,1.683650613E0,3.106050491E-1,-1.361465096E0
6.161700358E0,5.723097324E-1,-1.204545975E0,-5.748219490E-1
6.179594706E0,-3.029284477E-1,-3.011113167E0,1.893162727E-1
6.197488749E0,-6.215335131E-1,-2.782241821E0,-5.335398912E-1
6.215382792E0,-1.217448235E0,-9.237060547E-1,-1.184350371E0
6.233276774E0,-2.563203812E0,1.092857361E0,2.205367088E-1
6.251172038E0,-3.081687450E0,2.126454353E0,7.755711079E-1
6.269065104E0,-3.165202618E0,2.041676044E0,7.678294182E-1
6.286962199E0,-2.929317951E0,1.102949142E0,1.690869570E0
6.304853190E0,-2.448371410E0,2.564296722E-1,2.215363264E0
6.322747477E0,-1.827051878E0,-4.860563278E-1,1.895339489E0
6.340641825E0,-6.669349670E-1,-9.799356461E-1,9.792186618E-1
6.358537516E0,3.602919579E-1,-1.208703995E0,6.513986588E-1
6.376430155E0,4.621544480E-1,-8.368663788E-1,7.414335012E-1
6.394323832E0,-2.084553242E-3,-1.740436554E-1,8.965094686E-1
6.412205973E0,-5.105507374E-2,1.152973175E-1,1.308177710E0
6.430100016E0,1.081776619E-1,4.769515991E-2,1.642798662E0
6.448006571E0,2.312199473E-1,-6.853389740E-2,1.270324111E0
6.465900309E0,3.447893858E-1,-6.101608276E-3,5.571668744E-1
6.483794596E0,3.744018078E-1,4.184913635E-2,1.534467041E-1
6.501689006E0,7.701575756E-2,2.433919907E-1,-1.026273072E-1
6.519582743E0,-1.196235418E-2,3.695240021E-1,-6.979082823E-1
6.537477030E0,2.974091768E-1,4.419269562E-1,-6.679702997E-1
6.555371012E0,4.416262507E-1,6.228694916E-1,-6.010138988E-2
6.573262370E0,2.076725364E-1,4.937152863E-1,3.334506154E-1
6.591159342E0,5.630218983E-1,2.871932983E-1,4.750736356E-1
6.609056376E0,9.554181099E-1,2.116689682E-1,3.038779497E-1
6.626945781E0,8.492388725E-1,4.246549606E-1,2.980185747E-1
6.644841716E0,7.370326519E-1,7.398185730E-1,2.501204014E-1
6.662736003E0,8.784890175E-1,5.422887802E-1,2.160116434E-1
6.680613810E0,7.384855747E-1,1.678228378E-1,-1.597383022E-1
6.698520671E0,2.324425280E-1,-2.134094238E-1,-9.852078557E-1
6.716418193E0,-4.697537720E-1,-5.224781036E-1,-2.355112553E0
6.734312236E0,-8.341920376E-1,-8.436050415E-1,-3.915620804E0
6.752200114E0,-3.902400136E-1,-7.693796158E-1,-4.778079033E0
6.770095805E0,6.621991396E-1,-3.235244751E-1,-4.598938942E0
6.787980144E0,1.935319424E0,-3.926458359E-1,-3.319231987E0
6.805888835E0,3.005892515E0,-9.785413742E-1,-2.125833035E0
6.823781108E0,3.429684401E0,-1.333518028E0,-1.674878001E0
6.841677165E0,2.858916998E0,-1.261819839E0,-1.868494034E0
6.859571574E0,1.515345573E0,-1.291978836E0,-3.017075300E0
6.877465312E0,5.921542645E-1,-2.195836067E0,-4.653368950E0
6.895359599E0,7.186347246E-1,-3.493451118E0,-4.544227600E0
6.913253886E0,4.539407492E-1,-3.351353645E0,-3.093498230E0
6.931147868E0,-1.899076104E-1,-1.527029991E0,-2.609227896E0
6.949042033E0,3.705375195E-1,-1.111036301E0,-2.400809526E0
6.966939006E0,1.105868816E-2,-2.326072693E0,-1.561880827E0
6.984830119E0,-6.491502523E-1,-2.543780327E0,6.975046396E-1
7.002724284E0,-7.818732858E-1,-2.444302559E0,2.675176144E0
7.020618632E0,-2.977397442E-1,-2.088079453E0,3.842148781E0
7.038512431E0,1.413174272E-1,-1.672563553E0,3.827559233E0
7.056404216E0,1.027259588E0,-1.810475349E0,3.217937231E0
7.074300700E0,1.309203148E0,-2.046274185E0,2.745202780E0
7.092179423E0,6.395950317E-1,-1.644431114E0,2.130031347E0
7.110077800E0,3.995528221E-1,-6.388101578E-1,1.813260436E0
7.127968607E0,3.130854368E-1,3.397588730E-1,1.566581726E0
7.145877665E0,-6.874740124E-1,8.186540604E-1,1.830246806E0
7.163772929E0,-1.114551067E0,1.393202782E0,1.313503504E0
7.181667826E0,-2.331729174E0,1.931468964E0,2.230012655E0
7.199547953E0,-3.021821737E0,2.211330414E0,2.923631668E0
7.217453837E0,-2.505695820E0,2.284959793E0,2.685387850E0
7.235348124E0,-2.289249182E0,1.883214951E0,2.996060610E0
7.253242106E0,-2.283257723E0,1.843730927E0,3.040878057E0
7.271136149E0,-2.409807682E0,2.034131050E0,2.905082703E0
7.289030436E0,-2.571156025E0,2.516484737E0,2.744512558E0
7.306927531E0,-3.010859489E0,2.819026947E0,2.544546127E0
7.324818461E0,-2.892357826E0,2.691335678E0,1.640263915E0
7.342712870E0,-1.986706376E0,2.424286842E0,3.074615002E-1
7.360607157E0,-6.009116173E-1,1.927466393E0,2.341890335E-2
7.378500956E0,1.024437428E0,8.218345642E-1,-1.200773716E0
7.396395182E0,3.146161795E0,-2.869539261E-1,-3.867023230E0
7.414292338E0,6.013839722E0,-2.161435127E0,-6.278491974E0
7.432178935E0,5.751627922E0,-3.875924110E0,-4.217385292E0
7.450074931E0,3.901094913E0,-2.875501633E0,-1.576856375E0
7.467971049E0,2.671462059E0,9.574890137E-2,-1.225280762E0
7.485868754E0,2.077428102E0,1.859160900E0,-1.755516529E-1
7.503759928E0,8.363823891E-1,-3.800392151E-2,2.088675499E0
7.521654277E0,-8.708479404E-1,-4.322267532E0,3.616003513E0
7.539550884E0,-1.248338223E-1,-6.073430061E0,2.721753359E0
7.557442423E0,2.835135221E0,-4.719928741E0,-3.408801556E0
7.575336405E0,-1.602131724E0,-2.084919930E0,-4.043599129E0
7.593216289E0,-5.222716331E0,1.319944382E0,-2.092260361E0
7.611112285E0,-4.827882767E0,3.206080914E0,1.080237746E0
7.629007304E0,-4.458500862E0,2.691429138E0,4.956840515E0
7.646901713E0,-3.720092773E0,6.902790070E-1,4.975868225E0
7.664809673E0,-2.534205437E0,-5.217828751E-1,4.654954910E0
7.682701640E0,-1.820396900E0,-1.739382744E0,4.005591393E0
7.700593241E0,-9.839920998E-1,-1.751499176E0,3.170074224E0
7.718489482E0,-2.856810093E-1,-7.496604919E-1,2.169593096E0
7.736383708E0,-2.271697521E-1,7.785482407E-1,1.128881335E0
7.754277751E0,-3.851907849E-1,1.366537094E0,6.570912600E-1
7.772172099E0,-4.446257353E-1,1.612637520E0,9.963893890E-2
7.790054606E0,3.942173719E-1,1.380249023E0,-1.331311464E-1
7.807957438E0,5.862658620E-1,4.698238373E-1,-7.072424889E-2
7.825854472E0,3.048121929E-3,-1.608791351E-1,-5.870777369E-1
7.843748454E0,-2.379822731E-2,-5.572128296E-2,-9.508702755E-1
7.861642741E0,5.366032720E-1,-4.821681976E-2,-7.397833467E-1
7.879537089E0,6.541304588E-1,1.581411362E-1,-8.738648295E-1
7.897431132E0,9.806231260E-1,4.922237396E-1,-9.018912911E-1
7.915325236E0,1.349971771E0,2.997179031E-1,-9.366005063E-1
7.933219096E0,1.658604741E0,-4.412555695E-2,-9.213216305E-1
7.951099467E0,1.729129434E0,-1.641807556E-1,-1.134030700E0
7.969007487E0,1.427829504E0,-1.119499207E-1,-2.080299616E0
7.986901713E0,1.100312829E0,1.975727081E-1,-3.811809063E0
8.004795878E0,1.089929938E0,3.981075287E-1,-5.854758263E0
8.022690104E0,1.664432764E0,-1.134595871E-1,-6.381549835E0
8.040587199E0,3.063302755E0,-1.377887726E0,-4.562281609E0
8.058478190E0,3.426247358E0,-1.678405762E0,-3.563627243E0
8.076372538E0,3.866922855E0,-1.915880203E0,-3.352870703E0
8.094266764E0,3.959154367E0,-3.438103676E0,-2.383718252E0
8.112160563E0,3.992027521E0,-4.653856277E0,-1.427582502E0
8.130042887E0,2.873568058E0,-3.580634117E0,-3.027045727E0
8.147945963E0,2.062597871E-1,-2.536270142E0,-2.882256985E0
8.165843180E0,-1.877483964E0,-2.816674232E0,-5.427182913E-1
8.183737223E0,-2.258569241E0,-3.403230667E0,2.781137228E0
8.201631571E0,-1.330293894E0,-3.572398186E0,4.993346691E0
8.219525614E0,-1.859481692E0,-3.497089386E0,4.723314285E0
8.237416850E0,-1.002377152E0,-3.042221069E0,2.919071436E0
8.255313639E0,-3.056669235E-2,-1.851593971E0,2.600386381E0
8.273207987E0,-1.551795006E-2,-1.672247887E0,3.372546434E0
8.291104899E0,-4.042547941E-1,-7.303943634E-1,2.428103447E0
8.308996257E0,-8.258100748E-1,4.331951141E-1,5.368516445E-1
8.326893352E0,-1.142506838E0,1.379476547E0,9.187884331E-1
8.344784342E0,-1.390591145E0,2.707866192E0,2.048659325E0
8.362664714E0,-2.380509853E0,2.614498138E0,2.990015507E0
8.380572978E0,-2.258786678E0,2.672373295E0,3.336293221E0
8.398466960E0,-2.224155903E0,2.798209667E0,3.532176971E0
8.416361064E0,-2.183309555E0,2.414203644E0,3.607332230E0
8.434255351E0,-2.123423576E0,2.210738182E0,3.584372520E0
8.452137370E0,-2.224379301E0,2.085132599E0,3.231453180E0
8.470038920E0,-2.450688362E0,2.321497440E0,2.955729961E0
8.487934428E0,-2.426916361E0,2.510230064E0,2.847325802E0
8.505831706E0,-2.198119879E0,2.265554428E0,1.807432771E0
8.523725749E0,-1.742687225E0,2.026892662E0,2.322468758E-1
8.541620036E0,-8.928407431E-1,1.556894302E0,-1.071791410E0
8.559514384E0,7.032239437E-1,9.048461914E-1,-2.556669950E0
8.577409892E0,2.984534740E0,2.924375534E-1,-4.602778435E0
8.595302470E0,4.394805908E0,-9.490680695E-1,-4.701935768E0
8.613199443E0,4.101298332E0,-2.365248680E0,-3.747873783E0
8.631087809E0,2.852056026E0,-1.629714966E0,-3.068392038E0
8.648984782E0,1.621736288E0,6.992130280E-1,-1.965759754E0
8.666882060E0,1.843445539E0,1.874190331E0,1.867880821E-1
8.684772746E0,1.254357100E0,-8.458003998E-1,2.804625034E0
8.702670390E0,5.620458126E-1,-6.526648521E0,3.640151978E0
8.720561747E0,1.998075485E0,-1.052484798E1,-6.360800266E-1
8.738452311E0,-1.501881599E0,-7.792243958E0,-2.693974972E-1
8.756349833E0,-4.041136265E0,-6.923341751E-1,1.308561563E-1
8.774246806E0,-6.122361183E0,2.956212997E0,-2.097156048E-1
8.792138163E0,-5.112418175E0,3.551658630E0,2.967630386E0
8.810040629E0,-3.314414024E0,2.516584873E0,4.695100307E0
8.827911478E0,-2.497900486E0,3.656282425E-1,5.059099674E0
8.845811198E0,-2.464963436E0,-1.558978081E0,4.261872292E0
8.863714518E0,-2.196830750E0,-2.225577354E0,3.663963556E0
8.881609111E0,-1.471602678E0,-7.455224991E-1,2.782388687E0
8.899503214E0,-1.160598516E0,1.262980461E0,2.137707949E0
8.917388103E0,-1.099068403E0,1.790649891E0,1.952946901E0
8.935291178E0,-1.062000275E0,1.905293465E0,1.329365373E0
8.953173503E0,-7.714573145E-1,1.938682556E0,3.887493610E-1
8.971079509E0,-3.722834587E-2,9.638299942E-1,-4.745197594E-1
8.988973551E0,6.273557544E-1,-3.735971451E-1,-1.339212418E0
9.006871074E0,8.152627945E-1,-3.313140869E-1,-1.878092527E0
9.024761943E0,1.606716871E0,1.923942566E-2,-1.751047969E0
9.042655986E0,2.119895935E0,4.449501038E-1,-1.319893241E0
9.060550273E0,2.268693924E0,2.188577652E-1,-9.191657305E-1
9.078444316E0,2.104624271E0,-3.748607635E-2,-6.043877006E-1
9.096338359E0,1.899056077E0,1.011753082E-1,-6.952272654E-1
9.114235576E0,1.889724493E0,6.778078079E-1,-1.230034828E0
9.132111979E0,1.573269486E0,8.916683197E-1,-1.544184566E0
9.150008525E0,9.206747413E-1,4.657669067E-1,-1.762991190E0
9.167912028E0,6.189757586E-1,-9.229660034E-3,-2.504162312E0
9.185814616E0,3.586158752E-1,-3.467435837E-1,-3.708379745E0
9.203703532E0,8.934557438E-1,-1.211981773E0,-4.825955391E0
9.221600871E0,2.549801350E0,-2.068814278E0,-4.850270748E0
9.239495890E0,3.418546677E0,-2.184985161E0,-4.231245995E0
9.257386027E0,3.374382019E0,-1.622833252E0,-3.941842794E0
9.275279948E0,2.914701223E0,-1.880095482E0,-3.560775280E0
9.293174235E0,2.597443342E0,-3.266060829E0,-2.564357042E0
9.311061442E0,3.079238415E0,-3.823757172E0,-1.593811035E0
9.328962565E0,3.298430920E0,-2.725606918E0,-1.852115035E0
9.346859660E0,1.849227428E0,-1.819442749E0,-3.474958420E0
9.364750651E0,-5.764657259E-1,-1.436804771E0,-2.696912050E0
9.382645060E0,-2.177407742E0,-1.884193420E0,-2.423652411E-1
9.400538981E0,-2.009846210E0,-2.785397530E0,2.436303854E0
9.418433329E0,-1.814280272E0,-3.529356003E0,3.451649427E0
9.436316081E0,-1.558705330E0,-3.346479416E0,3.572293520E0
9.454221354E0,-2.619754076E-1,-3.162518501E0,3.262009859E0
9.472119120E0,-8.243414760E-1,-2.737156868E0,3.290893555E0
9.490006205E0,2.568497658E-1,-3.039162636E0,2.287338018E0
9.507900980E0,-2.395868301E-1,-1.910085678E0,8.094403148E-1
9.525801066E0,-1.957987547E0,-1.108306885E0,1.104996443E0
9.543692118E0,-2.430263758E0,3.684310913E-1,2.196307421E0
9.561583354E0,-1.443190932E0,1.284743309E0,2.199779987E0
9.579480754E0,-1.533214808E0,1.951542854E0,2.681315660E0
9.597374675E0,-1.847784638E0,2.147790909E0,3.244270325E0
9.615270366E0,-2.017864943E0,2.497902393E0,3.552943230E0
9.633151347E0,-2.341752529E0,2.701860428E0,3.285124063E0
9.651060039E0,-2.788619041E0,2.585222244E0,3.941070557E0
9.668951091E0,-2.757653236E0,2.517140865E0,3.830613852E0
9.686848186E0,-3.218125105E0,2.471071243E0,3.231519699E0
9.704739421E0,-3.177567720E0,2.684196472E0,2.804049969E0
9.722633769E0,-2.222410440E0,3.014889717E0,1.824785709E0
9.740528545E0,-1.159209132E0,2.715101242E0,1.389238834E-1
9.758422038E0,-3.098368645E-2,2.007885933E0,-1.854017019E0
9.776317668E0,7.704062462E-1,9.252405167E-1,-3.095068932E0
9.794210368E0,1.806927443E0,-9.395313263E-2,-3.979015350E0
9.812092448E0,3.540442705E0,-7.269458771E-1,-4.421360016E0
9.829995463E0,4.255114555E0,-7.907161713E-1,-2.942512989E0
9.847889750E0,3.093270302E0,-1.989364624E-1,-2.885062695E-1
9.865790141E0,2.479800463E0,1.029282093E0,7.174592018E-1
9.883681132E0,2.449661016E0,1.494810104E0,6.586419344E-1
9.901575419E0,7.563254833E-1,-1.521844864E0,2.368811607E0
9.919469401E0,-1.394126415E-1,-8.194481850E0,9.528112411E-1
9.937363749E0,-6.893539429E-2,-1.321690941E1,-3.364330530E0
9.955257364E0,-8.475885391E-1,-6.192085266E0,-2.401440144E0
9.973151774E0,-3.868351936E0,5.088624954E-1,9.484335184E-1
9.991046305E0,-3.822773695E0,3.335435390E0,3.040376186E0
1.000894010E1,-3.115757227E0,3.739480019E0,4.041682243E0
1.002683750E1,-2.109083652E0,2.574738979E0,5.053358078E0
1.004472837E1,-1.779969335E0,9.145469666E-1,4.584700584E0
1.006260752E1,-1.451329708E0,-4.256181717E-1,3.842964411E0
1.008051707E1,-9.655134678E-1,-7.812738419E-1,3.559959412E0
1.009841075E1,-5.038965940E-1,-5.795927048E-1,3.187993050E0
1.011630491E1,-4.648121595E-1,2.491798401E-1,2.367028475E0
1.013419938E1,-2.338025570E-1,9.458675385E-1,1.875993133E0
1.015208311E1,-1.358723640E-1,1.635391235E0,1.046884298E0
1.016998442E1,9.817183018E-2,1.492649078E0,2.003596723E-2
1.018787876E1,4.515036345E-1,6.757612228E-1,-2.245784521E0
1.020577543E1,1.067941189E0,-1.999216080E-1,-4.113935947E0
1.022366984E1,1.463333368E0,-2.705259323E-1,-3.756584644E0
1.024156419E1,1.729034901E0,1.328964233E-1,-2.230158329E0
1.025945854E1,1.594890952E0,8.423690796E-1,-1.051947832E0
1.027735258E1,1.477814317E0,1.467630386E0,-1.372920275E-1
1.029524656E1,1.212053776E0,1.412399292E0,5.938431621E-1
1.031314085E1,1.066817999E0,7.243213654E-1,1.189533353E0
1.033103477E1,1.069102049E0,1.454401016E-1,9.620865583E-1
1.034892894E1,1.193181157E0,-2.774105072E-1,1.637542248E-1
1.036682627E1,1.325465918E0,-5.369043350E-1,-6.439354420E-1
1.038471745E1,1.498511910E0,-7.281198502E-1,-1.542124391E0
1.040261009E1,1.418031454E0,-5.100965500E-1,-2.685627699E0
1.042050590E1,1.209675312E0,-3.043689728E-1,-3.958233356E0
1.043839982E1,1.200721979E0,-4.795989990E-1,-5.112325668E0
1.045629386E1,1.715930939E0,-8.855390549E-1,-5.836558342E0
1.047418809E1,2.505691528E0,-1.391388893E0,-5.353779793E0
1.049207023E1,2.819831610E0,-1.566258430E0,-4.114146233E0
1.050997349E1,3.020300388E0,-2.303203583E0,-2.420154095E0
1.052786772E1,3.117289543E0,-3.792479515E0,-3.384513855E-1
1.054576487E1,3.397812843E0,-3.064229965E0,1.236034870E0
1.056365885E1,3.520957470E0,-2.090564728E0,5.373755693E-1
1.058155339E1,6.933903694E-1,-1.506173134E0,-4.284204245E-1
1.059944432E1,-8.439185619E-1,-2.154030800E0,-6.893894672E-1
1.061734153E1,-1.595337152E0,-2.574451447E0,1.138274193E0
1.063523875E1,-1.495588183E0,-2.051734924E0,2.962434053E0
1.065312992E1,-1.511749029E0,-1.588730812E0,2.852761745E0
1.067102378E1,-6.780484915E-1,-1.676222801E0,1.766034365E0
1.068891807E1,3.686952591E-1,-2.013227463E0,2.008437634E0
1.070681364E1,2.726925611E-1,-2.157227516E0,2.019599676E0
1.072470622E1,3.246963024E-1,-6.176385880E-1,2.019607782E0
1.074260075E1,-7.861546278E-1,-1.567535400E-1,1.644367576E0
1.076048307E1,-1.780114412E0,-4.310340881E-1,1.037782669E0
1.077838884E1,-1.850762606E0,1.134277344E0,2.287310362E0
1.079628288E1,-1.602754354E0,1.803979874E0,2.756224155E0
1.081417845E1,-1.884092569E0,1.877492428E0,2.720158815E0
1.083205638E1,-2.268543243E0,2.325390816E0,2.948215485E0
1.084995347E1,-2.245578051E0,2.641749382E0,4.134398460E0
1.086784947E1,-2.531036615E0,1.997924328E0,3.911679745E0
1.088574308E1,-2.526004076E0,1.609992027E0,3.009674311E0
1.090364024E1,-2.575948238E0,1.274411201E0,2.366747379E0
1.092154228E1,-2.918880939E0,1.188663006E0,2.487910509E0
1.093943718E1,-2.523404121E0,1.495786667E0,1.906009793E0
1.095733030E1,-2.221606970E0,1.836657524E0,9.277567863E-1
1.097522447E1,-1.732101440E0,1.912912369E0,-1.331744194E-1
1.099311882E1,-8.421709538E-1,1.571652412E0,-9.615089893E-1
1.101101286E1,8.839161396E-1,1.022941589E0,-1.585464716E0
1.102890684E1,2.871509314E0,3.371124268E-1,-2.561692476E0
1.104680516E1,4.880990028E0,-5.486030579E-1,-3.102092028E0
1.106469523E1,5.452008247E0,-1.711434364E0,-2.452511311E0
1.108258958E1,4.461403847E0,-2.402767181E0,-2.411382198E0
1.110046891E1,2.855320692E0,-1.082679749E0,-3.893939018E0
1.111837791E1,2.792674303E0,9.856042862E-1,-3.033851147E0
1.113627488E1,3.217303753E0,8.247957230E-1,-9.848201275E-1
1.115415452E1,2.431634903E0,-2.275996208E0,1.135422468E0
1.117206175E1,6.594998837E-1,-5.392052650E0,2.135400057E0
1.118995103E1,1.988654137E-1,-5.844747543E0,-5.500521660E-1
1.120784568E1,-1.847545862E0,-2.537382126E0,2.541184425E-2
1.122574290E1,-3.961782455E0,7.283124924E-1,1.515661001E0
1.124363694E1,-5.467702866E0,2.484256744E0,1.645519018E0
1.126153123E1,-5.050108910E0,3.019297600E0,2.278918982E0
1.127942552E1,-3.894304276E0,1.390942574E0,3.383062840E0
1.129731956E1,-3.020730019E0,-7.864608765E-1,4.607190132E0
1.131521360E1,-2.464278460E0,-1.996476173E0,4.198145866E0
1.133310789E1,-2.568988323E0,-2.216629028E0,2.865815163E0
1.135100187E1,-1.498697281E0,-1.934665680E0,2.152615070E0
1.136889585E1,-7.057885528E-1,-7.183046341E-1,2.095125437E0
1.138679332E1,-2.771266699E-1,5.279693604E-1,2.224502802E0
1.140468455E1,-3.929556012E-1,1.507148743E0,1.952911496E0
1.142257865E1,-2.181417346E-1,1.807029724E0,1.214747548E0
1.144047288E1,1.677963734E-1,1.399459839E0,8.507765532E-1
1.145836692E1,4.962157011E-1,6.968841553E-1,8.527460694E-2
1.147626090E1,5.107230544E-1,-1.122732162E-1,-8.732541800E-1
1.149415519E1,7.352131605E-1,-2.270135880E-1,-1.631602407E0
1.151203239E1,7.859827280E-1,2.299146652E-1,-1.835712433E0
1.152994291E1,1.101397038E0,3.661727905E-1,-1.084329128E0
1.154783335E1,1.174515128E0,2.675867081E-1,-2.159857154E-1
1.156573490E1,1.162166595E0,5.714712143E-1,2.142792940E-1
1.158362620E1,1.381023407E0,4.452047348E-1,2.553573847E-1
1.160150846E1,1.182226419E0,3.033809662E-1,1.037105322E-1
1.161941105E1,5.769957304E-1,-6.136989594E-2,-1.991068125E-1
1.163730857E1,-8.717024326E-2,-5.351648331E-1,-7.187578082E-1
1.165520286E1,-4.202775657E-1,-7.733440399E-1,-1.548673868E0
1.167309690E1,-3.696962297E-1,-1.782960892E-1,-2.379807711E0
1.169099113E1,2.150436044E-1,4.029083252E-1,-2.711792707E0
1.170888121E1,1.027706861E0,6.275768280E-1,-2.282736063E0
1.172678196E1,1.794010878E0,3.535614014E-1,-1.519233584E0
1.174467308E1,2.389411688E0,-3.589105606E-1,-1.065506935E0
1.176257115E1,2.846643686E0,-1.101795197E0,-8.430883884E-1
1.178046189E1,2.808290005E0,-1.545036316E0,-8.629380465E-1
1.179835624E1,2.542388201E0,-2.140670776E0,-1.383933663E0
1.181625016E1,1.827506065E0,-2.457522392E0,-1.957776308E0
1.183414421E1,9.935669303E-1,-2.234974861E0,-2.495457411E0
1.185203239E1,-3.138476014E-1,-1.092708588E0,-2.253788948E0
1.186993254E1,-8.765368462E-1,-6.823854446E-1,-2.243001938E0
1.188782408E1,-1.566422582E0,-1.240563393E0,-2.307237387E0
1.190572386E1,-1.782610416E0,-1.004517555E0,-6.958181858E-1
1.192361552E1,-1.428954482E0,-7.456932068E-1,1.346426249E0
1.194150944E1,-1.338685274E0,-8.686971664E-1,2.271418095E0
1.195940354E1,-9.718654156E-1,-1.104660034E0,2.766887188E0
1.197729783E1,-3.793067634E-1,-1.332127571E0,3.352934837E0
1.199518888E1,-1.029713154E-1,-1.275133133E0,3.578395605E0
1.201308586E1,-2.335035801E-1,-1.323381424E0,3.559684277E0
1.203098008E1,-4.508146644E-1,-6.025781631E-1,3.398342609E0
1.204887553E1,-7.472362518E-1,5.071039200E-1,2.875868320E0
1.206677177E1,-1.363410234E0,1.273345947E0,2.527426481E0
1.208466276E1,-1.824314833E0,1.596293449E0,2.222244978E0
1.210255705E1,-2.454109669E0,1.532438278E0,1.900717497E0
1.212044004E1,-2.755971670E0,1.133692741E0,1.423334837E0
1.213834520E1,-2.821736574E0,6.507692337E-1,1.232186437E0
1.215623918E1,-2.497270107E0,4.411268234E-1,1.420755386E0
1.217413371E1,-1.821484327E0,5.263519287E-1,1.607280254E0
1.219202751E1,-1.294900894E0,8.226404190E-1,1.534488678E0
1.220992179E1,-1.086524963E0,9.610033035E-1,1.414968967E0
1.222781321E1,-5.624473095E-1,8.197307587E-1,1.211872458E0
1.224569694E1,-1.998800039E-2,6.354665756E-1,1.156295657E0
1.226360423E1,4.726892710E-1,4.345388412E-1,8.255780935E-1
1.228149870E1,8.282907605E-1,2.908182144E-1,1.487772465E-1
1.229939262E1,1.190784574E0,-1.257991791E-2,-2.923021317E-1
1.231728684E1,1.357338786E0,6.915283203E-2,-5.318936110E-1
1.233518113E1,9.465333819E-1,4.441452026E-1,-2.355927229E-1
1.235307542E1,3.657220006E-1,6.398181915E-1,-1.695349216E-1
1.237096940E1,4.604860544E-1,1.517086029E-1,2.904735804E-1
1.238886344E1,7.548844814E-1,-1.749229431E-1,1.180374980E0
1.240675974E1,4.302687645E-1,-2.127923965E-1,1.785592556E0
1.242465202E1,-1.930786967E-1,-6.302261353E-2,2.052935362E0
1.244254612E1,-4.397009015E-1,5.440425873E-2,1.954484701E0
1.246044297E1,-7.069195509E-1,3.731346130E-2,1.782356501E0
1.247833445E1,-1.111012936E0,-1.057462692E-1,1.470342517E0
1.249623179E1,-1.315307140E0,-9.000396729E-2,1.112109542E0
1.251412278E1,-1.366776824E0,-2.302970886E-1,8.224374652E-1
1.253201976E1,-1.322909117E0,-3.955440521E-1,5.450387597E-1
1.254991111E1,-1.248294353E0,-3.247852325E-1,2.995828092E-1
1.256780436E1,-1.183670759E0,-2.183361053E-1,1.340418756E-1
1.258570243E1,-1.121528506E0,-2.821521759E-1,-5.934250355E-2
1.260358458E1,-1.182076216E0,-3.474512100E-1,-5.772821307E-1
1.262148509E1,-1.131518841E0,-4.703674316E-1,-1.302437067E0
1.263938212E1,-5.887921453E-1,-6.140041351E-1,-1.380209208E0
1.265727610E1,-7.532179356E-3,-3.876581192E-1,-9.607895613E-1
1.267517039E1,3.804733157E-1,-1.981554031E-1,-5.690459013E-1
1.269305436E1,7.560660243E-1,-2.325716019E-1,-2.399180532E-1
1.271095866E1,1.048963070E0,-2.744073868E-1,4.611015320E-4
1.272885270E1,1.251664162E0,-1.900167465E-1,-2.491497993E-2
1.274674644E1,1.127689362E0,-1.907634735E-1,-8.273875713E-2
1.276464109E1,9.653903246E-1,-6.652927399E-2,-1.825749874E-1
1.278253538E1,6.713640094E-1,1.602373123E-1,-4.426974654E-1
1.280042973E1,2.539088726E-1,1.173839569E-1,-6.202906370E-1
1.281832542E1,-2.135935128E-1,-5.451202393E-3,-6.677268744E-1
1.283621800E1,-6.118848920E-1,2.196979523E-2,-5.680223107E-1
1.285411198E1,-7.606506348E-1,4.408836365E-3,-3.327769637E-1
1.287200627E1,-7.016324401E-1,6.251621246E-2,-9.194254875E-2
1.288990031E1,-3.579736352E-1,8.198165894E-2,1.475684643E-1
1.290779637E1,9.765380621E-2,2.041816711E-3,5.006860495E-1
1.292568895E1,3.428378105E-1,-6.296062469E-2,6.308814287E-1
1.294358775E1,4.471151233E-1,-1.781749725E-2,5.963985920E-1
1.296147728E1,3.795083165E-1,1.117010117E-1,5.327266455E-1
1.297936833E1,1.880832314E-1,1.797094345E-1,4.652284384E-1
1.299726560E1,-6.036376953E-2,8.979988098E-2,3.727149963E-1
1.301515965E1,-2.819843888E-1,2.414321899E-2,2.620437145E-1
1.303305369E1,-5.035026073E-1,-4.322433472E-2,1.661067009E-1
1.305094792E1,-5.580195189E-1,-1.072349548E-1,6.573104858E-2
1.306884208E1,-4.739241004E-1,-9.320735931E-2,-4.817247391E-4
1.308674052E1,-3.128191531E-1,-9.552764893E-2,4.673266411E-2
1.310460545E1,-7.978290319E-2,-3.977489471E-2,6.776106358E-2
1.312251115E1,9.951901436E-2,5.624771118E-3,4.686450958E-2
1.314041886E1,2.509173751E-1,-2.537250519E-2,4.090070724E-2
1.315831291E1,2.614524364E-1,2.592658997E-2,6.706118584E-3
1.317620726E1,1.116349697E-1,6.411743164E-2,-7.468843460E-2
1.319410130E1,-3.061479330E-2,8.538818359E-2,-8.042943478E-2
1.321199858E1,-1.325147748E-1,7.767963409E-2,4.076159000E-2
1.322988963E1,-1.670514941E-1,6.927871704E-2,4.750919342E-2
1.324778074E1,-9.736114740E-2,-3.306865692E-2,-5.762720108E-2
1.326568113E1,8.990389109E-2,-4.900264740E-2,-1.205322742E-1
1.328356773E1,2.898734212E-1,-4.356002808E-2,-1.297291517E-1
1.330146647E1,4.182256460E-1,-7.374668121E-2,-1.517157555E-1
1.331936058E1,4.524359107E-1,-2.336597443E-2,-2.230286598E-1
1.333725492E1,3.716409206E-1,3.496170044E-3,-2.668282986E-1
1.335514890E1,1.880675554E-1,3.650665283E-3,-2.882899642E-1
1.337303923E1,-4.439949989E-3,4.284954071E-2,-2.847232819E-1
1.339093736E1,-1.137247086E-1,1.423168182E-2,-2.337437868E-1
1.340882841E1,-1.208990812E-2,3.601455688E-2,-2.267454863E-1
1.342672709E1,1.170180440E-1,4.743003845E-2,-2.289937735E-1
1.344461985E1,1.714662910E-1,-1.251220703E-3,-2.406563759E-1
1.346251438E1,1.776351929E-1,-3.267383575E-2,-2.552949190E-1
1.348040843E1,1.951521039E-1,1.749324799E-2,-2.099497318E-1
1.349830223E1,2.146286368E-1,5.022716522E-2,-1.574473381E-1
1.351619651E1,2.147593498E-1,-7.456779480E-3,-1.188578606E-1
1.353409074E1,1.512423754E-1,-4.253959656E-2,-1.044867039E-1
1.355198484E1,7.729756832E-2,-4.100704193E-2,-9.410548210E-2
1.356987968E1,5.870658159E-2,-7.865905762E-3,-1.700792313E-1
1.358777269E1,8.048307896E-2,2.690315247E-3,-1.877744198E-1
1.360567045E1,1.434152126E-1,1.123733521E-1,-1.289821863E-1
1.362354734E1,2.449267507E-1,1.637611389E-1,-1.080874205E-1
1.364144419E1,2.997739911E-1,1.079282761E-1,-9.209144115E-2
1.365933799E1,2.835919857E-1,3.553295135E-2,-1.026630402E-2
1.367723258E1,2.432241440E-1,4.304027557E-2,5.582726002E-2
1.369512675E1,1.667048931E-1,5.015087128E-2,4.217982292E-3
1.371302177E1,8.992868662E-2,-1.519012451E-2,-1.336860657E-2
1.373091545E1,4.247128963E-2,-3.874015808E-2,-4.283511639E-2
1.374880967E1,1.168513298E-2,-4.130840302E-2,-6.467366219E-2
1.376670341E1,2.568781376E-3,-1.256179810E-2,-1.136409044E-1
1.378459611E1,4.272925854E-2,2.412700653E-2,-1.488499641E-1
1.380250364E1,1.123253703E-1,4.312610626E-2,-1.384238005E-1
1.382039769E1,1.780720949E-1,6.183147430E-2,-1.601099968E-1
1.383829167E1,1.294914484E-1,-7.545471191E-3,-1.220996380E-1
1.385618602E1,3.657484055E-2,-2.160930634E-2,-7.981717587E-2
1.387408024E1,-7.779735327E-2,1.321983337E-2,-8.772385120E-2
1.389197428E1,-1.535038948E-1,-7.775306702E-3,-4.785394669E-2
1.390985929E1,-1.286045909E-1,-5.646610260E-2,-2.240300179E-3
1.392776268E1,-8.653461933E-3,-5.704498291E-2,-6.177186966E-3
1.394565965E1,1.213719845E-1,-1.783943176E-2,-7.416439056E-2
1.396355101E1,2.336215973E-1,3.654289246E-2,-1.196608543E-1
1.398144554E1,2.791018486E-1,4.861450195E-2,-1.350659132E-1
1.399933964E1,2.559354305E-1,4.458236694E-2,-1.467595100E-1
1.401723387E1,1.473674774E-1,1.060104370E-2,-1.363430023E-1
1.403512419E1,2.885890007E-2,9.099960327E-3,-1.452307701E-1
1.405302189E1,-5.272334814E-2,4.719734192E-3,-1.152198315E-1
1.407091618E1,-3.382217884E-2,1.160717010E-2,-4.902517796E-2
1.408881022E1,9.592533112E-3,4.780864716E-2,-1.328825951E-2
1.410670481E1,3.291040659E-2,8.444690704E-2,-6.821393967E-3
1.412458744E1,6.610184908E-2,7.030487061E-3,3.749704361E-2
1.414249314E1,1.660627723E-1,-1.915359497E-2,1.020562649E-2
1.416037669E1,2.459657192E-1,5.682849884E-2,-8.567440510E-2
1.417828141E1,2.749802470E-1,7.314205170E-2,-1.465147734E-1
1.419617552E1,2.494462729E-1,-2.625179291E-2,-1.453970671E-1
1.421407267E1,2.129482627E-1,-7.775878906E-2,-1.660542488E-1
1.423196379E1,1.304833889E-1,6.381893158E-2,-1.893047094E-1
1.424985514E1,4.329389334E-2,4.053592682E-2,-1.556744576E-1
1.426775511E1,6.858658791E-2,-6.027793884E-2,-1.105564833E-1
1.428564946E1,1.357092857E-1,-4.510498047E-2,-1.311968565E-1
1.430354051E1,1.367682815E-1,-4.081726074E-4,-1.907511950E-1
1.432143479E1,7.699108124E-2,3.818798065E-2,-2.340644598E-1
1.433932914E1,2.017474174E-2,-1.717567444E-2,-2.278468609E-1
1.435722312E1,1.657295227E-2,-6.195259094E-2,-2.082633972E-1
1.437511735E1,6.471097469E-3,-4.751014709E-2,-1.950422525E-1
1.439300883E1,-5.174720287E-2,-2.034473419E-2,-1.991311312E-1
1.441089427E1,-1.166121364E-1,-6.044197083E-2,-2.048376799E-1
1.442878825E1,-1.815776825E-1,-9.524440765E-2,-1.846504211E-1
1.444668785E1,-2.442437410E-1,-6.160068512E-2,-2.102121115E-1
1.446458262E1,-2.983440161E-1,-8.863449097E-2,-2.016311884E-1
1.448247276E1,-2.876341939E-1,-9.306812286E-2,-1.751097441E-1
1.450036607E1,-2.497982979E-1,-6.026744843E-2,-1.329473257E-1
1.451826060E1,-1.967169046E-1,5.246162415E-3,-1.061443090E-1
1.453615177E1,-1.791996360E-1,9.512424469E-2,-9.701335430E-2
1.455404850E1,-1.530752778E-1,8.963394165E-2,-4.582381248E-2
1.457194206E1,-9.087789059E-2,1.393508911E-2,-1.346075535E-2
1.458983695E1,-2.530312538E-2,-1.560878754E-2,-2.187955379E-2
1.460773362E1,3.196549416E-2,-3.902339935E-2,-7.267504930E-2
1.462562852E1,4.938960075E-2,-1.007366180E-2,-1.591140032E-1
1.464352470E1,2.958148718E-2,8.639049530E-2,-2.530594468E-1
1.466141648E1,2.467632294E-3,1.474533081E-1,-3.211332560E-1
1.467930870E1,-2.408462763E-2,1.207265854E-1,-3.119943142E-1
1.469720530E1,-2.850294113E-3,-4.692077637E-3,-2.171518207E-1
1.471509770E1,2.015709877E-3,-5.999088287E-2,-1.482426524E-1
1.473299101E1,-2.190053463E-2,-6.796360016E-2,-1.225541830E-1
1.475088468E1,-5.302041769E-2,-6.909465790E-2,-1.190469265E-1
1.476877989E1,-4.970484972E-2,1.112842560E-2,-1.365455985E-1
1.478667484E1,-2.981489897E-2,1.087427139E-1,-1.458117366E-1
1.480456590E1,-5.700874329E-2,1.872997284E-1,-7.238805294E-2
1.482247496E1,-4.265236855E-2,1.498098373E-1,9.545433521E-2
1.484036650E1,-6.356352568E-2,1.168251038E-2,2.316096425E-1
1.485826298E1,-1.219378710E-1,-7.165622711E-2,2.012519240E-1
1.487615800E1,-1.933220029E-1,-2.227210999E-2,1.190794706E-1
1.489404881E1,-2.300473452E-1,4.538059235E-2,2.793455124E-2
1.491194303E1,-1.619207263E-1,-1.795482635E-2,-7.677388191E-2
1.492983403E1,-4.789477587E-2,-8.205699921E-2,-9.134125710E-2
1.494771720E1,3.386062384E-2,-8.249855042E-2,-6.807941198E-2
1.496562870E1,1.037517190E-1,1.155471802E-2,-1.445533037E-1
1.498351969E1,1.659624577E-1,1.441965103E-1,-1.838266253E-1
1.500141429E1,2.327159643E-1,9.302330017E-2,-1.232599616E-1
1.501930833E1,2.323933244E-1,-3.020954132E-2,-2.679729462E-2
1.503720231E1,1.427429914E-1,-2.549171448E-3,-3.514146805E-2
1.505509666E1,8.267319202E-2,6.771183014E-2,-5.868631601E-2
1.507299064E1,1.240893602E-1,5.012607574E-2,3.963708878E-4
1.509087059E1,1.800397038E-1,2.239322662E-2,5.178260803E-2
1.510877903E1,1.661763191E-1,2.543258667E-2,6.999069452E-2
1.512667625E1,8.937835693E-2,1.200199127E-2,1.071252823E-1
1.514456761E1,-3.857564926E-2,7.301616669E-2,1.341699362E-1
1.516246366E1,-1.619498730E-1,1.815900803E-1,1.055217981E-1
1.518035643E1,-2.296374440E-1,1.927270889E-1,3.228557110E-2
1.519824925E1,-3.689389229E-1,1.513195038E-1,5.713164806E-3
1.521614427E1,-4.310311079E-1,-2.130126953E-2,7.204055786E-3
1.523403849E1,-4.241911769E-1,-1.068973541E-1,-2.621465921E-2
1.525193278E1,-2.156959772E-1,-1.103992462E-1,-1.284435987E-1
1.526982914E1,-1.917846799E-1,5.291175842E-2,-3.139559627E-1
1.528772569E1,-1.477837563E-3,-2.120008469E-1,-3.747991920E-1
1.530561808E1,1.396024227E-1,-5.000438690E-1,-3.319196403E-1
1.532350950E1,2.265287638E-1,-5.123081207E-1,-3.035986423E-2
1.534140379E1,-9.855270386E-2,-3.895559311E-1,3.053263426E-1
1.535929814E1,-4.980596900E-1,-5.708141327E-1,6.973497868E-1
1.537719212E1,-7.626229525E-1,-3.091449738E-1,6.925332546E-1
1.539508946E1,-7.611358166E-1,2.947072983E-1,3.905150294E-1
1.541298063E1,-5.455366373E-1,5.527105331E-1,3.186265826E-1
1.543086125E1,-3.179243803E-1,5.269260406E-1,4.450084567E-1
1.544876896E1,-7.250571251E-2,4.377031326E-1,5.742790699E-1
1.546666307E1,8.561742306E-2,2.370452881E-1,8.284942508E-1
1.548455735E1,1.274807453E-1,1.719980240E-1,7.759002447E-1
1.550245170E1,3.249003887E-1,8.126926422E-2,6.342009902E-1
1.552033372E1,4.950518608E-1,1.618471146E-1,3.618206978E-1
1.553823997E1,5.663200617E-1,7.660007477E-2,1.692160964E-1
1.555613395E1,6.982128620E-1,-7.171344757E-2,-9.353834391E-2
1.557402830E1,8.040553331E-1,-8.320713043E-2,-2.752542496E-1
1.559191087E1,8.166627884E-1,-7.178497314E-2,-3.481761217E-1
1.560981852E1,7.588082552E-1,2.014732361E-2,-3.730023801E-1
1.562771385E1,6.491454840E-1,3.497123718E-1,-4.508541524E-1
1.564560691E1,4.421709776E-1,5.078191757E-1,-3.639586270E-1
1.566349919E1,3.040788174E-1,2.621726990E-1,-1.085774302E-1
1.568139085E1,2.326802015E-1,6.434440613E-2,1.448690891E-3
1.569928788E1,1.341574192E-1,2.231788635E-1,-5.503487587E-2
1.571718186E1,1.842263937E-1,2.957000732E-1,-3.909826279E-3
1.573507615E1,5.320124626E-1,5.798244476E-2,1.029790044E-1
1.575297026E1,9.886153936E-1,-9.191894531E-2,1.227660179E-1
1.577086454E1,1.336862087E0,8.208465576E-2,3.903537989E-2
1.578875865E1,1.499596119E0,3.128890991E-1,3.047102690E-2
1.580665300E1,1.652614832E0,4.527778625E-1,3.804653883E-2
1.582454704E1,1.745312452E0,4.260416031E-1,-2.382479310E-1
1.584244139E1,1.734600782E0,4.854412079E-1,-8.837440610E-1
1.586032395E1,1.626251459E0,3.399581909E-1,-1.450557470E0
1.587822966E1,1.494717360E0,1.179389954E-1,-1.545078039E0
1.589612406E1,1.284453630E0,3.367519379E-2,-1.168259740E0
1.591401805E1,9.893686771E-1,7.107543945E-2,-7.559367418E-1
1.593190873E1,7.715952396E-1,4.656887054E-2,-7.938490510E-1
1.594980363E1,6.102311015E-1,1.001768112E-1,-1.221258521E0
1.596769767E1,3.238158822E-1,1.616353989E-1,-1.481934309E0
1.598559794E1,-1.427265406E-1,2.705860138E-2,-1.572078943E0
1.600348905E1,-4.914908409E-1,-1.073074341E-1,-1.652252913E0
1.602138352E1,-6.386475563E-1,-8.139514923E-2,-1.708197474E0
1.603927787E1,-6.731739640E-1,-4.800167084E-1,-1.403108716E0
1.605717179E1,-5.676352978E-1,-1.076065063E0,-8.061944246E-1
1.607506590E1,-1.339324415E-1,-1.123111725E0,-1.388987303E-1
1.609295744E1,2.165002823E-1,-7.546873093E-1,2.653671503E-1
1.611085441E1,4.410078526E-1,-1.992177963E-1,4.613609314E-1
1.612874723E1,4.511891007E-1,3.685245514E-1,4.610484838E-1
1.614664280E1,1.431003213E-1,6.540212631E-1,2.890712023E-1
1.616453703E1,-2.696072459E-1,3.469448090E-1,-1.994276047E-2
1.618242985E1,-5.823314190E-1,-5.037422180E-1,-3.878906965E-1
1.620031370E1,-1.075355053E0,-1.279683113E0,-1.574189425E0
1.621821641E1,-1.458793283E0,-1.899821281E0,-3.603347778E0
1.623611375E1,-1.396258831E0,-1.884407997E0,-4.688894272E0
1.625400804E1,-1.262244940E0,-5.103950500E-1,-3.776676416E0
1.627190232E1,6.615567207E-2,9.949941635E-1,-3.471676707E-1
1.628979295E1,1.682669401E0,6.322546005E-1,2.361222267E0
1.630769041E1,1.372158408E0,2.462625504E-1,3.539193869E0
1.632558787E1,1.292789340E0,-2.980384827E-1,2.381604671E0
1.634347892E1,1.160922408E0,-1.210150719E0,1.115418196E0
1.636137327E1,6.260145903E-1,-1.947756767E0,2.711073160E-1
1.637926762E1,-1.597845554E-2,-1.872290611E0,-4.378111959E-1
1.639716160E1,-7.135845423E-1,-9.307250977E-1,-6.568270922E-1
1.641505583E1,-1.322569132E0,4.416465759E-3,-2.578744888E-1
1.643295018E1,-1.507223368E0,6.460514069E-1,2.112103701E-1
1.645084440E1,-1.171973705E0,1.021264076E0,4.951454401E-1
1.646872648E1,-3.702759743E-1,1.113334656E0,8.665978909E-1
1.648663255E1,4.173564911E-2,1.028891563E0,9.832345247E-1
1.650452684E1,2.282378674E-1,6.316499710E-1,1.164100289E0
1.652242277E1,7.979505062E-1,2.934503555E-1,1.097620010E0
1.654030345E1,1.184947968E0,1.190099716E-1,1.821156740E-1
1.655820939E1,5.593888760E-1,1.992664337E-1,-4.163582325E-1
1.657610368E1,-1.157319546E-1,7.482795715E-1,-4.217128754E-1
1.659399113E1,-7.621601820E-1,9.860887527E-1,-1.907330751E-1
1.661189207E1,-1.399076223E0,9.337081909E-1,-1.489504576E-1
1.662978636E1,-1.525188446E0,8.985977173E-1,-8.545732498E-2
1.664768064E1,-1.030035973E0,1.045481682E0,-7.816600800E-2
1.666557798E1,-4.134941101E-2,9.746389389E-1,3.512310982E-2
1.668345445E1,7.359306812E-1,8.874645233E-1,3.814003468E-1
1.670135191E1,1.179994345E0,1.039963722E0,3.558810949E-1
1.671924638E1,1.508706808E0,8.499546051E-1,-3.192718029E-1
1.673714372E1,1.879427671E0,5.671749115E-1,-7.429157495E-1
1.675503538E1,1.765224695E0,8.248815536E-1,-1.371162891E0
1.677292833E1,1.914738417E0,8.895702362E-1,-1.692398071E0
1.679082646E1,2.431235552E0,6.459951401E-1,-1.611056209E0
1.680872013E1,2.928496122E0,3.455810547E-1,-1.345166683E0
1.682661460E1,2.644814730E0,1.757879257E-1,-1.191457033E0
1.684450767E1,1.808559418E0,5.883007050E-1,-8.368476629E-1
1.686239762E1,1.138549805E0,9.591856003E-1,-2.159764767E-1
1.688029344E1,9.570968151E-1,-1.490049362E-1,2.878834009E-1
1.689818840E1,2.799565792E-1,-2.151381493E0,7.227866650E-1
1.691609367E1,-7.820241451E-1,-3.224058151E0,1.476148248E0
1.693398777E1,-1.556331396E0,-2.685536385E0,1.615866184E0
1.695188200E1,-1.975741863E0,-1.146495819E0,-5.114480257E-1
1.696977946E1,-2.936096430E0,2.719726562E-1,-9.976326227E-1
1.698767057E1,-3.059846640E0,6.021633148E-1,6.061130762E-1
1.700556773E1,-2.673143387E0,8.505744934E-1,1.817428827E0
1.702345896E1,-1.940565944E0,5.382699966E-1,2.345895290E0
1.704135319E1,-1.466832638E0,-1.528987885E-1,2.511682034E0
1.705924748E1,-8.863822222E-1,-9.208498001E-1,2.621565342E0
1.707714164E1,-2.349091768E-1,-1.235319138E0,1.990617871E0
1.709503892E1,1.481387615E-1,-6.096401215E-1,1.155152798E0
1.711292991E1,3.162895441E-1,5.399131775E-2,8.741277456E-1
1.713082420E1,2.999739647E-1,2.983455658E-1,5.665571094E-1
1.714871843E1,3.595579863E-1,2.765140533E-1,8.354023099E-2
1.716661241E1,9.274780750E-2,1.018447876E-1,-6.117769480E-1
1.718450975E1,-2.007436156E-1,2.469978333E-1,-7.141638398E-1
1.720240110E1,-1.778476238E-1,3.553905487E-1,-5.850108862E-1
1.722028398E1,-6.162464619E-2,3.692665100E-1,-2.747563720E-1
1.723818943E1,2.833498716E-1,5.393066406E-1,1.244752407E-1
1.725608366E1,6.618462801E-1,8.803462982E-1,4.759476781E-1
1.727397819E1,9.182451367E-1,1.134407997E0,6.375440359E-1
1.729187223E1,8.251002431E-1,8.539505005E-1,8.663710356E-1
1.730976628E1,8.224372864E-1,1.135606766E-1,1.017518163E0
1.732766062E1,3.758637309E-1,-3.160276413E-1,5.396741629E-1
1.734555162E1,-2.883601189E-2,-3.459291458E-1,-4.031393528E-1
1.736343693E1,-2.360990644E-1,-5.155553818E-1,-1.606121063E0
1.738134318E1,-2.831822634E-2,-6.226644516E-1,-2.437336445E0
1.739923753E1,5.953451991E-1,-5.432052612E-1,-2.349009991E0
1.741713151E1,1.422894955E0,-5.250711441E-1,-1.840900898E0
1.743502586E1,1.856741071E0,-3.551473618E-1,-1.620423675E0
1.745291990E1,1.953098893E0,3.061504364E-1,-1.687684655E0
1.747081419E1,1.893097401E0,7.338552475E-1,-1.721282363E0
1.748870842E1,1.695015788E0,7.325572968E-1,-1.623360872E0
1.750660246E1,1.558648825E0,3.961534500E-1,-1.175335407E0
1.752449681E1,1.350542665E0,-4.840908051E-1,-6.270722151E-1
1.754239134E1,1.274431109E0,-1.829702377E0,-6.116469502E-1
1.756027415E1,1.214806080E0,-2.596441269E0,-7.360500097E-1
1.757817936E1,4.723077714E-1,-2.249869347E0,-1.569240808E0
1.759607365E1,-2.379268855E-1,-2.095200539E0,-2.919451237E0
1.761396800E1,-8.114786148E-1,-1.794437408E0,-4.401762486E0
1.763186143E1,-1.387732625E0,-7.593936920E-1,-3.468729973E0
1.764975627E1,-1.802687168E0,-2.240514755E-1,-1.621848106E0
1.766765061E1,-1.321323633E0,-4.360942841E-1,3.834053874E-1
1.768554631E1,-7.938072085E-1,-6.092796326E-1,2.809879065E0
1.770343882E1,-1.633890867E-1,-1.537499428E0,3.394934177E0
1.772133348E1,2.193282843E-1,-2.011206627E0,3.375200272E0
1.773922752E1,1.075466633E0,-2.084980965E0,3.501073837E0
1.775710728E1,1.284025669E0,-1.496257782E0,3.195162296E0
1.777501579E1,1.367140174E0,-7.247838974E-1,2.019974470E0
1.779290989E1,1.267403483E0,-1.451110840E-1,8.272227645E-1
1.781079270E1,3.706897497E-1,6.417932510E-1,2.807474136E-1
1.782869847E1,-7.775886059E-1,1.271576881E0,6.797660589E-1
1.784658048E1,-1.660253286E0,1.424845695E0,1.528733730E0
1.786448674E1,-2.212456465E0,1.170695305E0,1.674421668E0
1.788238078E1,-2.548562527E0,8.447723389E-1,1.611497521E0
1.790026396E1,-2.521571159E0,6.247501373E-1,1.538425803E0
1.791816972E1,-2.410271168E0,7.589654922E-1,1.468097687E0
1.793604930E1,-2.200597286E0,8.184375763E-1,1.457608461E0
1.795394651E1,-2.025360584E0,9.673099518E-1,1.601586819E0
1.797184086E1,-1.533228040E0,1.344865799E0,1.608406901E0
1.798973454E1,-8.279960155E-1,1.466834068E0,1.405786157E0
1.800763206E1,-4.666180611E-1,1.481228352E0,1.075543761E0
1.802552275E1,-6.502039433E-1,1.474916458E0,7.470266819E-1
1.804342173E1,-2.870061398E-1,1.192144394E0,5.853260756E-1
1.806131394E1,2.385015488E-1,8.583955765E-1,-9.604930878E-3
1.807920713E1,9.990296364E-1,4.434652328E-1,-5.429604053E-1
1.809710533E1,1.492461205E0,-5.396747589E-2,-1.118713975E0
1.811499357E1,1.603005886E0,-2.930688858E-1,-1.718258023E0
1.813288926E1,1.285299540E0,-3.981590271E-2,-1.998054862E0
1.815078715E1,1.488239765E0,3.845319748E-1,-1.850625277E0
1.816867930E1,1.249043941E0,2.782821655E-2,-1.663451076E0
1.818657481E1,9.700903893E-1,-1.284332275E-1,-1.954085469E0
1.820446653E1,1.193386793E0,4.510879517E-4,-2.197362900E0
1.822235966E1,2.033393145E0,5.130681992E-1,-1.009528637E0
1.824024894E1,2.877981424E0,6.641330719E-1,5.551576614E-1
1.825814799E1,2.866086245E0,-7.433347702E-1,1.627171516E0
1.827604838E1,2.157070398E0,-3.653860092E0,1.043431282E0
1.829393760E1,2.459603310E0,-6.315606117E0,-3.650690317E-1
1.831183274E1,1.772984266E0,-5.941967964E0,-4.816323519E-1
1.832972898E1,-1.457274318E0,-1.153591156E0,9.931195974E-1
1.834761692E1,-4.193692207E0,2.304595947E0,1.013225794E0
1.836552879E1,-6.384350777E0,3.671639919E0,-3.975380659E-1
1.838341911E1,-7.145640373E0,3.266105175E0,-8.909672499E-1
1.840131346E1,-6.086087704E0,1.374618530E0,1.043172359E0
1.841920774E1,-4.508266449E0,-9.172725677E-1,2.309827328E0
1.843710179E1,-3.206336260E0,-2.705468178E0,2.542060614E0
1.845499607E1,-1.055676937E0,-3.071708679E0,1.248463392E0
1.847289030E1,4.292089939E-1,-1.812038422E0,3.422290087E-2
1.849078434E1,-2.085123062E-1,-9.537220001E-2,6.244173050E-1
1.850867838E1,-9.068073034E-1,5.214662552E-1,1.235803366E0
1.852657298E1,-2.488261461E-1,7.073221207E-1,1.734518290E0
1.854446696E1,3.525700569E-1,-2.807521820E-2,1.710829139E0
1.856236283E1,6.663788557E-1,-5.595417023E-1,1.660718441E0
1.858024143E1,7.934741974E-1,-2.669248581E-1,1.103205919E0
1.859813768E1,1.089400530E0,2.501745224E-1,2.001217455E-1
1.861604386E1,1.184531450E0,1.014601707E0,-4.765536189E-1
1.863394114E1,7.559475899E-1,1.210435867E0,-8.424669504E-1
1.865183244E1,3.538271189E-1,7.175188065E-1,-2.220271081E-1
1.866972361E1,6.410717964E-3,1.232595444E-1,6.487029791E-1
1.868762077E1,-1.610093117E-1,1.007747650E-1,9.712620974E-1
1.870551200E1,6.479668617E-2,7.354259491E-2,9.471544623E-1
1.872340916E1,4.252221584E-1,1.236858368E-1,4.682944417E-1
1.874130369E1,7.553135157E-1,4.099988937E-1,-4.797863960E-2
1.875919773E1,4.084296227E-1,4.857234955E-1,-2.583870888E-1
1.877707621E1,-7.289385796E-2,-1.922788620E-1,-2.486653626E-1
1.879498631E1,-3.106262088E-1,-6.208715439E-1,-3.446367085E-1
1.881287724E1,-3.113431931E-1,-4.552173615E-1,-5.764768124E-1
1.883077458E1,-4.654777646E-1,-1.251573563E-1,-1.129523039E0
1.884866886E1,-4.617981315E-1,-1.036081314E-1,-1.631395578E0
1.886656297E1,-3.020710647E-1,-3.944301605E-1,-1.716609716E0
1.888445726E1,4.453954697E-1,-5.203495026E-1,-1.396924138E0
1.890235154E1,1.197498679E0,-1.596689224E-1,-9.820076823E-1
1.892023460E1,1.797766924E0,2.334403992E-2,-5.756336451E-1
1.893813987E1,1.970614672E0,2.248573303E-1,-3.556554914E-1
1.895603416E1,1.858305216E0,6.188249588E-1,-4.721155763E-1
1.897392845E1,1.214919329E0,5.927639008E-1,-8.104259968E-1
1.899182261E1,7.502766848E-1,-1.918010712E-1,-8.814331889E-1
1.900971678E1,8.333259821E-1,-1.372299194E0,-7.456337214E-1
1.902761076E1,1.438915730E0,-2.163460732E0,-6.375873089E-1
1.904550682E1,1.448838592E0,-2.238442421E0,-3.326675892E-1
1.906339933E1,8.735415936E-1,-1.881091118E0,-1.518386602E-1
1.908128056E1,-3.533815444E-1,-1.362998009E0,-4.409896135E-1
1.909918632E1,-1.857729197E0,-1.537885666E-1,-1.516285300E0
1.911708201E1,-2.280030727E0,5.508337021E-1,-2.049267769E0
1.913497630E1,-1.961447001E0,5.471315384E-1,-1.394803524E0
1.915287052E1,-1.468575835E0,4.640569687E-1,7.238411903E-2
1.917075016E1,-9.174861908E-1,5.325508118E-1,1.458517909E0
1.918865885E1,-2.075693011E-1,5.072860718E-1,2.138863325E0
1.920655320E1,4.214823842E-1,4.129133224E-1,1.993081450E0
1.922444718E1,7.787997723E-1,1.138763428E-1,1.665173411E0
1.924234172E1,4.931316972E-1,-3.554935455E-1,1.520656347E0
1.926022441E1,-3.014618754E-1,-6.985378265E-1,1.738260984E0
1.927812980E1,-7.751005888E-1,-1.512313843E0,1.484586835E0
1.929601213E1,-1.236973286E0,-1.534449577E0,8.334283233E-1
1.931391844E1,-1.308087349E0,-8.005638123E-1,5.299510360E-1
1.933181260E1,-1.365728021E0,8.484745026E-2,8.100511432E-1
1.934970701E1,-1.508363485E0,6.202802658E-1,1.418511868E0
1.936760099E1,-1.642565489E0,7.885484695E-1,1.934510708E0
1.938549937E1,-1.761160135E0,8.081474304E-1,2.030183792E0
1.940338963E1,-1.946494579E0,8.787517548E-1,1.816697717E0
1.942128086E1,-2.172987700E0,9.218788147E-1,1.536363959E0
1.943917820E1,-2.055233717E0,8.519611359E-1,1.398574233E0
1.945707231E1,-1.555423498E0,7.081298828E-1,1.477604866E0
1.947496653E1,-1.256528378E0,6.405172348E-1,1.038642645E0
1.949286369E1,-8.839986324E-1,6.545038223E-1,7.655515671E-1
1.951075651E1,-3.600444198E-1,6.695432663E-1,4.442897737E-1
1.952864909E1,2.196489573E-1,3.829307556E-1,1.145887375E-1
1.954654338E1,2.858632207E-1,1.849079132E-2,-6.349870563E-1
1.956443772E1,1.543549299E-1,-1.717042923E-1,-1.089233756E0
1.958232041E1,-1.198725104E-1,-3.771419525E-1,-1.030649900E0
1.960021440E1,-1.838147640E-1,-1.905279160E-1,-9.836620688E-1
1.961812034E1,4.696416855E-2,2.201528549E-1,-7.303107381E-1
1.963601762E1,1.424871683E-1,-6.471824646E-2,-2.195866704E-1
1.965390867E1,1.829374433E-1,-7.197284698E-1,7.291442156E-2
1.967178794E1,3.595881462E-1,-8.574180603E-1,2.839647532E-1
1.968969724E1,8.119809628E-1,-1.863250732E-1,8.499456644E-1
1.970759129E1,8.775960207E-1,5.254077911E-1,1.571175814E0
1.972548704E1,7.690145969E-1,7.457227707E-1,1.841878176E0
1.974337986E1,3.325532675E-1,4.969873428E-1,1.934221029E0
1.976127287E1,-3.222176433E-1,1.652488708E-1,1.510344505E0
1.977916819E1,-1.295611143E0,-1.746149063E-1,2.125194073E-1
1.979706248E1,-1.718687773E0,-4.454956055E-1,-7.307336926E-1
1.981495671E1,-1.329299688E0,-6.060924530E-1,-6.233323812E-1
1.983283616E1,-9.397581816E-1,-5.475521088E-1,-1.858839393E-1
1.985073411E1,-7.082683444E-1,-1.567745209E-1,7.194653153E-2
1.986862809E1,-5.111188293E-1,3.662204742E-1,1.703367829E-1
1.988652250E1,-6.227038503E-1,4.646053314E-1,-5.966761708E-2
1.990441935E1,-4.399682283E-1,2.753362656E-1,-5.059804320E-1
1.992231962E1,-6.122148037E-2,1.581935883E-1,-3.124248683E-1
1.994020506E1,2.728709579E-1,1.572055817E-1,3.585530519E-1
1.995810191E1,4.442344308E-1,4.425907135E-2,7.703830600E-1
1.997599302E1,3.698834181E-1,-9.725570679E-2,9.034205675E-1
1.999388865E1,1.379591823E-1,-5.536365509E-2,7.037630081E-1
2.001178251E1,-3.375184536E-2,1.005144119E-1,3.176306486E-1
2.002967936E1,-1.284414530E-1,6.084251404E-2,8.138382435E-2
2.004757102E1,-1.973367631E-1,-8.474540710E-2,6.863838434E-2
2.006546434E1,-1.150332689E-1,-3.107147217E-1,1.140347123E-1
2.008335844E1,5.942726135E-2,-4.001512527E-1,1.334623694E-1
2.010125798E1,1.869301200E-1,-3.834753036E-1,2.017858028E-1
2.011914756E1,2.070419192E-1,-3.091344833E-1,1.547730565E-1
2.013705296E1,1.504206061E-1,-1.985664368E-1,-5.253630877E-2
2.015494883E1,1.090753078E-2,2.471923828E-2,-2.457822561E-1
2.017284129E1,-2.220426500E-1,9.956359863E-2,-2.895671129E-1
2.019073551E1,-5.202984214E-1,1.551685333E-1,-2.239035368E-1
2.020862950E1,-5.517009497E-1,1.466569901E-1,-2.098202705E-2
2.022652390E1,-3.852024078E-1,5.982017517E-2,2.434963584E-1
2.024441819E1,-1.432954669E-1,-4.053878784E-2,4.997740984E-1
2.026231248E1,3.252226114E-2,-4.965877533E-2,4.853979945E-1
2.028019505E1,1.267551780E-1,-1.076889038E-2,3.708920479E-1
2.029809758E1,1.706467867E-1,-1.219949722E-1,2.768704891E-1
2.031599363E1,1.107110977E-1,-1.977415085E-1,1.298215389E-1
2.033387474E1,8.323854208E-2,-7.451057434E-2,-4.956889153E-2
2.035178337E1,1.489497423E-1,-5.770778656E-2,-8.064997196E-2
2.036967771E1,2.470804453E-1,-4.370689392E-3,-5.433082581E-2
2.038757170E1,2.860472202E-1,1.339235306E-1,-8.115887642E-2
2.040544956E1,2.970840335E-1,1.475515366E-1,-7.430046797E-2
2.042336033E1,2.743439078E-1,1.985073090E-2,4.608768225E-2
2.044125486E1,1.675115228E-1,-3.781795502E-2,1.104997993E-1
2.045914897E1,5.218297243E-2,5.420684814E-3,7.645612955E-2
2.047704295E1,-1.396042109E-2,7.890605927E-2,6.723713875E-2
2.049493730E1,-8.463037014E-2,4.514026642E-2,1.539885402E-1
2.051283152E1,-1.597512960E-1,-1.831912994E-2,2.026336789E-1
2.053072551E1,-1.615684032E-1,5.358982086E-2,1.450217962E-1
2.054861985E1,-1.971340775E-1,3.877067566E-2,1.223138571E-1
2.056651408E1,-1.469039917E-1,-1.064872742E-2,1.400750279E-1
2.058439671E1,-6.253367662E-2,-4.480838776E-2,1.072713733E-1
2.060230271E1,1.083960533E-1,4.964828491E-3,6.749224663E-2
2.062018528E1,2.562354207E-1,3.754711151E-2,1.053261757E-1
2.063808799E1,3.320115209E-1,9.766769409E-2,6.504184008E-2
2.065598533E1,3.614727259E-1,1.986532211E-1,-3.685879707E-2
2.067387937E1,3.794323206E-1,1.644716263E-1,-7.322329283E-2
2.069177384E1,3.595948815E-1,4.563522339E-2,-4.779154062E-2
2.070966789E1,2.962079644E-1,2.207756042E-3,-9.885966778E-2
2.072756218E1,2.090959549E-1,-7.395458221E-2,-1.413804889E-1
2.074545573E1,1.380422711E-1,-7.589149475E-2,-1.303363442E-1
2.076335057E1,3.312939405E-2,-5.379867554E-2,-8.519792557E-2
2.078124504E1,-2.254199982E-2,-1.775646210E-2,-1.230558157E-1
2.079913645E1,4.411220551E-2,-3.636360168E-2,-2.193092704E-1
2.081703270E1,1.850101352E-1,8.411407471E-3,-2.571697831E-1
2.083492771E1,2.919777036E-1,7.125949860E-2,-1.566187739E-1
2.085282176E1,3.623909354E-1,1.645069122E-1,-6.833064556E-2
2.087071598E1,4.071425796E-1,1.701269150E-1,2.181702852E-2
2.088861027E1,4.220382571E-1,7.258701324E-2,1.024039388E-1
2.090650431E1,3.524857163E-1,1.862049103E-2,1.320667863E-1
2.092439860E1,1.697036624E-1,-1.916980743E-2,1.010334492E-1
2.094228093E1,-3.761571646E-2,-3.979587555E-2,6.880599260E-2
2.096017558E1,-1.097102165E-1,-1.415443420E-2,2.443313599E-2
2.097807841E1,-5.724513531E-2,4.960346222E-2,-5.856162310E-2
2.099597557E1,6.699520350E-2,1.076936722E-1,-7.919341326E-2
2.101386985E1,1.676889062E-1,8.148574829E-2,-5.077582598E-2
2.103176689E1,2.326335907E-1,3.548145294E-2,-2.427130938E-2
2.104965818E1,2.162517905E-1,4.026985168E-2,-1.414567232E-2
2.106755247E1,9.493571520E-2,3.883075714E-2,7.452571392E-2
2.108543504E1,-3.249156475E-2,-4.554748535E-3,1.473324895E-1
2.110334104E1,-1.046295464E-1,2.317142487E-2,1.560883522E-1
2.112123527E1,-1.452985704E-1,7.729339600E-2,1.627437472E-1
2.113912962E1,-1.767759919E-1,4.488468170E-2,1.543693542E-1
2.115702446E1,-1.749924421E-1,-1.462745667E-2,7.218360901E-2
2.117492057E1,-6.605052948E-2,-7.795810699E-2,4.132330418E-3
2.119280021E1,7.426244020E-2,-1.095390320E-2,-3.740495443E-2
2.121070628E1,1.928120255E-1,9.123420715E-2,-5.677425861E-2
2.122860057E1,2.177851796E-1,1.161565781E-1,-4.546415806E-2
2.124649522E1,1.817059517E-1,8.127689362E-2,-1.837927103E-2
2.126438914E1,9.077435732E-2,5.567836761E-2,3.804814816E-2
2.128228343E1,5.033665895E-2,3.609466553E-2,7.093185186E-2
2.130016569E1,1.022174358E-1,-3.597736359E-2,8.414661884E-2
2.131807334E1,1.834826469E-1,4.308414459E-2,9.095555544E-2
2.133596891E1,1.404374242E-1,5.305099487E-2,8.213961124E-2
2.135386009E1,4.588139057E-2,1.246356964E-2,2.797877789E-2
2.137175462E1,-5.464756489E-2,-3.031826019E-2,2.330011129E-2
2.138964866E1,-1.408412457E-1,2.116394043E-2,4.734778404E-2
2.140754295E1,-1.363148093E-1,4.277038574E-2,4.071158171E-2
2.142543705E1,-1.673352718E-2,-2.777099609E-2,6.191885471E-2
2.144331681E1,8.673912287E-2,-2.319049835E-2,4.164379835E-2
2.146121311E1,1.463179588E-1,1.033496857E-1,1.497304440E-2
2.147911985E1,1.960664392E-1,1.484775543E-1,-5.528926849E-4
2.149700218E1,2.094401121E-1,4.359340668E-2,7.494610548E-2
2.151489732E1,1.965488195E-1,-4.290962219E-2,1.195048094E-1
2.153279466E1,8.937400579E-2,-8.132934570E-3,1.182885766E-1
2.155068565E1,9.059667587E-3,7.533645630E-2,6.251794100E-2
2.156858396E1,9.233951569E-3,9.129905701E-2,5.900937319E-2
2.158647502E1,5.575227737E-2,7.336997986E-2,5.903804302E-2
2.160436772E1,9.293651581E-2,7.206058502E-2,4.648065567E-2
2.162226402E1,9.398871660E-2,7.264804840E-2,4.728382826E-2
2.164015666E1,7.247662544E-2,8.190822601E-2,6.496405602E-2
2.165805479E1,1.928013563E-2,4.529285431E-2,3.139013052E-2
2.167594780E1,1.971602440E-3,-2.108573914E-2,-3.942978382E-2
2.169384074E1,3.526735306E-2,-1.988220215E-2,-1.080951691E-1
2.171174015E1,1.222296953E-1,-2.014064789E-2,-9.073650837E-2
2.172962809E1,1.562153697E-1,1.490688324E-2,-4.210865498E-2
2.174752433E1,8.616173267E-2,3.337478638E-2,1.198661327E-2
2.176541746E1,-4.819512367E-2,3.330421448E-2,3.846192360E-2
2.178331358E1,-1.366747320E-1,6.684112549E-2,3.174817562E-2
2.180120402E1,-1.545701623E-1,3.395748138E-2,3.666651249E-2
2.181909855E1,-8.726108074E-2,3.275871277E-2,4.316174984E-2
2.183700730E1,8.455938101E-2,1.823806763E-2,5.946207047E-2
2.185489561E1,1.631452441E-1,4.232406616E-3,3.476572037E-2
2.187279289E1,2.117246985E-1,-6.493568420E-3,-3.664994240E-2
2.189068693E1,1.898097992E-1,-2.034568787E-2,-1.023512483E-1
2.190858128E1,1.049680710E-1,-2.330780029E-2,-9.064054489E-2
2.192647557E1,6.881159544E-2,2.939891815E-2,-4.035866261E-2
2.194436979E1,3.482556343E-2,7.915592194E-2,1.848816872E-2
2.196226414E1,2.363204956E-2,6.552219391E-2,1.144980192E-1
2.198014341E1,-6.374061108E-3,2.671241760E-3,1.683478355E-1
2.199804942E1,-5.946636200E-2,5.125999451E-3,1.428800821E-1
2.201594676E1,-1.353606582E-1,1.339530945E-2,9.577512741E-2
2.203384080E1,-1.892736554E-1,-3.560638428E-2,9.640741348E-2
2.205173478E1,-1.768589616E-1,9.431838989E-4,6.694090366E-2
2.206961802E1,-6.318610907E-2,6.276607513E-2,6.763911247E-2
2.208752659E1,-2.342855930E-2,2.578163147E-2,6.578135490E-2
2.210541789E1,-3.763544559E-2,-2.285480499E-2,9.283745289E-2
2.212331193E1,-9.279924631E-2,5.651187897E-2,5.657529831E-2
2.214120652E1,-1.242960095E-1,8.551788330E-2,4.961466789E-2
2.215910057E1,-1.312502027E-1,1.944160461E-2,7.351696491E-2
2.217699485E1,-2.068061233E-1,-1.458168030E-1,6.426680088E-2
2.219488884E1,-2.761277854E-1,-1.852073669E-1,9.992718697E-3
2.221278343E1,-3.049160838E-1,-6.088161469E-2,-5.251741409E-2
2.223067741E1,-2.838438749E-1,1.532268524E-2,-8.845382929E-2
2.224857145E1,-2.527799904E-1,-3.715419769E-2,-4.882931709E-2
2.226646586E1,-2.155989408E-1,-4.186534882E-2,3.039622307E-2
2.228436009E1,-1.619815230E-1,5.653476715E-2,7.776582241E-2
2.230225462E1,-1.171535254E-1,7.610893250E-2,9.276378155E-2
2.232013700E1,-1.215788722E-1,-1.516246796E-2,8.888304234E-2
2.233803996E1,-1.311868429E-1,-4.802227020E-2,7.360339165E-2
2.235592430E1,-9.045696259E-2,4.593563080E-2,4.369527102E-2
2.237383128E1,-6.913691759E-2,8.091068268E-2,2.463799715E-2
2.239172550E1,-8.973014355E-2,5.795478821E-2,1.174765825E-2
2.240962284E1,-1.390762329E-1,1.253128052E-2,3.193324804E-2
2.242751390E1,-9.339570999E-2,3.096675873E-2,4.170167446E-2
2.244541111E1,-3.415441513E-2,3.632831573E-2,2.683824301E-2
2.246330247E1,-2.935373783E-2,1.269054413E-2,2.171784639E-2
2.248117784E1,-3.573405743E-2,-7.847976685E-2,3.311055899E-2
2.249909110E1,4.793083668E-2,-6.193637848E-2,1.982265711E-2
2.251698539E1,1.278948784E-1,2.217197418E-2,3.760123253E-2
2.253487931E1,9.221762419E-2,1.140909195E-1,2.722018957E-2
2.255277384E1,8.977657557E-2,1.463432312E-1,3.933990002E-2
2.257066789E1,1.322398782E-1,4.742050171E-2,1.142078638E-1
2.258856517E1,1.672488451E-1,6.634712219E-3,2.217719555E-1
2.260644383E1,1.282314658E-1,4.145240784E-2,2.609500289E-1
2.262435057E1,9.318208694E-2,4.783630371E-3,2.509557009E-1
2.264224479E1,-6.582081318E-3,7.585906982E-2,1.708099246E-1
2.266012724E1,3.841823339E-2,1.426000595E-1,6.057280302E-2
2.267803019E1,2.503908277E-1,-4.480361938E-3,2.113080025E-2
2.269592747E1,2.645672560E-1,-1.164827347E-1,6.172990799E-2
2.271382176E1,1.769535542E-1,3.154850006E-2,-6.815850735E-3
2.273171598E1,2.255110145E-1,1.510715485E-1,-1.554716825E-1
2.274961039E1,2.153783441E-1,1.207628250E-1,-1.288795471E-1
2.276750437E1,3.281307220E-2,1.865577698E-2,1.658040881E-1
2.278539866E1,-1.397042274E-1,9.336471558E-4,4.383319616E-1
2.280329576E1,-1.086205244E-1,6.861782074E-2,3.366690278E-1
2.282118718E1,1.258158684E-2,-1.251754761E-1,2.254208326E-1
2.283908128E1,2.632546425E-2,-3.302307129E-1,2.659646273E-1
2.285697648E1,4.625606537E-2,-3.252468109E-1,2.816881537E-1
2.287486985E1,2.908062935E-2,-1.763677597E-1,3.455301523E-1
2.289276719E1,2.412176132E-2,4.388237000E-2,2.511092424E-1
2.291065837E1,-2.275803089E-1,-6.644439697E-2,3.013808727E-1
2.292855278E1,-4.690276980E-1,-3.738689423E-2,4.926779866E-1
2.294644676E1,-4.759621024E-1,1.278438568E-1,5.017018318E-1
2.296432902E1,-4.454166889E-1,3.074073792E-1,3.912047744E-1
2.298223558E1,-4.234312773E-1,2.904090881E-1,4.819850624E-1
2.300011772E1,-2.198545933E-1,1.472358704E-1,4.507985413E-1
2.301802073E1,1.274830103E-1,-2.105808258E-2,1.553564370E-1
2.303591789E1,5.185221434E-1,-2.279109955E-1,-6.251686811E-2
2.305381022E1,8.105067015E-1,-2.792549133E-1,-1.566589177E-1
2.307170646E1,7.422411442E-1,-2.350864410E-1,-1.036987007E-1
2.308960356E1,4.223287702E-1,-2.398462296E-1,1.857067943E-1
2.310748051E1,5.759155750E-2,-2.275562286E-1,6.036133766E-1
2.312537767E1,-2.604537010E-1,-1.868257523E-1,8.810877204E-1
2.314326994E1,-3.247067332E-1,-8.217239380E-2,9.514665008E-1
2.316116703E1,-2.357481718E-1,2.006769180E-1,7.426177263E-1
2.317907304E1,-4.003876448E-2,3.814487457E-1,6.572346687E-1
2.319696928E1,2.741375566E-1,1.678714752E-1,7.883247137E-1
2.321485893E1,5.181809068E-1,-8.044433594E-2,7.989819646E-1
2.323275462E1,5.343391895E-1,-1.735696793E-1,6.495985985E-1
2.325064884E1,3.994138837E-1,-3.530406952E-2,4.279863834E-1
2.326854289E1,4.317585230E-1,1.599483490E-1,4.080680013E-1
2.328643724E1,5.797511339E-1,2.038402557E-1,6.077268124E-1
2.330433158E1,7.039503455E-1,8.894157410E-2,7.715879083E-1
2.332222312E1,8.116949201E-1,6.839084625E-2,8.401497006E-1
2.334010820E1,5.413869023E-1,1.181192398E-1,7.878810763E-1
2.335801139E1,1.351693273E-1,2.079992294E-1,5.327736735E-1
2.337590867E1,2.269786596E-2,3.390045166E-1,2.238504589E-1
2.339380302E1,-8.154630661E-2,4.009771347E-1,-1.768904924E-2
2.341168553E1,8.137381077E-2,3.830490112E-1,-1.628862917E-1
2.342958000E1,3.304123878E-1,2.325658798E-1,-3.547921479E-1
2.344747581E1,5.982109904E-1,1.007652283E-2,-6.597175598E-1
2.346536888E1,5.939753056E-1,-7.770061493E-2,-9.758950472E-1
2.348326438E1,2.556899190E-1,-5.135726929E-2,-1.143780708E0
2.350115776E1,-5.448902249E-1,3.737831116E-2,-1.218672514E0
2.351905094E1,-1.355000615E0,1.551437378E-2,-1.013316274E0
2.353694706E1,-1.710516691E0,2.023954391E-1,-1.000967026E0
2.355484318E1,-1.570024252E0,1.477031708E-1,-9.572736621E-1
2.357273631E1,-1.165561557E0,-1.265230179E-1,-6.591951847E-1
2.359062742E1,-6.932669282E-1,-2.319440842E-1,1.243841648E-2
2.360852317E1,-5.969125032E-2,-5.110740662E-2,7.354347706E-1
2.362642198E1,4.038608074E-1,1.248102188E-1,1.237919211E0
2.364431510E1,8.530743718E-1,2.218198776E-1,1.140414953E0
2.366220548E1,1.281879187E0,2.855863571E-1,5.908142328E-1
2.368009855E1,1.608960629E0,3.591623306E-1,1.257008314E-1
2.369800486E1,1.502485275E0,4.368553162E-1,-5.059689283E-2
2.371588761E1,1.272458315E0,5.242824554E-1,-4.104358554E-1
2.373379344E1,1.064784050E0,4.568319321E-1,-9.479903579E-1
2.375168486E1,8.043792248E-1,2.752017975E-1,-8.822134733E-1
2.376958177E1,6.025552154E-1,3.327913284E-1,-3.207964897E-1
2.378747599E1,3.642576337E-1,3.934192657E-1,-1.173157096E-1
2.380537034E1,1.609488130E-1,1.944084167E-1,-3.070938587E-1
2.382324998E1,1.884812117E-2,-1.476888657E-1,-5.005204678E-1
2.384115885E1,-1.102585196E-1,-2.707881927E-1,-7.300245762E-1
2.385905418E1,-3.805919886E-1,-2.362699509E-1,-8.808041811E-1
2.387695024E1,-4.664023221E-1,-2.005910873E-1,-1.068724155E0
2.389484153E1,-4.649194479E-1,-1.417312622E-1,-1.069355726E0
2.391273582E1,-2.149961591E-1,5.561923981E-2,-7.505824566E-1
2.393063011E1,1.429614425E-1,2.785530090E-1,-4.633379579E-1
2.394852427E1,4.617330432E-1,4.584054947E-1,-1.231772900E-1
2.396642149E1,5.584357381E-1,4.961299896E-1,2.822272182E-1
2.398431272E1,5.518655777E-1,4.981889725E-1,4.497495294E-1
2.400220695E1,6.207416058E-1,3.483829498E-1,2.932064533E-1
2.402009623E1,6.583271623E-1,2.610301971E-2,2.598661184E-2
2.403799235E1,6.639416814E-1,-1.591148376E-1,-2.233143151E-1
2.405589268E1,8.131242394E-1,-1.508750916E-1,-4.098371565E-1
2.407378123E1,8.066207767E-1,-2.943096161E-1,-3.989039063E-1
2.409167832E1,8.097283840E-1,-3.433341980E-1,-3.998640776E-1
2.410956047E1,7.728947997E-1,-1.539030075E-1,-2.924499214E-1
2.412745469E1,4.912891388E-1,9.912109375E-2,1.116745993E-1
2.414536082E1,2.208399177E-1,3.655662537E-1,3.711635172E-1
2.416325535E1,-7.788300514E-2,3.825006485E-1,4.499498904E-1
2.418114964E1,-2.296194434E-1,7.720851898E-2,2.979125381E-1
2.419903398E1,-1.558222771E-1,-3.413877487E-1,2.502194345E-1
2.421693089E1,-2.457063198E-1,-4.622535706E-1,3.669671416E-1
2.423483201E1,-2.846007347E-1,-2.789106369E-1,3.916472793E-1
2.425270915E1,-2.924757004E-1,5.846977234E-2,2.492713481E-1
2.427062052E1,-3.336793780E-1,2.936983109E-1,1.998962015E-1
2.428851481E1,-3.764422536E-1,5.034656525E-1,1.973440051E-1
2.430640916E1,-3.466961980E-1,4.525985718E-1,2.518074811E-1
2.432429173E1,-1.509329081E-1,1.600074768E-1,2.106550038E-1
2.434219773E1,4.342347383E-2,-3.177547455E-2,-3.261128068E-2
2.436007518E1,1.945712566E-1,-8.807945251E-2,-4.083458483E-1
2.437798313E1,4.198997021E-1,-9.414005280E-2,-4.596103728E-1
2.439588035E1,6.339531541E-1,-1.683664322E-1,-2.957310379E-1
2.441377464E1,7.609930038E-1,-2.171258926E-1,-2.471509278E-1
2.443166868E1,4.143769145E-1,-3.379678726E-1,-4.042876065E-1
2.444956321E1,5.601866245E-1,-1.362028122E-1,-3.049415946E-1
2.446745732E1,4.789189696E-1,-3.068180084E-1,-3.962951005E-1
2.448535154E1,1.416734457E-1,-8.391962051E-1,-1.257729530E-1
2.450324552E1,-2.788559198E-1,-6.571245193E-1,5.067420006E-2
2.452114006E1,-5.247302055E-1,-3.681087494E-2,3.335112333E-1
2.453902293E1,-4.997386932E-1,1.125593185E-1,4.168195128E-1
2.455693138E1,-4.639554024E-2,-5.829114914E-1,-1.891576052E-1
2.457480827E1,6.320036650E-1,-2.553472519E-1,-6.922450662E-1
2.459271842E1,7.968026400E-1,4.606790543E-1,-2.025163174E-1
2.461061100E1,9.056097269E-1,8.363170624E-1,5.628926158E-1
2.462849339E1,9.047652483E-1,1.342993736E0,9.720430374E-1
2.464639964E1,1.034792900E0,2.111879826E0,9.300446510E-1
2.466429386E1,8.734996319E-1,3.113478661E0,5.970822573E-1
2.468218846E1,4.296437502E-1,3.789973736E0,2.953913212E-1
2.470007518E1,3.755937815E-1,3.196296215E0,1.642642021E-1
2.471797355E1,2.985152006E-1,7.725143433E-1,5.448900461E-1
2.473587077E1,7.327342033E-2,-2.365822792E0,1.200549841E0
2.475376512E1,-2.372806072E-1,-4.715040207E0,1.458460093E0
2.477165934E1,-3.350028396E-1,-4.178759575E0,-2.185991764E0
2.478955278E1,2.549308538E-1,-1.313771248E0,-7.862404823E0
2.480744804E1,1.039495945E0,1.785383224E-1,-4.634193897E0
2.482534251E1,1.733657598E0,8.458642960E-1,-1.682238936E0
2.484323661E1,1.824169755E0,9.150667191E-1,3.840923309E-4
2.486113078E1,1.768296480E0,7.493076324E-1,7.992776632E-1
2.487902214E1,1.719377756E0,6.712818146E-1,9.592905045E-1
2.489690934E1,1.368206501E0,5.820903778E-1,8.580608368E-1
2.491480296E1,7.788878679E-1,3.737754822E-1,5.536334515E-1
2.493269590E1,4.106056690E-2,-4.893302917E-3,1.794767380E-1
2.495059037E1,-3.572905660E-1,-5.900468826E-1,-5.545258522E-2
2.496848539E1,-3.405797482E-1,-1.370182991E0,-5.963363647E-1
2.498637956E1,5.232864618E-2,-2.112331390E0,-1.978975534E0
2.500428471E1,8.384906650E-1,-2.491699219E0,-4.562667847E0
2.502216453E1,2.246793270E0,-1.908492088E0,-6.987094879E0
2.504006108E1,3.457451344E0,-1.409529686E0,-6.552863121E0
2.505796098E1,4.225913048E0,-1.665412903E0,-4.139065742E0
2.507584983E1,4.639585495E0,-2.392960548E0,-2.115848303E0
2.509374876E1,4.003708839E0,-2.572177887E0,-1.297458410E0
2.511164158E1,1.916045904E0,-1.390365601E0,-1.039909840E0
2.512953556E1,7.553548813E-1,-1.231900215E0,-2.523354530E0
2.514742997E1,-7.789583802E-1,-9.608182907E-1,-2.436023712E0
2.516532518E1,-1.491339445E0,-2.850637436E-1,-1.235469580E0
2.518321745E1,-1.494275570E0,-4.907217026E-1,7.720887661E-2
2.520110972E1,-2.038223267E0,-1.428363800E0,7.493234873E-1
2.521900389E1,-1.600355387E0,-2.219985008E0,1.369514823E0
2.523690037E1,-9.649050832E-1,-1.717782974E0,2.602356911E0
2.525479624E1,-1.199716330E-1,-6.554107666E-1,3.209838152E0
2.527268638E1,9.367607832E-1,-1.263704300E-1,2.971871614E0
2.529058342E1,1.345187664E0,-1.079355240E0,8.446881771E-1
2.530847721E1,2.578194141E-1,-1.432286263E0,7.178578973E-1
2.532636961E1,-3.620518446E-1,-6.241483688E-1,2.310950756E-1
2.534426585E1,-1.082546473E0,6.189088821E-1,6.172157526E-1
2.536216117E1,-1.524788976E0,1.309559822E0,1.499784708E0
2.538005192E1,-1.806746721E0,1.508755684E0,1.788332224E0
2.539794773E1,-1.984525204E0,1.393662453E0,1.932635427E0
2.541584239E1,-1.887396812E0,1.354704857E0,2.053434372E0
2.543373393E1,-1.733253241E0,1.278137684E0,2.101031303E0
2.545163072E1,-1.785815477E0,1.422636986E0,1.851245642E0
2.546952525E1,-1.870420337E0,1.566148758E0,1.727147937E0
2.548741990E1,-1.963900685E0,1.830841064E0,1.981775880E0
2.550531510E1,-2.169237137E0,2.118016720E0,1.839461923E0
2.552320915E1,-2.274242878E0,2.035885811E0,1.319442749E0
2.554110044E1,-2.009598494E0,1.765420437E0,3.425309658E-1
2.555899736E1,-1.519446254E0,1.529057503E0,-9.000203609E-1
2.557690055E1,-9.345197678E-1,1.023089886E0,-1.619490385E0
2.559479484E1,2.068989277E-1,7.609052658E-1,-2.124557018E0
2.561268895E1,1.914508581E0,7.508563995E-1,-2.512537956E0
2.563058574E1,3.507323265E0,1.180715561E-1,-2.910033941E0
2.564847770E1,4.349072456E0,-9.493761063E-1,-3.197968721E0
2.566637181E1,3.347151995E0,-1.325380325E0,-2.923617125E0
2.568426609E1,1.620590448E0,-1.753044128E-2,-1.846554279E0
2.570216343E1,1.185715914E0,1.754129887E0,-9.218399525E-1
2.572004270E1,2.040358067E0,1.349321842E0,-1.072365046E0
2.573794602E1,1.482640505E0,-2.876056671E0,9.859383106E-1
2.575583323E1,4.255821705E-1,-6.763751030E0,1.995064497E0
2.577373051E1,-9.821131229E-1,-7.836193085E0,5.856852531E-1
2.579163157E1,-2.901830196E0,-3.632615089E0,1.273287773E0
2.580952586E1,-4.730425358E0,9.105625153E-1,8.365656137E-1
2.582741990E1,-5.283249855E0,2.718644142E0,2.744584560E0
2.584530296E1,-4.293983459E0,2.392870903E0,3.425726652E0
2.586320848E1,-3.116729975E0,1.007295609E0,3.927058220E0
2.588108805E1,-2.044633865E0,-6.685247421E-1,4.381556034E0
2.589898661E1,-1.163109779E0,-1.976922035E0,4.355479240E0
2.591689439E1,-4.930149317E-1,-1.904876709E0,3.891760349E0
2.593478562E1,1.949981451E-1,-8.396911621E-1,2.606407642E0
2.595267985E1,1.386775017E0,4.680118561E-1,1.568956971E-1
2.597057414E1,1.685795307E0,1.334606171E0,-1.941087246E0
2.598846842E1,1.291477323E0,1.336345673E0,-1.438332796E0
2.600636253E1,1.325718045E0,9.583578110E-1,-9.654294252E-1
2.602425682E1,1.375700235E0,8.656749725E-1,-1.487999797E0
2.604215141E1,1.650407791E0,3.759622574E-1,-1.958462358E0
2.606003929E1,1.758381724E0,3.474140167E-2,-1.750550151E0
2.607793968E1,1.145230532E0,9.362792969E-2,-9.791758060E-1
2.609583500E1,9.257853627E-1,5.409603119E-1,-1.612573266E-1
2.611372825E1,6.957719922E-1,1.047255516E0,2.078541517E-1
2.613162229E1,7.638475895E-1,1.369443893E0,1.825875044E-1
2.614951658E1,8.964570165E-1,1.169935226E0,2.774561644E-1
2.616741087E1,9.193980098E-1,9.824190140E-1,2.410454750E-1
2.618530522E1,5.548529029E-1,8.816013336E-1,1.165158749E-1
2.620319950E1,6.303933859E-1,2.701959610E-1,-1.189084053E-1
2.622109672E1,6.826199293E-1,-1.350631714E-1,-6.524093151E-1
2.623897587E1,8.993878365E-1,-5.116205215E-1,-1.501147985E0
2.625688926E1,1.173922300E0,-1.008761406E0,-2.463820934E0
2.627477635E1,1.423683524E0,-1.509551048E0,-3.691996336E0
2.629267063E1,1.690312266E0,-1.666390419E0,-5.213014126E0
2.631056492E1,2.189800739E0,-1.922945023E0,-5.978293419E0
2.632845915E1,2.522388220E0,-2.602770805E0,-5.448819160E0
2.634635343E1,2.470177174E0,-3.294435501E0,-4.754850388E0
2.636424778E1,2.736215353E0,-4.532734871E0,-3.747415304E0
2.638213011E1,3.049726486E0,-4.853602409E0,-2.544460297E0
2.640003953E1,2.682265282E0,-3.562755585E0,-1.806486845E0
2.641792741E1,1.745448232E0,-1.500590324E0,-1.014340758E0
2.643582469E1,9.257808328E-1,6.728649139E-2,-1.065478325E0
2.645371897E1,-1.237032413E0,2.278308868E-1,-1.266855836E0
2.647161296E1,-2.542028904E0,-1.269476891E0,3.505659699E-1
2.648950749E1,-2.394829273E0,-3.138449669E0,2.586356640E0
2.650739988E1,-1.492681384E0,-4.200865746E0,4.079620361E0
2.652529582E1,-1.389804840E0,-3.423586845E0,4.945968628E0
2.654319017E1,-1.189446568E0,-2.575425148E0,3.738513947E0
2.656108470E1,-6.730851531E-1,-1.764537811E0,2.188941479E0
2.657896983E1,-4.732451439E-1,-7.741613388E-1,1.023678780E0
2.659687602E1,-4.351936579E-1,4.411611557E-1,8.844941258E-1
2.661476731E1,-2.766232491E-1,1.096789360E0,9.426857233E-1
2.663266154E1,-1.201596379E0,1.616123199E0,2.292291403E0
2.665055589E1,-1.455691338E0,2.092178345E0,3.173193455E0
2.666844993E1,-1.139569402E0,3.133605003E0,3.405992746E0
2.668634434E1,-1.241075397E0,2.197461605E0,3.340810061E0
2.670423851E1,-1.450022936E0,1.353877544E0,2.841514826E0
2.672213304E1,-1.771559358E0,1.853153706E0,2.369993448E0
2.674000950E1,-2.455868721E0,2.370751381E0,2.686704636E0
2.675791844E1,-2.965601921E0,2.709179878E0,3.180500746E0
2.677581535E1,-3.332008123E0,3.072017670E0,3.079638481E0
2.679370689E1,-3.600070953E0,3.147975445E0,2.739315033E0
2.681160417E1,-3.291265965E0,2.776058674E0,1.766380548E0
2.682949827E1,-1.846379876E0,1.520886421E0,5.595412254E-1
2.684739225E1,1.097247601E-1,3.631362915E-1,-1.830635548E0
2.686528684E1,2.335853100E0,-7.800760269E-1,-5.086106777E0
2.688318400E1,5.151638031E0,-2.394981384E0,-7.483733654E0
2.690107566E1,5.789329529E0,-3.145495415E0,-5.817527294E0
2.691895469E1,5.902460575E0,-1.594485283E0,-2.968290567E0
2.693686668E1,4.167765617E0,1.096098423E0,-2.109580040E-1
2.695475798E1,2.488612413E0,3.387815952E0,2.368606806E0
2.697265232E1,9.182169437E-1,2.069770813E0,4.692780495E0
2.699054618E1,4.644861221E-1,-5.635085106E0,4.681833744E0
2.700842881E1,3.289966583E-1,-1.275527954E1,2.157366276E0
2.702633525E1,3.581789494E0,-1.141349411E1,-8.988641739E0
2.704422917E1,-3.946926355E0,-1.810442924E0,-4.009617805E0
2.706212376E1,-7.182264805E0,4.221143246E0,-7.211065292E-2
2.708000944E1,-7.075443268E0,5.534728527E0,3.518689632E0
2.709789988E1,-5.307368279E0,4.158762932E0,4.386096001E0
2.711580638E1,-3.977883339E0,1.764445305E0,4.499216080E0
2.713370060E1,-2.806549549E0,-7.857456207E-1,4.710967064E0
2.715159495E1,-1.114399195E0,-3.081835747E0,4.887304306E0
2.716948899E1,3.051781654E-2,-2.957262993E0,4.015763283E0
2.718738346E1,5.658838153E-1,-1.096196175E0,3.021334648E0
2.720527751E1,3.725744486E-1,1.029809952E0,2.278432846E0
2.722316935E1,2.772229314E-1,2.372872829E0,1.668792248E0
2.724106639E1,7.167180777E-1,2.795075893E0,1.380633116E0
2.725894712E1,1.129094362E0,2.663943768E0,8.767926097E-1
2.727685771E1,1.978558779E0,1.613533020E0,5.609053373E-1
2.729474974E1,1.933874607E0,4.081563950E-1,-4.093938470E-1
2.731264305E1,8.260574937E-1,-7.112779617E-1,-2.359973431E0
2.733053739E1,6.771901846E-1,-6.536693573E-1,-3.611851454E0
2.734843260E1,4.408492744E-1,-2.016792297E-1,-2.847716570E0
2.736632585E1,1.358344257E-1,1.289911270E-1,-1.667586565E0
2.738422361E1,4.548705220E-1,1.862020493E-1,-6.114588976E-1
2.740210880E1,8.315423727E-1,7.840156555E-2,-2.665652037E-1
2.742000236E1,9.195374250E-1,-6.012248993E-2,-5.113781691E-1
2.743790006E1,1.139587164E0,1.238975525E-1,-1.017287731E0
2.745579728E1,1.173359513E0,4.969167709E-1,-1.877240539E0
2.747369157E1,1.469204187E0,3.351297379E-1,-2.838636875E0
2.749158586E1,1.858361125E0,-2.777652740E-1,-4.033400536E0
2.750946769E1,2.937141657E0,-1.368687630E0,-5.042327881E0
2.752737449E1,3.599739552E0,-1.790807724E0,-5.216059685E0
2.754525694E1,3.748539686E0,-1.912139893E0,-4.777355671E0
2.756315202E1,3.785866022E0,-2.627258301E0,-4.192113400E0
2.758104484E1,4.031356812E0,-4.476609230E0,-3.024752617E0
2.759893968E1,3.067124367E0,-4.855081558E0,-1.976920724E0
2.761683549E1,1.909977078E0,-3.161163330E0,-1.426442146E0
2.763472898E1,-4.780117273E-1,-1.574966431E0,-1.125165462E0
2.765262345E1,-2.363280296E0,-1.847400665E0,-1.727705479E0
2.767051634E1,-2.618362188E0,-2.616631508E0,7.254717350E-1
2.768842582E1,-1.336766958E0,-3.067191124E0,4.326060295E0
2.770631687E1,-1.919300795E0,-3.528069496E0,5.295299053E0
2.772421116E1,-2.626327753E0,-3.742069244E0,4.537591934E0
2.774210569E1,-1.928325772E0,-3.246637344E0,3.028345108E0
2.776000041E1,-8.404110670E-1,-1.939606667E0,1.279898167E0
2.777789103E1,-6.143701077E-2,-9.726047516E-2,5.860624313E-1
2.779578801E1,6.623268127E-4,1.680980682E0,1.005716920E0
2.781368266E1,4.598928690E-1,2.548637390E0,2.001396894E0
2.783157658E1,2.455661297E-1,2.782852650E0,3.239699841E0
2.784947099E1,-8.097141981E-1,2.736248970E0,3.424614668E0
2.786736521E1,-1.550743222E0,2.776043892E0,3.412387371E0
2.788526231E1,-1.841295958E0,2.743710995E0,3.227491856E0
2.790315379E1,-1.557359219E0,2.275421143E0,3.051771641E0
2.792103605E1,-2.130111694E0,1.943861008E0,2.543262005E0
2.793892997E1,-2.877846956E0,1.967239380E0,2.320647717E0
2.795683866E1,-3.690127134E0,2.148468494E0,2.398289204E0
2.797473069E1,-4.449729443E0,2.466010571E0,2.196945190E0
2.799262522E1,-4.871520519E0,2.584611416E0,1.910687327E0
2.801051951E1,-4.374754906E0,2.132244110E0,1.414602160E0
2.802841349E1,-2.788397789E0,1.018999100E0,2.218823433E-1
2.804630772E1,-7.067253590E-1,-1.820278168E-1,-2.962235928E0
2.806420213E1,4.129331589E0,-2.165258408E0,-7.298635483E0
2.808209635E1,7.290436268E0,-4.896712303E0,-8.074934006E0
2.809997606E1,8.042230606E0,-4.078016281E0,-4.857451439E0
2.811788194E1,5.641889572E0,-4.981594086E-1,-1.758579016E0
2.813577903E1,2.236256123E0,2.070072174E0,1.870863438E0
2.815367326E1,6.858565807E-1,-2.311582565E-1,4.463657379E0
2.817156657E1,1.064265490E0,-5.731284142E0,4.907257080E0
2.818946183E1,-2.117207050E-1,-8.242304802E0,4.032817841E0
2.820735661E1,-1.304699302E0,-5.851558685E0,-1.247353315E0
2.822525047E1,-4.806973457E0,-5.306310654E-1,-4.271775723E0
2.824314469E1,-5.528691769E0,2.910755157E0,-2.267818451E0
2.826103935E1,-3.703903198E0,3.239031792E0,1.277379274E0
2.827892436E1,-2.869149685E0,1.803223610E0,2.794786453E0
2.829683110E1,-2.330161095E0,3.890199661E-1,3.230991840E0
2.831472160E1,-1.539595604E0,-3.540468216E-1,4.064001083E0
2.833261595E1,-9.123208523E-1,-6.278867722E-1,4.359016418E0
2.835051017E1,-5.636081696E-1,1.652326584E-1,4.100564957E0
2.836840440E1,-5.830113888E-1,1.129929543E0,2.799842358E0
2.838629881E1,-5.760810375E-1,1.926002026E0,1.701326847E0
2.840419310E1,-2.956545949E-1,2.317445755E0,1.142238855E0
2.842208738E1,-1.132439375E-1,2.282935143E0,7.851487398E-1
2.843998173E1,5.891734362E-2,1.581399918E0,8.653044105E-1
2.845787315E1,7.422450781E-1,1.970939636E-1,7.988011837E-1
2.847576268E1,1.641672134E0,-5.121660233E-1,3.409598470E-1
2.849366722E1,2.042541981E0,-5.513830185E-1,-4.708921313E-1
2.851156034E1,1.340072513E0,-1.570005417E-1,-1.769418240E0
2.852944993E1,9.047401547E-1,5.238580704E-1,-2.968082666E0
2.854734715E1,1.404112697E0,2.988328934E-1,-2.758729458E0
2.856522972E1,1.752722502E0,-3.817796707E-1,-2.042275906E0
2.858312382E1,1.559962392E0,-6.937313080E-1,-1.535199165E0
2.860101817E1,9.188279510E-1,-5.424547195E-1,-1.908324599E0
2.861891264E1,3.368772268E-1,-3.065938950E-1,-2.832357407E0
2.863680894E1,1.299997866E-1,-4.598579407E-1,-3.780817509E0
2.865470298E1,5.403904915E-1,-7.699441910E-1,-4.661711693E0
2.867259617E1,2.257774591E0,-9.100236893E-1,-5.062373161E0
2.869048966E1,3.725005865E0,-1.080006599E0,-4.547989845E0
2.870838218E1,4.635454655E0,-1.234663010E0,-4.132362366E0
2.872628428E1,4.582696438E0,-1.312597275E0,-3.741983891E0
2.874417363E1,4.334838390E0,-2.631928444E0,-2.707721949E0
2.876207115E1,3.872663260E0,-4.194645882E0,-1.240522265E0
2.877996788E1,2.846613407E0,-3.710721970E0,-1.457469344E0
2.879786070E1,7.874879837E-1,-3.592535019E0,-2.001335144E0
2.881575010E1,-1.898627400E0,-3.517457962E0,-3.241761923E-1
2.883364756E1,-2.662435055E0,-3.293043137E0,2.477061272E0
2.885154142E1,-1.926395893E0,-2.687276840E0,4.514094353E0
2.886943327E1,-1.715595484E0,-2.314432144E0,4.342776775E0
2.888732743E1,-1.734442711E0,-1.611689568E0,3.499402285E0
2.890522367E1,-1.188592792E0,-1.923019409E0,2.676015139E0
2.892311833E1,-9.191627502E-1,-2.265434265E0,2.435406446E0
2.894101060E1,-1.418471694E0,-1.590143204E0,1.606150746E0
2.895891447E1,-1.973750710E0,3.338670731E-1,8.271939754E-1
2.897679936E1,-1.406325817E0,1.689590931E0,1.266356587E0
2.899469230E1,-9.355742931E-1,2.780233383E0,3.029567242E0
2.901260112E1,-2.289579630E0,9.825544357E-1,2.587560415E0
2.903047776E1,-2.734843254E0,1.132327080E0,2.150218964E0
2.904838639E1,-2.584290504E0,1.462039948E0,2.779386520E0
2.906628074E1,-1.869969010E0,2.023771763E0,2.981470823E0
2.908415763E1,-1.525679708E0,2.562787056E0,3.142047644E0
2.910206663E1,-1.488194108E0,2.658054829E0,3.364783525E0
2.911996360E1,-1.781281829E0,2.485160828E0,3.465719938E0
2.913785795E1,-2.103055000E0,2.376388550E0,2.719099045E0
2.915575193E1,-2.316410542E0,2.415201187E0,1.710511684E0
2.917364622E1,-2.313005447E0,2.153481960E0,1.034719467E0
2.919154045E1,-1.460279346E0,1.746561050E0,4.674129486E-1
2.920943498E1,5.575983524E-1,1.466324806E0,-5.588734150E-1
2.922732963E1,2.870473623E0,6.805152893E-1,-1.849615335E0
2.924522337E1,5.108533859E0,-1.371834755E0,-3.872639656E0
2.926311766E1,5.575402260E0,-4.003143311E0,-5.525691509E0
2.928101213E1,4.480611324E0,-3.357215881E0,-3.861699581E0
2.929889469E1,3.886544704E0,-1.155195236E-1,-1.303516626E0
2.931680131E1,2.825754404E0,2.503934860E0,4.288196564E-1
2.933469181E1,2.286158562E0,3.093601227E0,1.003376961E0
2.935258909E1,1.968375206E0,-5.680465698E-1,2.137273312E0
2.937048332E1,6.666107178E-1,-5.691971779E0,2.605137825E0
2.938837736E1,7.166271210E-1,-8.163560867E0,6.718325615E-2
2.940627189E1,7.150888443E-2,-5.945384026E0,-2.933877468E0
2.942416636E1,-3.688965559E0,-3.529539108E-1,-2.491794348E0
2.944206047E1,-6.281390667E0,3.607728958E0,-4.945403337E-1
2.945995481E1,-6.264118195E0,3.690535545E0,2.390303850E0
2.947784886E1,-4.150089264E0,2.163159847E0,3.657600403E0
2.949574308E1,-2.872745752E0,-5.144309998E-2,4.123800278E0
2.951363774E1,-2.090082407E0,-2.052935600E0,3.930404425E0
2.953152000E1,-1.359436750E0,-3.067521095E0,3.694047451E0
2.954942600E1,-7.945045829E-1,-2.136445045E0,3.397531509E0
2.956732292E1,-7.222549319E-1,-1.612815857E-1,2.948667526E0
2.958521427E1,-8.694507480E-1,1.505805969E0,2.144530773E0
2.960309416E1,-3.311483860E-1,2.734596729E0,1.570166349E0
2.962100364E1,-8.274114132E-2,2.999617577E0,1.042833447E0
2.963888743E1,-2.609607577E-1,2.288567543E0,7.006534934E-1
2.965679026E1,-2.138308287E-1,5.611925125E-1,2.529867291E-1
2.967468876E1,6.270484924E-1,-6.195487976E-1,-6.132349372E-2
2.969258000E1,1.025094509E0,-7.038536072E-1,-6.379158497E-1
2.971047434E1,1.400058627E0,5.143642426E-2,-1.059143066E0
2.972836845E1,1.428022623E0,7.439250946E-1,-1.082879186E0
2.974626158E1,1.637140274E0,9.534978867E-1,-8.419094086E-1
2.976415721E1,1.814959288E0,5.438375473E-1,-7.179774046E-1
2.978205168E1,1.779710054E0,2.563047409E-1,-7.348963022E-1
2.979994578E1,1.541111231E0,1.437387466E-1,-9.710608125E-1
2.981783915E1,8.165916800E-1,-2.189960480E-1,-1.305238366E0
2.983572123E1,6.954729557E-2,-5.540122986E-1,-2.126518726E0
2.985362840E1,-2.329256833E-1,-6.262502670E-1,-3.058145523E0
2.987151798E1,2.904888391E-1,-7.747631073E-1,-3.820483685E0
2.988941697E1,1.438273311E0,-1.002656937E0,-4.251644135E0
2.990731419E1,2.737044334E0,-8.570594788E-1,-4.213730335E0
2.992520579E1,3.637585640E0,-8.210039139E-1,-3.962566614E0
2.994309983E1,4.114949703E0,-1.288326263E0,-3.715381145E0
2.996099436E1,3.684944630E0,-1.940817833E0,-3.177527428E0
2.997887352E1,3.350901604E0,-3.226743698E0,-2.258522272E0
2.999678349E1,2.044348478E0,-3.594687462E0,-1.081048965E0
3.001467692E1,1.288626671E0,-2.558149338E0,-1.478244066E-1
3.003257133E1,1.842380166E-1,-2.018508911E0,-1.078889251E0
3.005046550E1,-1.494382024E0,-1.528547287E0,-1.459066391E0
3.006835984E1,-2.226339340E0,-1.819031715E0,-2.628408074E-1
3.008625383E1,-2.446387768E0,-1.438519478E0,2.738230705E0
3.010413682E1,-1.553844213E0,-1.503352165E0,3.436835289E0
3.012204557E1,-7.316054106E-1,-1.494737625E0,2.856946945E0
3.013993681E1,2.418648005E-1,-1.716043472E0,2.369336843E0
3.015782829E1,3.054277897E-1,-2.021085739E0,2.983827829E0
3.017572532E1,1.958569288E-1,-1.868273735E0,2.874147177E0
3.019361961E1,3.493499756E-2,-1.127974510E0,1.723509789E0
3.021151384E1,-4.786431789E-1,-5.025978088E-1,7.840385437E-1
3.022940812E1,-9.426498413E-1,5.844259262E-1,9.030737877E-1
3.024730216E1,-1.333627820E0,1.537929535E0,1.409452796E0
3.026519682E1,-1.955392838E0,1.873929501E0,2.223484993E0
3.028309080E1,-2.012939930E0,1.944623470E0,2.738260746E0
3.030097337E1,-2.071459770E0,1.611686707E0,2.978848934E0
3.031887461E1,-2.464867592E0,1.125411034E0,2.813310146E0
3.033677366E1,-2.502038479E0,1.282323837E0,2.706399441E0
3.035466795E1,-2.630807877E0,1.658637047E0,2.635509968E0
3.037256224E1,-2.977041245E0,1.836927891E0,2.513081312E0
3.039045677E1,-2.806256294E0,1.804406166E0,2.186195850E0
3.040835081E1,-2.691988230E0,1.832049370E0,1.414481163E0
3.042624534E1,-2.122063637E0,1.929213524E0,4.638788700E-1
3.044414054E1,-9.753124714E-1,1.770480156E0,1.822197437E-1
3.046203392E1,3.146424294E-1,1.042766571E0,-1.018922329E-1
3.047992802E1,1.810774326E0,-1.588926315E-1,-8.549225330E-1
3.049782218E1,3.204555511E0,-1.182703018E0,-2.220355272E0
3.051571653E1,3.719896793E0,-1.688141823E0,-3.661602020E0
3.053361357E1,3.005941391E0,-1.328895569E0,-4.381535530E0
3.055150370E1,2.453377485E0,3.558635712E-2,-2.171373606E0
3.056940220E1,2.308444977E0,1.519069195E0,6.250982285E-1
3.058729350E1,2.786740780E0,1.625803947E0,1.748377919E0
3.060518205E1,3.702677727E0,-7.905712128E-1,2.905230522E-1
3.062308195E1,2.945550680E0,-4.425050735E0,-1.531038165E0
3.064097630E1,9.429035187E-1,-6.269153595E0,-6.173831224E-1
3.065885911E1,-1.179162264E0,-4.299506187E0,8.657145500E-1
3.067676512E1,-2.989062309E0,-1.497953415E0,1.469917774E0
3.069466294E1,-3.412281990E0,6.790351868E-1,9.945238233E-1
3.071255345E1,-3.680506945E0,2.340662003E0,1.442087531E0
3.073043278E1,-3.333999634E0,2.330761433E0,2.511865377E0
3.074834196E1,-3.102427483E0,1.274801254E0,3.171257973E0
3.076623661E1,-2.832754135E0,-2.607679367E-1,3.089681864E0
3.078413060E1,-2.282875776E0,-1.865227699E0,2.750677824E0
3.080202507E1,-1.096447945E0,-2.359191895E0,1.806748867E0
3.081991893E1,7.876193523E-2,-1.410471916E0,4.756175876E-1
3.083780186E1,-2.683109045E-1,-4.777698517E-1,4.277270436E-1
3.085569590E1,-7.326366901E-1,-4.787445068E-4,1.388348341E0
3.087358995E1,-4.451045990E-1,5.261745453E-1,1.746989250E0
3.089149925E1,8.847403526E-2,6.198587418E-1,1.633889914E0
3.090939030E1,3.749036789E-2,5.487508774E-1,1.478992820E0
3.092728465E1,-7.036995888E-2,2.714138031E-1,1.277012110E0
3.094516722E1,-1.313253641E-1,5.599117279E-2,1.003305197E0
3.096306169E1,-1.201894283E-1,1.090497971E-1,6.681509018E-1
3.098095683E1,-2.045676708E-1,1.612768173E-1,6.955938339E-1
3.099885063E1,-1.930118799E-1,-1.468982697E-1,7.264463902E-1
3.101674467E1,-1.928437948E-1,-4.494075775E-1,5.716353655E-1
3.103463951E1,-1.949194670E-1,-2.266149521E-1,2.359098494E-1
3.105253398E1,-2.108130455E-1,1.078176498E-1,4.524827003E-3
3.107042778E1,-1.392656565E-1,2.726917267E-1,-4.543551207E-1
3.108832145E1,7.841241360E-2,1.501655579E-2,-1.093697429E0
3.110622758E1,2.007021904E-1,-4.936151505E-1,-1.372629523E0
3.112412156E1,1.243056059E-1,-6.241827011E-1,-1.022902727E0
3.114201609E1,-1.463310719E-1,-4.032926559E-1,-4.483481944E-1
3.115991020E1,-4.641135931E-1,-2.409410477E-1,-1.009032279E-1
3.117780369E1,-6.663952470E-1,-2.753143311E-1,4.860600829E-2
3.119569871E1,-8.349242806E-1,-2.805805206E-2,-3.070354462E-2
3.121359324E1,-8.331517577E-1,1.256008148E-1,2.299329638E-2
3.123148722E1,-6.756148338E-1,8.091831207E-2,1.019335687E-1
3.124938151E1,-3.130391836E-1,-7.638931274E-2,2.517948151E-1
3.126727500E1,6.727302074E-2,-6.255054474E-2,3.231663108E-1
3.128517021E1,3.863306046E-1,5.869960785E-2,3.693001270E-1
3.130306419E1,6.165252924E-1,1.158332825E-1,4.183291495E-1
3.132094706E1,7.501065731E-1,2.723999023E-1,4.952268004E-1
3.133884153E1,7.610685825E-1,5.058841705E-1,5.381134152E-1
3.135674357E1,6.664421558E-1,5.554733276E-1,5.166341066E-1
3.137464134E1,4.285154343E-1,4.616708755E-1,4.818288684E-1
3.139253318E1,6.893110275E-2,3.109750748E-1,4.607055187E-1
3.141042991E1,-1.110459566E-1,6.645488739E-2,4.202982783E-1
3.142832414E1,-1.985391974E-1,-6.336021423E-2,2.904508114E-1
3.144622166E1,-3.012352586E-1,-1.351766586E-1,1.166137457E-1
3.146411302E1,-3.504429460E-1,-1.087207794E-1,-7.884210348E-2
3.148200303E1,-1.536812782E-1,4.645633698E-2,-2.863516808E-1
3.149990141E1,1.424224377E-1,1.169013977E-1,-3.391225934E-1
3.151780046E1,3.462719917E-1,-7.190418243E-2,-2.773479223E-1
3.153569017E1,4.079987407E-1,-2.350664139E-1,-3.238881826E-1
3.155358421E1,3.342599273E-1,-9.476089478E-2,-4.571397007E-1
3.157147843E1,1.686099172E-1,8.638954163E-2,-4.644978642E-1
3.158937278E1,2.249407768E-2,9.725570679E-2,-3.696770072E-1
3.160727006E1,1.256371737E-1,-6.460952759E-2,-1.767840385E-1
3.162516081E1,3.613666296E-1,-1.096191406E-1,-3.676891327E-3
3.164305857E1,4.451698661E-1,-1.719760895E-2,1.229929328E-1
3.166095018E1,3.590891957E-1,1.282033920E-1,1.959061623E-1
3.167883250E1,1.504403949E-1,1.274204254E-1,2.408646941E-1
3.169674021E1,-7.173460722E-2,6.177806854E-2,2.494392395E-1
3.171463273E1,-3.417955041E-1,-4.693984985E-2,1.785692573E-1
3.173252983E1,-5.071089268E-1,-6.515407562E-2,1.931440830E-2
3.175042112E1,-4.700237513E-1,-1.197271347E-1,-1.414331794E-1
3.176832127E1,-3.316113353E-1,-1.308279037E-1,-2.606928945E-1
3.178620994E1,-1.305609345E-1,-2.912139893E-2,-3.646477461E-1
3.180410405E1,-1.644861698E-2,6.673145294E-2,-3.754239082E-1
3.182199852E1,1.143679023E-1,7.458686829E-2,-2.583390474E-1
3.183989280E1,2.054232359E-1,-1.731872559E-3,-1.321632862E-1
3.185778300E1,3.283551931E-1,-9.920787811E-2,1.683259010E-2
3.187568113E1,4.546723366E-1,-1.474561691E-1,1.599711180E-1
3.189356504E1,4.298564196E-1,2.984619141E-2,1.695502996E-1
3.191146971E1,3.091967106E-1,2.155809402E-1,9.817278385E-2
3.192936399E1,1.646614671E-1,1.813163757E-1,8.993196487E-2
3.194726097E1,-3.249776363E-2,3.506755829E-2,1.244642735E-1
3.196513792E1,-1.562808156E-1,2.126598358E-2,1.412872076E-1
3.198303520E1,-2.449505329E-1,2.919197083E-3,1.573034525E-1
3.200093339E1,-1.870161295E-1,-1.094646454E-1,1.567628384E-1
3.201883012E1,-2.376240492E-2,-7.016754150E-2,6.176710129E-2
3.203672929E1,1.611505747E-1,7.999038696E-2,-6.758701801E-2
3.205462394E1,2.894776464E-1,1.540861130E-1,-1.353881359E-1
3.207251829E1,3.221662641E-1,9.835052490E-2,-1.887331009E-1
3.209041233E1,3.152744174E-1,-1.846313477E-3,-2.861904502E-1
3.210829075E1,3.315351009E-1,-6.961536407E-2,-3.892599940E-1
3.212618956E1,3.513298035E-1,-1.164093018E-1,-4.012726545E-1
3.214408427E1,3.116117716E-1,-1.082382202E-1,-4.250206947E-1
3.216197959E1,2.691549063E-1,-5.283641815E-2,-4.935209751E-1
3.217987113E1,2.238239050E-1,6.565093994E-3,-5.257936716E-1
3.219776640E1,1.924298406E-1,5.211925507E-2,-4.089246392E-1
3.221566343E1,1.505736709E-1,4.777717590E-2,-2.778528929E-1
3.223355870E1,1.535291672E-1,2.067470551E-2,-1.811516881E-1
3.225145292E1,1.871899962E-1,2.592372894E-2,-9.464246035E-2
3.226934501E1,1.685694456E-1,4.330825806E-2,-5.619227886E-2
3.228724668E1,1.183633804E-1,5.441284180E-2,-5.128073692E-2
3.230513389E1,6.646877527E-2,4.669952393E-2,-4.381895065E-3
3.232302891E1,4.614204168E-2,1.209640503E-2,2.604067326E-2
3.234093003E1,7.293450832E-2,-7.533073425E-3,-1.683878899E-2
3.235881907E1,1.051005721E-1,2.508831024E-2,-8.099126816E-2
3.237671586E1,1.291562319E-1,4.947376251E-2,-8.845621347E-2
3.239460514E1,1.385160089E-1,-5.919456482E-3,-1.122831106E-1
3.241249906E1,1.233513355E-1,-3.190326691E-2,-1.878117323E-1
3.243039219E1,1.537954807E-1,-1.563549042E-2,-2.373006344E-1
3.244829045E1,1.619456410E-1,1.903533936E-3,-2.044126987E-1
3.246618357E1,1.217477322E-1,4.264259338E-2,-2.115477920E-1
3.248407731E1,7.891380787E-2,-4.336643219E-2,-2.407820225E-1
3.250197593E1,8.734184504E-2,-1.064834595E-1,-2.206951976E-1
3.251987815E1,1.592444181E-1,-8.471488953E-3,-1.529517174E-1
3.253777189E1,2.957885861E-1,1.652364731E-1,-1.353635788E-1
3.255566081E1,3.866471648E-1,1.776018143E-1,-1.024422646E-1
3.257355808E1,4.188900590E-1,1.699161530E-2,-1.876235008E-2
3.259145231E1,3.458932638E-1,-1.058425903E-1,-1.479840279E-2
3.260934971E1,1.897383332E-1,-5.788803101E-4,-1.144213676E-1
3.262724088E1,3.882777691E-2,1.087846756E-1,-1.763323545E-1
3.264512290E1,2.152383327E-2,7.742023468E-2,-1.699181199E-1
3.266302928E1,9.157258272E-2,5.361080170E-2,-1.217204928E-1
3.268092027E1,1.368414164E-1,4.391670227E-3,-6.320059299E-2
3.269881785E1,1.667348742E-1,-2.426242828E-2,-9.413778782E-2
3.271670921E1,1.675475836E-1,-2.149200439E-2,-1.973900199E-1
3.273460673E1,1.229396462E-1,2.483367920E-3,-2.561524510E-1
3.275250096E1,9.116029739E-2,6.264305115E-2,-2.392160892E-1
3.277039524E1,1.084321737E-1,8.183765411E-2,-2.248230577E-1
3.278828947E1,1.586719155E-1,3.258228302E-2,-1.894469857E-1
3.280618382E1,1.924397349E-1,-2.561187744E-2,-1.527599692E-1
3.282407811E1,1.520115733E-1,-2.588272095E-3,-1.720766425E-1
3.284197258E1,8.298528194E-2,3.808689117E-2,-1.782197952E-1
3.285986692E1,6.195163727E-2,3.201389313E-2,-1.113191247E-1
3.287776103E1,7.418113947E-2,6.546974182E-3,-4.265141487E-2
3.289565525E1,9.285736084E-2,6.970405579E-3,-4.713636637E-2
3.291354960E1,9.982961416E-2,3.170967102E-2,-9.890663624E-2
3.293143602E1,9.950768948E-2,2.645206451E-2,-1.142383814E-1
3.294933811E1,9.819889069E-2,-5.122184753E-3,-1.312397718E-1
3.296723240E1,1.028772593E-1,-1.739215851E-2,-1.853523254E-1
3.298513108E1,7.007735968E-2,-1.467704773E-2,-2.499569058E-1
3.300302098E1,1.551091671E-2,-2.379417419E-3,-2.704313397E-1
3.302091545E1,-1.345068216E-2,2.077293396E-2,-2.595086098E-1
3.303879924E1,-2.759683132E-2,-5.027770996E-3,-2.244008780E-1
3.305669175E1,-2.631795406E-2,-3.777122498E-2,-1.882410049E-1
3.307459812E1,1.018673182E-2,-9.245872498E-3,-1.623815298E-1
3.309249247E1,5.045884848E-2,1.904964447E-2,-1.321964264E-1
3.311038658E1,5.406737328E-2,4.362106323E-3,-1.159877181E-1
3.312828074E1,6.483036280E-2,-7.189750671E-3,-6.729912758E-2
3.314617527E1,1.173400283E-1,4.107379913E-2,-6.680673361E-2
3.316406950E1,1.707805395E-1,4.590797424E-2,-6.878244877E-2
3.318195164E1,2.156003118E-1,7.857131958E-2,-1.096589565E-1
3.319985807E1,2.581788898E-1,5.316925049E-2,-1.119008660E-1
3.321775248E1,2.635380626E-1,-6.399154663E-4,-1.224307418E-1
3.323564671E1,2.024112940E-1,2.579689026E-2,-1.231324077E-1
3.325354100E1,9.553247690E-2,5.629825592E-2,-8.183252811E-2
3.327143504E1,1.960140467E-2,2.205181122E-2,-8.610761166E-2
3.328932957E1,3.494501114E-2,1.559162140E-2,-9.465062618E-2
3.330722117E1,1.273005605E-1,6.848621368E-2,-7.247829437E-2
3.332511814E1,1.737172604E-1,5.543327332E-2,-5.731785297E-2
3.334301268E1,1.489618421E-1,2.914047241E-2,-7.826864719E-2
3.336090666E1,1.147630811E-1,-1.582813263E-2,-1.064000726E-1
3.337878959E1,1.078032255E-1,-1.201725006E-2,-1.703012586E-1
3.339669541E1,1.393814683E-1,-9.487152100E-3,-2.284167409E-1
3.341458958E1,1.808170676E-1,1.633548737E-2,-2.651969790E-1
3.343247288E1,2.513572574E-1,3.262138367E-2,-2.784751654E-1
3.345037803E1,2.880955935E-1,2.300739288E-2,-2.347327471E-1
3.346827238E1,2.772341371E-1,3.733539581E-2,-1.912872195E-1
3.348616630E1,1.886392832E-1,3.493118286E-2,-1.545076966E-1
3.350406102E1,7.463824749E-2,2.237796783E-2,-1.316649914E-1
3.352195854E1,3.074741364E-2,6.728172302E-3,-1.119641066E-1
3.353984684E1,2.234613895E-2,1.361656189E-2,-1.055155396E-1
3.355774388E1,8.777737617E-3,3.877353668E-2,-9.219807386E-2
3.357563810E1,1.208901405E-2,5.879497528E-2,-7.994884253E-2
3.359352952E1,1.577711105E-2,-1.170349121E-2,-8.873564005E-2
3.361142698E1,2.805233002E-3,-4.134178162E-2,-1.385540962E-1
3.362932127E1,-8.105933666E-3,-5.106925964E-3,-1.863481998E-1
3.364721556E1,1.448792219E-2,4.332733154E-2,-2.087958455E-1
3.366510960E1,6.676906347E-2,3.853893280E-2,-2.080588937E-1
3.368300413E1,9.307044744E-2,-2.969837189E-2,-1.851059198E-1
3.370089842E1,1.110752225E-1,-7.472610474E-2,-1.685844660E-1
3.371878782E1,1.347611547E-1,-2.628135681E-2,-1.751678586E-1
3.373668370E1,1.491284966E-1,3.001022339E-2,-1.680359244E-1
3.375458128E1,1.216447949E-1,7.691383362E-2,-1.407075524E-1
3.377247538E1,1.467762589E-1,7.790374756E-2,-1.132221222E-1
3.379036979E1,2.037153840E-1,3.348541260E-2,-1.156294942E-1
3.380826384E1,2.540217042E-1,5.812358856E-2,-1.428464651E-1
3.382615849E1,2.581291199E-1,9.666633606E-2,-1.376966238E-1
3.384405241E1,2.936650515E-1,5.727672577E-2,-1.260251403E-1
3.386194700E1,2.476273775E-1,3.090381622E-2,-1.103218198E-1
3.387984135E1,1.014316082E-1,2.493762970E-2,-1.136507988E-1
3.389773979E1,-2.738422155E-2,-6.473159790E-2,-1.094319224E-1
3.391562986E1,-6.966382265E-2,-4.934501648E-2,-1.044069529E-1
3.393350944E1,-4.809814692E-2,1.001739502E-2,-5.368661880E-2
3.395141844E1,4.213988781E-2,8.978748322E-2,-2.349734306E-2
3.396931272E1,1.097815037E-1,8.345890045E-2,-3.729939461E-3
3.398721000E1,1.096528172E-1,2.713203430E-2,-1.151120663E-2
3.400510130E1,5.723655224E-2,3.589630127E-3,-3.124397993E-2
3.402299559E1,9.575426579E-3,1.902580261E-3,-4.418289661E-2
3.404089018E1,2.398675680E-2,3.266620636E-2,-1.023826599E-1
3.405878233E1,9.618854523E-2,-2.650070190E-2,-1.164332628E-1
3.407667546E1,1.505286098E-1,-2.874660492E-2,-1.667427421E-1
3.409455845E1,1.744324565E-1,-1.716613770E-2,-2.221753597E-1
3.411246702E1,1.752526164E-1,-4.871368408E-3,-2.132076025E-1
3.413035838E1,1.754629612E-1,2.560997009E-2,-1.761516333E-1
3.414824388E1,1.530559659E-1,3.169345856E-2,-1.430635452E-1
3.416614512E1,1.328206658E-1,-6.392478943E-3,-9.334480762E-2
3.418403208E1,1.173319817E-1,2.168464661E-2,-6.166768074E-2
3.420193864E1,8.882099390E-2,6.322002411E-2,-4.529088736E-2
3.421983268E1,5.413627625E-2,6.244277954E-2,-3.824853897E-2
3.423771647E1,5.412602425E-2,7.874488831E-3,-2.685004473E-2
3.425562126E1,4.316532612E-2,-1.108551025E-2,-3.616678715E-2
3.427351585E1,5.317735672E-2,1.700687408E-2,-7.887822390E-2
3.429141008E1,9.331113100E-2,1.656150818E-2,-1.194468737E-1
3.430930412E1,1.230584979E-1,3.154277802E-2,-1.367205381E-1
3.432719853E1,1.762779355E-1,5.462837219E-2,-1.301789880E-1
3.434508097E1,2.182843089E-1,4.154777527E-2,-1.465995908E-1
3.436298728E1,2.138943076E-1,2.932357788E-2,-1.662613153E-1
3.438088182E1,1.878545880E-1,2.250480652E-2,-1.466703415E-1
3.439876976E1,1.446763873E-1,-1.806831360E-2,-1.131572127E-1
3.441666716E1,1.245464683E-1,-3.098011017E-2,-1.227759123E-1
3.443455284E1,8.821648359E-2,1.692771912E-2,-1.483883858E-1
3.445245042E1,6.457054615E-2,6.147098541E-2,-1.279840469E-1
3.447034092E1,9.994697571E-2,1.463127136E-2,-1.010122299E-1
3.448823741E1,1.479570866E-1,-5.830764771E-3,-1.110354066E-1
3.450613084E1,6.686872244E-2,4.719066620E-2,-9.687846899E-2
3.452403013E1,-2.984714508E-2,3.536033630E-2,-5.395960808E-2
3.454192210E1,-6.971979141E-2,-1.973915100E-2,-6.966215372E-2
3.455981394E1,-1.458042860E-2,-3.623962402E-4,-6.893849373E-2
3.457771140E1,7.548153400E-2,5.308914185E-2,-6.805860996E-2
3.459560685E1,1.530933976E-1,4.166507721E-2,-7.754176855E-2
3.461349644E1,1.834512949E-1,3.871726990E-2,-9.641402960E-2
3.463139158E1,1.765509844E-1,1.766014099E-2,-1.043204665E-1
3.464928520E1,1.201774478E-1,-9.634017944E-3,-9.889036417E-2
3.466717918E1,9.975206852E-2,-4.377460480E-2,-7.952022552E-2
3.468508769E1,1.229271889E-1,4.834938049E-2,-1.051005125E-1
3.470297898E1,1.656004190E-1,7.636356354E-2,-7.700109482E-2
3.472087333E1,1.327721477E-1,4.621505737E-2,-4.062080383E-2
3.473874742E1,6.554013491E-2,4.301929474E-2,-2.412760258E-2
3.475665879E1,2.951097488E-2,-1.951313019E-2,-2.552354336E-2
3.477455613E1,1.793384552E-2,-9.573936462E-3,-7.976400852E-2
3.479244670E1,4.705888033E-2,1.927852631E-2,-1.202955246E-1
3.481034464E1,1.168847084E-1,2.799987793E-2,-1.256546974E-1
3.482823893E1,1.644266844E-1,9.169578552E-3,-1.684383154E-1
3.484613609E1,1.387479901E-1,-5.171775818E-3,-2.036266327E-1
3.486402781E1,7.458382845E-2,-3.900527954E-4,-1.885754466E-1
3.488192210E1,5.412596464E-2,1.086902618E-2,-1.665854454E-1
3.489981639E1,7.838952541E-2,4.320144653E-2,-1.396325231E-1
3.491770872E1,1.287867427E-1,2.519035339E-2,-9.847235680E-2
3.493559031E1,1.411616802E-1,-5.413055420E-3,-7.002472878E-2
3.495349906E1,1.211966276E-1,1.052379608E-2,-1.037029028E-1
3.497139329E1,1.026188135E-1,3.050041199E-2,-1.161646843E-1
3.498928782E1,1.153399348E-1,2.657794952E-2,-1.363394260E-1
3.500718205E1,1.182671189E-1,4.392910004E-2,-1.672175527E-1
3.502507640E1,1.002178192E-1,3.016471863E-3,-1.406763792E-1
3.504296434E1,3.878575563E-2,-4.576015472E-2,-1.095776558E-1
3.506086491E1,-9.192228317E-3,-9.367942810E-3,-9.525454044E-2
3.507876304E1,1.220315695E-2,6.938648224E-2,-8.401823044E-2
3.509665422E1,7.149446011E-2,9.491920471E-2,-3.201782703E-2
3.511454783E1,1.505953670E-1,1.395034790E-2,2.257943153E-3
3.513244212E1,1.435099840E-1,-2.670574188E-2,-9.795308113E-3
3.515033634E1,8.331906796E-2,1.485443115E-2,-3.623193502E-2
3.516823057E1,4.633772373E-2,4.066658020E-2,-8.722829819E-2
3.518612498E1,7.373553514E-2,9.198188782E-3,-1.387785077E-1
3.520401921E1,1.629169583E-1,3.633499146E-4,-1.439418793E-1
3.522191355E1,2.129750848E-1,2.699851990E-2,-1.706276536E-1
3.523980516E1,1.911391616E-1,4.084300995E-2,-1.598154306E-1
3.525770341E1,1.513851285E-1,2.994918823E-2,-1.542683840E-1
3.527559666E1,1.292610765E-1,7.815361023E-3,-1.000417471E-1
3.529349089E1,1.356450319E-1,-3.054618835E-2,-6.871831417E-2
3.531138499E1,1.341851950E-1,1.897335052E-2,-7.796722651E-2
3.532927928E1,1.212136745E-1,7.637023926E-3,-9.238380194E-2
3.534717680E1,7.302099466E-2,-3.982830048E-2,-7.450658083E-2
3.536506816E1,1.025116444E-2,-4.563999176E-2,-6.712675095E-2
3.538296244E1,3.820657730E-3,-8.315086365E-3,-8.107095957E-2
3.540086357E1,6.747764349E-2,5.250835419E-2,-9.665262699E-2
3.541874119E1,1.508083940E-1,1.131486893E-1,-7.206237316E-2
3.543663054E1,2.126159072E-1,1.187038422E-1,-4.645872116E-2
3.545453947E1,2.124336362E-1,5.551815033E-2,-1.772868633E-2
3.547243382E1,1.265149713E-1,1.650714874E-2,-3.491103649E-3
3.549032804E1,5.141705275E-2,6.392478943E-3,-3.193497658E-2
3.550822227E1,5.077826977E-2,-1.424884796E-2,-7.669448853E-2
3.552611668E1,1.050986648E-1,-1.017570496E-3,-1.264875531E-1
3.554401097E1,1.518526077E-1,1.903152466E-2,-1.512569189E-1
3.556190476E1,1.749451756E-1,2.763748169E-3,-1.897137165E-1
3.557980247E1,1.447806358E-1,1.359939575E-2,-2.152860761E-1
3.559769706E1,8.282619715E-2,4.726600647E-2,-1.816572547E-1
3.561558836E1,5.367636681E-2,6.866455078E-3,-1.216013432E-1
3.563348265E1,3.321647644E-2,-3.251552582E-2,-7.149291039E-2
3.565136521E1,1.352852583E-2,-1.387977600E-2,-6.413334608E-2
3.566926048E1,-2.802240849E-2,3.198337555E-2,-8.228510618E-2
3.568716117E1,-5.321031809E-2,4.289054871E-2,-8.248072863E-2
3.570504966E1,1.181507111E-2,3.538894653E-2,-8.746451139E-2
3.572294383E1,1.163660288E-1,1.892185211E-2,-6.072813272E-2
3.574083714E1,2.185902596E-1,-2.770328522E-2,-5.901187658E-2
3.575873521E1,2.369250655E-1,-2.019977570E-2,-7.988297939E-2
3.577662834E1,1.460118294E-1,5.465316772E-2,-6.150013208E-2
3.579452415E1,5.794423819E-2,9.140300751E-2,-3.354358673E-2
3.581241447E1,1.984548569E-2,5.100059509E-2,-5.826658010E-2
3.583030790E1,7.242828608E-2,1.742649078E-2,-1.614379883E-2
3.584820872E1,1.467885375E-1,5.585765839E-2,2.670454979E-2
3.586610099E1,1.764287949E-1,4.814910889E-2,3.199422359E-2
3.588399272E1,1.374930143E-1,8.087158203E-3,2.747166157E-2
3.590188633E1,6.541925669E-2,-2.407741547E-2,-4.179298878E-3
3.591978141E1,1.013815403E-3,-3.257751465E-3,-7.383334637E-2
3.593767655E1,1.063346863E-3,4.113292694E-2,-1.275367737E-1
3.595557206E1,4.915279150E-2,5.889987946E-2,-1.343836784E-1
3.597346293E1,1.123477221E-1,2.627372742E-2,-1.316873431E-1
3.599135734E1,1.377870440E-1,-1.662445068E-2,-1.156085134E-1
3.600925254E1,1.005336046E-1,-5.202865601E-2,-1.217871904E-1
3.602715989E1,4.266893864E-2,-4.553127289E-2,-1.413568258E-1
3.604505174E1,9.165167809E-3,-1.327896118E-2,-1.599134803E-1
3.606294279E1,1.001024246E-2,2.283668518E-2,-1.407815218E-1
3.608083708E1,7.979387045E-2,7.768630981E-3,-1.137280464E-1
3.609873729E1,1.323778033E-1,8.564949036E-3,-1.187640429E-1
3.611662553E1,1.078940630E-1,-2.709388733E-3,-7.392281294E-2
3.613452299E1,5.237251520E-2,-2.475166321E-2,-4.788041115E-2
3.615241111E1,5.561411381E-2,-2.969741821E-3,-3.435415030E-2
3.617029643E1,8.071982861E-2,3.995609283E-2,-1.626598835E-2
3.618820573E1,9.149533510E-2,6.432723999E-2,-8.040189743E-3
3.620610032E1,9.341067076E-2,4.867935181E-2,2.729779482E-2
3.622399461E1,1.062094569E-1,4.335975647E-2,5.366551876E-2
