"Time (s)","Acceleration x (m/s^2)","Acceleration y (m/s^2)","Acceleration z (m/s^2)"
1.463048800E-2,-1.277767301E0,8.690732002E0,4.159324169E0
1.682400400E-2,-1.263410330E0,8.675776482E0,4.140779495E0
1.901608400E-2,-1.262812138E0,8.690732002E0,4.107280254E0
2.120776500E-2,-1.223928809E0,8.709276199E0,4.079164505E0
2.340748000E-2,-1.195214868E0,8.727820396E0,4.064807415E0
2.564295300E-2,-1.146760225E0,8.746364594E0,4.036691666E0
2.787909800E-2,-1.084546804E0,8.750552177E0,4.027718544E0
3.011579300E-2,-1.074377418E0,8.760123253E0,3.999004841E0
3.235236500E-2,-1.025922656E0,8.783453941E0,3.975674868E0
3.459009700E-2,-9.972088337E-1,8.773283958E0,3.976273060E0
3.682483900E-2,-9.583254457E-1,8.782257080E0,3.947559118E0
3.906183800E-2,-9.439685345E-1,8.767900467E0,3.919443607E0
4.129767800E-2,-9.583254457E-1,8.772686005E0,3.895515203E0
4.353357900E-2,-9.391828775E-1,8.767900467E0,3.866801500E0
4.577216500E-2,-9.433703423E-1,8.768498421E0,3.847658873E0
4.800770000E-2,-9.631111026E-1,8.749356270E0,3.828516245E0
5.024408900E-2,-9.577272534E-1,8.744570732E0,3.799802303E0
5.248206500E-2,-9.816554785E-1,8.745168686E0,3.790230989E0
5.471924800E-2,-9.625129104E-1,8.749954224E0,3.766302824E0
5.695081500E-2,-9.816554785E-1,8.721240044E0,3.732803345E0
5.918360300E-2,-9.720842242E-1,8.726025581E0,3.733401537E0
6.142292200E-2,-9.912267923E-1,8.731410027E0,3.713660717E0
6.366150800E-2,-1.010369420E0,8.740981102E0,3.732803345E0
6.589960600E-2,-1.005583763E0,8.755337715E0,3.751945972E0
6.813367600E-2,-1.005583763E0,8.764909744E0,3.775874138E0
7.037085900E-2,-1.019940615E0,8.760123253E0,3.823132277E0
7.260724800E-2,-1.020538807E0,8.754739761E0,3.856631994E0
7.484363700E-2,-1.030110121E0,8.764310837E0,3.880560160E0
7.708100300E-2,-1.025922656E0,8.769096375E0,3.928416491E0
7.931916300E-2,-1.054636598E0,8.778668404E0,4.004388809E0
8.155060800E-2,-1.060020447E0,8.802596092E0,4.080360889E0
8.378644700E-2,-1.080359459E0,8.773283958E0,4.156332970E0
8.602277500E-2,-1.104287624E0,8.787641525E0,4.227519512E0
8.826270500E-2,-1.143171072E0,8.783453941E0,4.289134502E0
9.050226800E-2,-1.144367456E0,8.782855988E0,4.384847641E0
9.273237000E-2,-1.163509965E0,8.778069496E0,4.436891556E0
9.496857700E-2,-1.168893814E0,8.778069496E0,4.508676052E0
9.720490400E-2,-1.179063320E0,8.773283958E0,4.560719967E0
9.944434500E-2,-1.189232826E0,8.758927345E0,4.599005222E0
1.016794520E-1,-1.199402332E0,8.743971825E0,4.651647091E0
1.039119960E-1,-1.209571838E0,8.724829674E0,4.689334393E0
1.061464330E-1,-1.209571838E0,8.729615211E0,4.718048096E0
1.083876440E-1,-1.248455167E0,8.715856552E0,4.741377831E0
1.106239720E-1,-1.249053478E0,8.701499939E0,4.755734921E0
1.128603600E-1,-1.273579836E0,8.668000221E0,4.774877548E0
1.150966890E-1,-1.292124271E0,8.702097893E0,4.812564373E0
1.173321020E-1,-1.311266780E0,8.697312355E0,4.798207760E0
1.195684910E-1,-1.316052437E0,8.716454506E0,4.826921463E0
1.218048800E-1,-1.320838094E0,8.706883430E0,4.817350388E0
1.240418800E-1,-1.369292736E0,8.697910309E0,4.811966419E0
1.262769870E-1,-1.373480201E0,8.708079338E0,4.797609329E0
1.285132540E-1,-1.378265858E0,8.717651367E0,4.802394867E0
1.307505590E-1,-1.392622828E0,8.722436905E0,4.783252239E0
1.329874360E-1,-1.415952802E0,8.742177963E0,4.730610371E0
1.352208950E-1,-1.396211982E0,8.766105652E0,4.735395908E0
1.374539880E-1,-1.381855130E0,8.770891190E0,4.706682205E0
1.396941010E-1,-1.390828133E0,8.766105652E0,4.687539577E0
1.419320160E-1,-1.405185103E0,8.780462265E0,4.677968502E0
1.441687100E-1,-1.371087432E0,8.785248756E0,4.635495663E0
1.464033910E-1,-1.362114310E0,8.770891190E0,4.630710125E0
1.486414890E-1,-1.371087432E0,8.770891190E0,4.601995945E0
1.508901460E-1,-1.356730461E0,8.770891190E0,4.578067780E0
1.531265350E-1,-1.356132269E0,8.761320114E0,4.530809879E0
1.553600560E-1,-1.332802176E0,8.737391472E0,4.516452789E0
1.575852140E-1,-1.318445325E0,8.718249321E0,4.478765965E0
1.598339330E-1,-1.313659668E0,8.713463783E0,4.464408875E0
1.620697730E-1,-1.313061476E0,8.708678246E0,4.416552544E0
1.643077480E-1,-1.269990563E0,8.684151649E0,4.402793884E0
1.665412080E-1,-1.250848055E0,8.698508263E0,4.378865242E0
1.687775370E-1,-1.221535921E0,8.698508263E0,4.345963955E0
1.710138650E-1,-1.221535921E0,8.679366112E0,4.326821327E0
1.732498880E-1,-1.154536963E0,8.669196129E0,4.265804768E0
1.754865210E-1,-1.149751306E0,8.659625053E0,4.237090588E0
1.777241300E-1,-1.144367456E0,8.654839516E0,4.198805332E0
1.799602150E-1,-1.130010486E0,8.645268440E0,4.180261135E0
1.821953830E-1,-1.139581800E0,8.645268440E0,4.156332970E0
1.844315280E-1,-1.120439172E0,8.645268440E0,4.137190342E0
1.866674280E-1,-1.115055323E0,8.630910873E0,4.098905087E0
1.889042450E-1,-1.110269666E0,8.611768723E0,4.061218262E0
1.911403290E-1,-1.077368379E0,8.596813202E0,4.061218262E0
1.933772680E-1,-1.071984529E0,8.611170769E0,4.051646709E0
1.956144500E-1,-1.052842021E0,8.596813202E0,4.028316975E0
1.978502900E-1,-1.028913736E0,8.586644173E0,4.028316975E0
2.000853980E-1,-1.019342422E0,8.586644173E0,4.014558315E0
2.023217260E-1,-1.004387259E0,8.610571861E0,3.990629911E0
2.045580540E-1,-9.762716293E-1,8.600402832E0,4.009772778E0
2.067945040E-1,-9.427721500E-1,8.604590416E0,4.029513359E0
2.090310150E-1,-9.523434043E-1,8.590831757E0,4.019941807E0
2.112675270E-1,-9.379864931E-1,8.590232849E0,4.015156269E0
2.135046480E-1,-9.092726111E-1,8.575278282E0,4.034298897E0
2.157406100E-1,-9.194421172E-1,8.560921669E0,4.048655987E0
2.179749240E-1,-9.248259664E-1,8.547162056E0,4.063013077E0
2.202086890E-1,-9.343972206E-1,8.537590981E0,4.072584152E0
2.224452000E-1,-9.391828775E-1,8.532805443E0,4.091726780E0
2.246728000E-1,-9.637092948E-1,8.518448830E0,4.119842529E0
2.269216400E-1,-9.780662656E-1,8.519046783E0,4.100699902E0
2.291575410E-1,-1.030708313E0,8.534002304E0,4.104887009E0
2.313976530E-1,-1.039681435E0,8.567501068E0,4.133601189E0
2.336286110E-1,-1.054636598E0,8.543573380E0,4.123431683E0
2.358659760E-1,-1.088136077E0,8.548956871E0,4.128217220E0
2.380991920E-1,-1.087537885E0,8.587242126E0,4.147359848E0
2.403272190E-1,-1.068395257E0,8.581858635E0,4.171288013E0
2.425752050E-1,-1.059422255E0,8.581858635E0,4.190430641E0
2.448112890E-1,-1.058824062E0,8.601000786E0,4.195216179E0
2.470510960E-1,-1.059422255E0,8.609973907E0,4.252045631E0
2.492854100E-1,-1.079162955E0,8.586644173E0,4.290330887E0
2.515214940E-1,-1.093519926E0,8.591429710E0,4.314259052E0
2.537565400E-1,-1.093519926E0,8.609973907E0,4.351946354E0
2.559896940E-1,-1.118046403E0,8.601000786E0,4.380660057E0
2.582171730E-1,-1.112662554E0,8.615358353E0,4.380660057E0
2.604652810E-1,-1.136590719E0,8.648857117E0,4.413561344E0
2.627016700E-1,-1.156331539E0,8.648857117E0,4.447061062E0
2.649414160E-1,-1.150947690E0,8.672785759E0,4.475774765E0
2.671728000E-1,-1.141376376E0,8.691329956E0,4.494917393E0
2.693996070E-1,-1.146162033E0,8.686544418E0,4.494318962E0
2.716466770E-1,-1.150947690E0,8.696115494E0,4.503890514E0
2.738830040E-1,-1.155733347E0,8.706285477E0,4.513461590E0
2.761223230E-1,-1.151545882E0,8.696115494E0,4.527818680E0
2.783557220E-1,-1.160519004E0,8.710473061E0,4.537389755E0
2.805920510E-1,-1.161117196E0,8.710473061E0,4.561318398E0
2.828288060E-1,-1.174875975E0,8.729615211E0,4.579862595E0
2.850659880E-1,-1.170688510E0,8.729615211E0,4.594219685E0
2.873022560E-1,-1.179661512E0,8.739186287E0,4.594219685E0
2.895373020E-1,-1.185045362E0,8.724829674E0,4.608576298E0
2.917733860E-1,-1.161117196E0,8.705686569E0,4.594817638E0
2.940094080E-1,-1.152144074E0,8.696115494E0,4.609174728E0
2.962459810E-1,-1.128215909E0,8.676374435E0,4.599603176E0
2.984821260E-1,-1.109073281E0,8.681160927E0,4.585844517E0
3.007190040E-1,-1.109073281E0,8.709276199E0,4.633102894E0
3.029534390E-1,-1.094716311E0,8.694919586E0,4.609772682E0
3.051782320E-1,-1.084546804E0,8.685347557E0,4.585844517E0
3.074138280E-1,-1.079761267E0,8.704490662E0,4.595416069E0
3.096503390E-1,-1.089332461E0,8.709276199E0,4.561916351E0
3.118928310E-1,-1.089332461E0,8.685347557E0,4.571487427E0
3.141269010E-1,-1.079761267E0,8.699705124E0,4.547559261E0
3.163753750E-1,-1.088734269E0,8.700303078E0,4.523631096E0
3.186078580E-1,-1.103091240E0,8.685946465E0,4.499702930E0
3.208377780E-1,-1.107876897E0,8.691329956E0,4.466203690E0
3.230827120E-1,-1.107278705E0,8.691329956E0,4.442275047E0
3.253146450E-1,-1.097707391E0,8.705686569E0,4.404588223E0
3.275449310E-1,-1.106680512E0,8.705686569E0,4.395017147E0
3.297902320E-1,-1.111466169E0,8.701499939E0,4.356731892E0
3.320268650E-1,-1.101296663E0,8.730213165E0,4.318446636E0
3.342659390E-1,-1.091127157E0,8.749356270E0,4.308875561E0
3.364997650E-1,-1.081555843E0,8.734400749E0,4.299902439E0
3.387370090E-1,-1.100698471E0,8.744570732E0,4.265804768E0
3.409728490E-1,-1.091127157E0,8.754141808E0,4.261617184E0
3.432079560E-1,-1.090528965E0,8.763712883E0,4.242474556E0
3.454442240E-1,-1.075573802E0,8.782855988E0,4.213760853E0
3.476804300E-1,-1.075573802E0,8.778069496E0,4.213760853E0
3.499173680E-1,-1.085145116E0,8.787641525E0,4.218546391E0
3.521537570E-1,-1.080359459E0,8.792427063E0,4.199403763E0
3.543898410E-1,-1.085145116E0,8.792427063E0,4.199403763E0
3.566269020E-1,-1.084546804E0,8.801998138E0,4.189832687E0
3.588631690E-1,-1.074975610E0,8.792427063E0,4.175475597E0
3.610986420E-1,-1.085145116E0,8.782855988E0,4.180261135E0
3.633347870E-1,-1.079761267E0,8.787641525E0,4.151547432E0
3.655709320E-1,-1.089332461E0,8.792427063E0,4.180261135E0
3.678070160E-1,-1.098903775E0,8.802596092E0,4.189832687E0
3.700434060E-1,-1.113858938E0,8.788239479E0,4.189832687E0
3.722790010E-1,-1.137188911E0,8.803194046E0,4.189234257E0
3.745127050E-1,-1.132403374E0,8.812167168E0,4.184448719E0
3.767534280E-1,-1.165902853E0,8.822337151E0,4.198805332E0
3.789887180E-1,-1.189831018E0,8.832506180E0,4.202992916E0
3.812260220E-1,-1.213759303E0,8.842078209E0,4.217350006E0
3.834611900E-1,-1.218544960E0,8.846863747E0,4.231108665E0
3.856977020E-1,-1.228116274E0,8.856434822E0,4.245465755E0
3.879338470E-1,-1.237687469E0,8.866005898E0,4.259822369E0
3.901706030E-1,-1.242473125E0,8.885746956E0,4.259822369E0
3.924077240E-1,-1.223330617E0,8.889934540E0,4.264608383E0
3.946439920E-1,-1.208973646E0,8.880363464E0,4.269393921E0
3.968788550E-1,-1.214357495E0,8.856434822E0,4.283750534E0
3.991152440E-1,-1.204786181E0,8.855836868E0,4.278964996E0
4.013515100E-1,-1.185045362E0,8.860622406E0,4.265206337E0
4.035881440E-1,-1.185643673E0,8.836693764E0,4.265206337E0
4.058241670E-1,-1.180858016E0,8.822337151E0,4.269991875E0
4.080608000E-1,-1.152144074E0,8.816953659E0,4.260420799E0
4.102982880E-1,-1.138385415E0,8.802596092E0,4.270590305E0
4.125341280E-1,-1.137787223E0,8.793025017E0,4.241876125E0
4.147692970E-1,-1.104287624E0,8.807381630E0,4.217947960E0
4.170055030E-1,-1.080359459E0,8.773283958E0,4.213760853E0
4.192416480E-1,-1.028315544E0,8.767900467E0,4.233501434E0
4.214782810E-1,-1.013958573E0,8.743373871E0,4.209573269E0
4.237145480E-1,-9.756734371E-1,8.733204842E0,4.200600147E0
4.259511810E-1,-9.332008362E-1,8.703892708E0,4.196412563E0
4.281885470E-1,-8.997012973E-1,8.679964066E0,4.191627026E0
4.304248140E-1,-8.715856671E-1,8.655437469E0,4.197010994E0
4.326598610E-1,-8.380861282E-1,8.635697365E0,4.220939159E0
4.348920380E-1,-8.243274093E-1,8.615956306E0,4.240081787E0
4.371173190E-1,-7.962117195E-1,8.601000786E0,4.273581028E0
4.393686010E-1,-7.722834945E-1,8.596215248E0,4.288536549E0
4.416050510E-1,-7.393822074E-1,8.590831757E0,4.326821327E0
4.438454680E-1,-7.154539824E-1,8.575876236E0,4.331607342E0
4.460788670E-1,-6.969096065E-1,8.565707207E0,4.370490551E0
4.483148900E-1,-6.681957245E-1,8.560322762E0,4.389633179E0
4.505499360E-1,-6.496513486E-1,8.536395073E0,4.423132420E0
4.527860810E-1,-6.352944374E-1,8.540582657E0,4.413561344E0
4.550224100E-1,-6.161518097E-1,8.531010628E0,4.442275047E0
4.572589820E-1,-6.263213158E-1,8.507082939E0,4.427918434E0
4.594950050E-1,-6.311069727E-1,8.497511864E0,4.447061062E0
4.617314550E-1,-6.167500615E-1,8.506484032E0,4.480560303E0
4.639691870E-1,-6.071787477E-1,8.506484032E0,4.480560303E0
4.662050270E-1,-6.221339107E-1,8.477770805E0,4.485345840E0
4.684402560E-1,-6.269195080E-1,8.483154297E0,4.480560303E0
4.706764610E-1,-6.269195080E-1,8.487939835E0,4.494917393E0
4.729127890E-1,-6.652047038E-1,8.474181175E0,4.461417675E0
4.751491180E-1,-7.088736892E-1,8.469993591E0,4.479962349E0
4.773821500E-1,-7.513462901E-1,8.480163574E0,4.465006828E0
4.796083470E-1,-8.087740541E-1,8.475975990E0,4.464408875E0
4.818535250E-1,-8.327022791E-1,8.471788406E0,4.454837322E0
4.840954080E-1,-8.470591903E-1,8.490931511E0,4.478765965E0
4.863333220E-1,-8.709874153E-1,8.510671616E0,4.482953072E0
4.885680630E-1,-8.709874153E-1,8.505886078E0,4.492524624E0
4.908029260E-1,-8.757730722E-1,8.510671616E0,4.478167534E0
4.930396210E-1,-8.703892231E-1,8.515457153E0,4.459024906E0
4.952728970E-1,-9.044869542E-1,8.501100540E0,4.502095699E0
4.975004980E-1,-9.290133715E-1,8.506484032E0,4.515854359E0
4.997497650E-1,-9.385846853E-1,8.492127419E0,4.539782524E0
5.019858490E-1,-9.678967595E-1,8.464012146E0,4.563112736E0
5.042241910E-1,-9.631111026E-1,8.477770805E0,4.601397991E0
5.064572240E-1,-9.918249846E-1,8.483154297E0,4.610969067E0
5.086933080E-1,-9.918249846E-1,8.502297401E0,4.610969067E0
5.109269500E-1,-9.924231768E-1,8.492725372E0,4.634897232E0
5.131544900E-1,-9.684949517E-1,8.492127419E0,4.663611412E0
5.154040010E-1,-9.684949517E-1,8.501698494E0,4.696512699E0
5.176460670E-1,-9.684949517E-1,8.515457153E0,4.706083775E0
5.198842250E-1,-9.972088337E-1,8.530412674E0,4.725226402E0
5.221113380E-1,-1.001994491E0,8.535198212E0,4.725226402E0
5.243464450E-1,-1.035493970E0,8.535796165E0,4.719842434E0
5.265824680E-1,-1.039681435E0,8.550153732E0,4.715056896E0
5.288205050E-1,-1.049252748E0,8.545368195E0,4.700700283E0
5.310563450E-1,-1.063609719E0,8.545966148E0,4.705485821E0
5.332931610E-1,-1.077966571E0,8.541180611E0,4.671986103E0
5.355301610E-1,-1.086939692E0,8.570492744E0,4.676771641E0
5.377663060E-1,-1.096511006E0,8.575278282E0,4.662415028E0
5.400014130E-1,-1.082154036E0,8.565707207E0,4.662415028E0
5.422377420E-1,-1.063011408E0,8.565108299E0,4.662415028E0
5.444738870E-1,-1.053440213E0,8.584251404E0,4.643272400E0
5.467107030E-1,-1.058225870E0,8.569893837E0,4.638486862E0
5.489467260E-1,-1.048056364E0,8.565108299E0,4.600799561E0
5.511803070E-1,-1.043270707E0,8.574680328E0,4.576871395E0
5.534083960E-1,-1.038485050E0,8.569893837E0,4.581656933E0
5.556566870E-1,-1.028913736E0,8.569893837E0,4.538586140E0
5.578917330E-1,-1.048056364E0,8.565707207E0,4.533800602E0
5.601306850E-1,-1.047458172E0,8.570492744E0,4.476373196E0
5.623642060E-1,-1.046859860E0,8.575278282E0,4.452444553E0
5.646007790E-1,-1.042074203E0,8.561519623E0,4.390829563E0
5.668369850E-1,-1.041476011E0,8.580661774E0,4.362115860E0
5.690737400E-1,-1.036690354E0,8.561519623E0,4.328616142E0
5.713110450E-1,-1.021735311E0,8.599804878E0,4.300500393E0
5.735471290E-1,-1.006181955E0,8.614161491E0,4.243072987E0
5.757821750E-1,-9.726824164E-1,8.613563538E0,4.243670940E0
5.780152070E-1,-9.391828775E-1,8.599205971E0,4.220340729E0
5.802423790E-1,-9.248259664E-1,8.598608017E0,4.210769653E0
5.824911590E-1,-8.913264275E-1,8.607581139E0,4.205984116E0
5.847272430E-1,-8.865407705E-1,8.612366676E0,4.187439442E0
5.869669290E-1,-8.859425783E-1,8.636295319E0,4.191627026E0
5.892013640E-1,-8.620143533E-1,8.636295319E0,4.168296814E0
5.914372650E-1,-8.715856671E-1,8.631509781E0,4.168296814E0
5.936726780E-1,-8.715856671E-1,8.645866394E0,4.197010994E0
5.959088840E-1,-8.476574421E-1,8.645866394E0,4.177868366E0
5.981420380E-1,-8.614161611E-1,8.660223007E0,4.177868366E0
6.003671350E-1,-8.662018180E-1,8.660223007E0,4.192225456E0
6.026078590E-1,-8.614161611E-1,8.665008545E0,4.173082829E0
6.048544410E-1,-8.757730722E-1,8.674580574E0,4.177868366E0
6.070945530E-1,-8.853443861E-1,8.665607452E0,4.167698860E0
6.093302700E-1,-8.901300430E-1,8.675178528E0,4.177269936E0
6.115626320E-1,-8.757730722E-1,8.665008545E0,4.196412563E0
6.137988380E-1,-9.050851464E-1,8.651249886E0,4.205984116E0
6.160352880E-1,-9.343972206E-1,8.636893272E0,4.224528313E0
6.182717380E-1,-9.248259664E-1,8.617751122E0,4.258028030E0
6.205080660E-1,-9.349954724E-1,8.598608017E0,4.262813568E0
6.227446380E-1,-9.397810698E-1,8.617751122E0,4.277170658E0
6.249821870E-1,-9.684949517E-1,8.627322197E0,4.343571186E0
6.272179660E-1,-9.493523836E-1,8.632107735E0,4.339384079E0
6.294530740E-1,-9.445667267E-1,8.646464348E0,4.353740692E0
6.316890970E-1,-9.397810698E-1,8.645866394E0,4.377668858E0
6.339255470E-1,-9.308080077E-1,8.631509781E0,4.396811485E0
6.361623020E-1,-9.499505758E-1,8.631509781E0,4.410570145E0
6.383981420E-1,-9.451649189E-1,8.607581139E0,4.391427994E0
6.406347140E-1,-9.601200819E-1,8.617152214E0,4.429712772E0
6.428703710E-1,-9.607182741E-1,8.593224525E0,4.444069862E0
6.450988250E-1,-9.798609018E-1,8.598608017E0,4.467400074E0
6.473316140E-1,-9.702895880E-1,8.593224525E0,4.467998028E0
6.495798440E-1,-9.607182741E-1,8.583653450E0,4.487140656E0
6.518175150E-1,-9.655039310E-1,8.588438988E0,4.500899315E0
6.540554290E-1,-9.421738982E-1,8.578269005E0,4.525425911E0
6.562884620E-1,-9.379864931E-1,8.554341316E0,4.554139614E0
6.585251560E-1,-9.188438654E-1,8.568099976E0,4.578067780E0
6.607627050E-1,-8.901300430E-1,8.562715530E0,4.582853794E0
6.629987280E-1,-8.859425783E-1,8.557929993E0,4.621138573E0
6.652321260E-1,-8.566305041E-1,8.571688652E0,4.635495663E0
6.674637540E-1,-8.380861282E-1,8.562117577E0,4.645665169E0
6.697060030E-1,-8.189435601E-1,8.566305161E0,4.683950424E0
6.719428810E-1,-8.333004713E-1,8.561519623E0,4.688137531E0
6.741804300E-1,-8.147560954E-1,8.551948547E0,4.688735962E0
6.764155370E-1,-8.338986635E-1,8.528019905E0,4.707280159E0
6.786528410E-1,-8.440681696E-1,8.513663292E0,4.721637249E0
6.808891090E-1,-8.626125455E-1,8.533403397E0,4.707280159E0
6.831209200E-1,-8.769695163E-1,8.523832321E0,4.697709084E0
6.853449190E-1,-8.679963946E-1,8.504690170E0,4.678566456E0
6.875847260E-1,-8.823533654E-1,8.514261246E0,4.707280159E0
6.898334450E-1,-8.817551732E-1,8.519046783E0,4.692923546E0
6.920721530E-1,-8.865407705E-1,8.519644737E0,4.678566456E0
6.943088480E-1,-8.721838593E-1,8.533403397E0,4.683351994E0
6.965431000E-1,-8.578268886E-1,8.528617859E0,4.688137531E0
6.987793670E-1,-8.476574421E-1,8.552546501E0,4.649852753E0
7.010145970E-1,-8.428717852E-1,8.547760963E0,4.645665169E0
7.032504370E-1,-8.572286963E-1,8.566903114E0,4.635495663E0
7.054867040E-1,-8.620143533E-1,8.557332039E0,4.635495663E0
7.077230320E-1,-8.662018180E-1,8.567501068E0,4.611567497E0
7.099594820E-1,-9.092726111E-1,8.568099976E0,4.582853794E0
7.121962980E-1,-9.230313301E-1,8.577671051E0,4.549354076E0
7.144336640E-1,-9.565308690E-1,8.597412109E0,4.553541660E0
7.166696260E-1,-9.511470199E-1,8.606983185E0,4.520640373E0
7.189045510E-1,-9.655039310E-1,8.602795601E0,4.534399033E0
7.211410010E-1,-9.559326172E-1,8.612366676E0,4.515854359E0
7.233739110E-1,-9.553344250E-1,8.617152214E0,4.467998028E0
7.256018770E-1,-9.649057388E-1,8.621937752E0,4.467998028E0
7.278499850E-1,-9.649057388E-1,8.626724243E0,4.463212490E0
7.300864960E-1,-9.601200819E-1,8.631509781E0,4.477569580E0
7.323269140E-1,-9.888339639E-1,8.641678810E0,4.472185612E0
7.345597020E-1,-9.984052777E-1,8.641678810E0,4.453042984E0
7.367949310E-1,-1.007976532E0,8.636893272E0,4.453042984E0
7.390311990E-1,-1.045663476E0,8.661419868E0,4.447659016E0
7.412647800E-1,-1.079761267E0,8.647661209E0,4.457230568E0
7.434898770E-1,-1.108475089E0,8.657830238E0,4.475774765E0
7.457231530E-1,-1.089332461E0,8.662017822E0,4.485345840E0
7.479564290E-1,-1.113260746E0,8.671588898E0,4.514060020E0
7.501897050E-1,-1.127019525E0,8.691329956E0,4.509274483E0
7.524229810E-1,-1.127617717E0,8.691329956E0,4.551746845E0
7.546562570E-1,-1.141974568E0,8.691329956E0,4.546961308E0
7.568895330E-1,-1.146760225E0,8.686544418E0,4.551746845E0
7.591228090E-1,-1.156331539E0,8.710473061E0,4.561318398E0
7.613917330E-1,-1.165902853E0,8.696115494E0,4.566103935E0
7.636278170E-1,-1.194616675E0,8.701499939E0,4.565505505E0
7.658616420E-1,-1.199402332E0,8.696713448E0,4.594219685E0
7.680927220E-1,-1.209571838E0,8.701499939E0,4.618147850E0
7.703404640E-1,-1.223928809E0,8.696713448E0,4.631906509E0
7.725753270E-1,-1.219143152E0,8.701499939E0,4.622933388E0
7.748146450E-1,-1.200000525E0,8.706285477E0,4.637290478E0
7.770480440E-1,-1.195214868E0,8.700901031E0,4.661218643E0
7.792846780E-1,-1.195214868E0,8.696115494E0,4.651647091E0
7.815208220E-1,-1.176072359E0,8.696115494E0,4.656432629E0
7.837578220E-1,-1.161715388E0,8.705686569E0,4.651647091E0
7.859948210E-1,-1.166501045E0,8.700901031E0,4.661218643E0
7.882307220E-1,-1.171286702E0,8.686544418E0,4.637290478E0
7.904659520E-1,-1.152144074E0,8.676973343E0,4.618745804E0
7.927020970E-1,-1.128814101E0,8.666803360E0,4.628317356E0
7.949384860E-1,-1.128814101E0,8.642875671E0,4.599603176E0
7.971749970E-1,-1.085743308E0,8.618349075E0,4.566701889E0
7.994110810E-1,-1.071386337E0,8.618349075E0,4.547559261E0
8.016477140E-1,-1.051645517E0,8.627920151E0,4.543372154E0
8.038852630E-1,-1.042074203E0,8.613563538E0,4.519443989E0
8.061212860E-1,-1.051645517E0,8.627920151E0,4.500301361E0
8.083532200E-1,-1.041476011E0,8.637491226E0,4.490729809E0
8.105774020E-1,-1.055832982E0,8.647063255E0,4.490729809E0
8.128162940E-1,-1.083948612E0,8.657232285E0,4.452444553E0
8.150652560E-1,-1.103091240E0,8.676973343E0,4.461417675E0
8.173046960E-1,-1.136590719E0,8.687142372E0,4.442275047E0
8.195411470E-1,-1.174277663E0,8.697312355E0,4.436891556E0
8.217754000E-1,-1.198205948E0,8.702097893E0,4.441677094E0
8.240113620E-1,-1.183848977E0,8.711668968E0,4.422534466E0
8.262465310E-1,-1.212562919E0,8.707481384E0,4.412963390E0
8.284826150E-1,-1.202991605E0,8.721240044E0,4.427320004E0
8.307190040E-1,-1.202393413E0,8.740981102E0,4.408177376E0
8.329557590E-1,-1.192822099E0,8.745168686E0,4.432105541E0
8.351916600E-1,-1.211964726E0,8.736195564E0,4.422534466E0
8.374284760E-1,-1.202393413E0,8.754739761E0,4.427320004E0
8.396657200E-1,-1.207777262E0,8.730812073E0,4.432105541E0
8.419018650E-1,-1.193420291E0,8.726025581E0,4.432105541E0
8.441369110E-1,-1.192822099E0,8.730812073E0,4.408177376E0
8.463729960E-1,-1.188036442E0,8.721240044E0,4.408177376E0
8.486092630E-1,-1.192822099E0,8.717052460E0,4.384249210E0
8.508456520E-1,-1.174277663E0,8.702097893E0,4.389633179E0
8.530819800E-1,-1.164108157E0,8.711668968E0,4.394418716E0
8.553156220E-1,-1.154536963E0,8.706883430E0,4.384847641E0
8.575442600E-1,-1.154536963E0,8.706883430E0,4.356133461E0
8.597922460E-1,-1.130608678E0,8.672785759E0,4.332803726E0
8.620273530E-1,-1.131206870E0,8.668000221E0,4.328018188E0
8.642663660E-1,-1.144965649E0,8.678169250E0,4.304089546E0
8.664996440E-1,-1.144965649E0,8.673383713E0,4.284946918E0
8.687360330E-1,-1.159322619E0,8.659625053E0,4.261018753E0
8.709693700E-1,-1.178465128E0,8.664410591E0,4.255635262E0
8.731970310E-1,-1.187438250E0,8.679366112E0,4.198805332E0
8.754465430E-1,-1.201795220E0,8.674580574E0,4.212564468E0
8.776823220E-1,-1.201795220E0,8.674580574E0,4.202992916E0
8.799205410E-1,-1.225125194E0,8.684749603E0,4.188635826E0
8.821540000E-1,-1.215553880E0,8.684749603E0,4.146163464E0
8.843900840E-1,-1.229910851E0,8.694320679E0,4.140779495E0
8.866264740E-1,-1.220339537E0,8.694320679E0,4.140779495E0
8.888596900E-1,-1.249053478E0,8.690134048E0,4.126422882E0
8.910873510E-1,-1.238883972E0,8.694919586E0,4.116851330E0
8.933366180E-1,-1.238883972E0,8.685347557E0,4.088137627E0
8.955724580E-1,-1.248455167E0,8.694919586E0,4.083351612E0
8.978108000E-1,-1.257428288E0,8.705088615E0,4.059423447E0
9.000439550E-1,-1.271785259E0,8.705088615E0,4.030709743E0
9.022805270E-1,-1.276570916E0,8.714659691E0,4.030709743E0
9.045167940E-1,-1.290927768E0,8.700901031E0,4.006781578E0
9.067529390E-1,-1.290927768E0,8.696115494E0,4.021138668E0
9.089897550E-1,-1.300499082E0,8.700901031E0,4.021138668E0
9.112243130E-1,-1.300499082E0,8.691329956E0,4.011567116E0
9.134511200E-1,-1.290927768E0,8.710473061E0,4.045066833E0
9.156979470E-1,-1.299900889E0,8.748757362E0,4.054637909E0
9.179317720E-1,-1.319043517E0,8.777471542E0,4.092324734E0
9.201638270E-1,-1.309472203E0,8.782257080E0,4.101896286E0
9.224072360E-1,-1.328614831E0,8.791828156E0,4.121038914E0
9.246432590E-1,-1.309472203E0,8.796614647E0,4.116253376E0
9.268822720E-1,-1.314257860E0,8.787042618E0,4.111467361E0
9.291171970E-1,-1.300499082E0,8.776873589E0,4.140181541E0
9.313511440E-1,-1.290927768E0,8.757730484E0,4.135395527E0
9.335790500E-1,-1.300499082E0,8.748159409E0,4.125824451E0
9.358244120E-1,-1.305284739E0,8.763114929E0,4.101896286E0
9.380577490E-1,-1.333400369E0,8.768498421E0,4.077968121E0
9.402879120E-1,-1.376471281E0,8.754739761E0,4.034298897E0
9.425335180E-1,-1.429113269E0,8.764909744E0,4.048655987E0
9.447705780E-1,-1.476969719E0,8.780462265E0,4.028914928E0
9.470107520E-1,-1.490728498E0,8.799605370E0,3.990629911E0
9.492437230E-1,-1.489532113E0,8.837890625E0,3.961916208E0
9.514788910E-1,-1.479362607E0,8.848059654E0,3.904488325E0
9.537147310E-1,-1.417149186E0,8.851649284E0,3.876971006E0
9.559511210E-1,-1.392622828E0,8.870791435E0,3.829114437E0
9.581865940E-1,-1.358525038E0,8.884550095E0,3.800998688E0
9.604196870E-1,-1.315454245E0,8.883952141E0,3.787240028E0
9.626606540E-1,-1.257428288E0,8.878568649E0,3.778266907E0
9.648979590E-1,-1.204786181E0,8.873184204E0,3.740580082E0
9.671351410E-1,-1.142572761E0,8.867202759E0,3.745365620E0
9.693693940E-1,-1.085145116E0,8.847461700E0,3.732205153E0
9.716054160E-1,-1.027717352E0,8.837292671E0,3.722633839E0
9.738415620E-1,-1.009172916E0,8.817551613E0,3.708875179E0
9.760781350E-1,-9.565308690E-1,8.793025017E0,3.719044685E0
9.783136080E-1,-9.188438654E-1,8.773283958E0,3.723830223E0
9.805507300E-1,-8.997012973E-1,8.777471542E0,3.729214191E0
9.827880340E-1,-8.805587292E-1,8.748757362E0,3.733999729E0
9.850244850E-1,-8.662018180E-1,8.748757362E0,3.729214191E0
9.872592870E-1,-8.285148144E-1,8.714659691E0,3.734597921E0
9.894956150E-1,-8.099704385E-1,8.685347557E0,3.744169235E0
9.917318810E-1,-8.009973764E-1,8.647063255E0,3.748954773E0
9.939685150E-1,-7.770691514E-1,8.665607452E0,3.792025566E0
9.962045380E-1,-7.483552694E-1,8.665008545E0,3.797409534E0
9.984411720E-1,-7.202396393E-1,8.645268440E0,3.850051641E0
1.000678659E0,-7.106683254E-1,8.663812637E0,3.888336897E0
1.002914499E0,-7.208378315E-1,8.659027100E0,3.935595036E0
1.005149607E0,-7.208378315E-1,8.659027100E0,3.969094515E0
1.007385752E0,-7.351947427E-1,8.673383713E0,3.978665829E0
1.009619638E0,-7.692924738E-1,8.654839516E0,4.021138668E0
1.011847239E0,-8.081758618E-1,8.645268440E0,4.063611031E0
1.014095285E0,-8.087740541E-1,8.635697365E0,4.101896286E0
1.016331675E0,-8.279166222E-1,8.631509781E0,4.116253376E0
1.018571725E0,-8.333004713E-1,8.621339798E0,4.159324169E0
1.020804819E0,-8.524430394E-1,8.617152214E0,4.197010994E0
1.023039988E0,-8.727820516E-1,8.607581139E0,4.253840446E0
1.025273325E0,-8.967102766E-1,8.617152214E0,4.272983074E0
1.027500498E0,-8.721838593E-1,8.616554260E0,4.268197536E0
1.029749216E0,-8.967102766E-1,8.621937752E0,4.330410957E0
1.031985056E0,-9.110672474E-1,8.626724243E0,4.339384079E0
1.034224924E0,-8.877372146E-1,8.626125336E0,4.382454872E0
1.036459177E0,-8.925228715E-1,8.635697365E0,4.382454872E0
1.038695322E0,-9.020941257E-1,8.640482903E0,4.420739651E0
1.040930368E0,-8.883354068E-1,8.611768723E0,4.425525665E0
1.043166453E0,-8.877372146E-1,8.630910873E0,4.415954113E0
1.045402964E0,-9.074779749E-1,8.606983185E0,4.439882278E0
1.047640085E0,-9.218349457E-1,8.611768723E0,4.453640938E0
1.049875498E0,-9.457631707E-1,8.612366676E0,4.463212490E0
1.052112314E0,-9.744769931E-1,8.627322197E0,4.434498787E0
1.054345285E0,-1.013360381E0,8.599205971E0,4.448257446E0
1.056569040E0,-1.016949654E0,8.656634331E0,4.433900356E0
1.058820444E0,-1.036092162E0,8.666205406E0,4.429114819E0
1.061056589E0,-1.040877819E0,8.670990944E0,4.419543266E0
1.063297251E0,-1.040279627E0,8.685946465E0,4.400400639E0
1.065529551E0,-1.040279627E0,8.690134048E0,4.428516388E0
1.067765879E0,-1.030708313E0,8.685347557E0,4.419543266E0
1.070002390E0,-1.016351461E0,8.680562019E0,4.405186653E0
1.072239816E0,-1.021137118E0,8.685347557E0,4.400400639E0
1.074476023E0,-1.040279627E0,8.685347557E0,4.405186653E0
1.076710947E0,-1.010967612E0,8.709276199E0,4.409972191E0
1.078947214E0,-1.006780148E0,8.699705124E0,4.419543266E0
1.081183236E0,-1.025922656E0,8.685347557E0,4.438685894E0
1.083419931E0,-1.025922656E0,8.709276199E0,4.429114819E0
1.085656199E0,-1.025922656E0,8.718847275E0,4.443471432E0
1.087892832E0,-9.876375198E-1,8.727222443E0,4.510470867E0
1.090130136E0,-1.007378340E0,8.694320679E0,4.519443989E0
1.092366159E0,-9.936196208E-1,8.679366112E0,4.524827480E0
1.094601267E0,-9.984052777E-1,8.660223007E0,4.529613495E0
1.096834421E0,-9.744769931E-1,8.636295319E0,4.515256405E0
1.099058969E0,-9.750752449E-1,8.626724243E0,4.534399033E0
1.101298410E0,-9.804590940E-1,8.593224525E0,4.524827480E0
1.103546946E0,-9.756734371E-1,8.588438988E0,4.520041943E0
1.105786387E0,-9.756734371E-1,8.559724808E0,4.510470867E0
1.108023508E0,-9.661021233E-1,8.559724808E0,4.505684853E0
1.110256418E0,-9.708877802E-1,8.550153732E0,4.491926193E0
1.112491343E0,-9.613165259E-1,8.550153732E0,4.491926193E0
1.114727732E0,-9.661021233E-1,8.569295883E0,4.477569580E0
1.116964060E0,-9.517452121E-1,8.554939270E0,4.458426952E0
1.119200754E0,-9.278169870E-1,8.563912392E0,4.467998028E0
1.121436960E0,-9.511470199E-1,8.569295883E0,4.463212490E0
1.123673044E0,-9.367900491E-1,8.574081421E0,4.448855400E0
1.125898752E0,-9.511470199E-1,8.559724808E0,4.434498787E0
1.128134409E0,-9.511470199E-1,8.578866959E0,4.434498787E0
1.130369944E0,-9.607182741E-1,8.574081421E0,4.429712772E0
1.132606089E0,-9.846464992E-1,8.584251404E0,4.453042984E0
1.134842539E0,-1.013360381E0,8.580063820E0,4.433900356E0
1.137079111E0,-1.046261668E0,8.608778000E0,4.448257446E0
1.139315683E0,-1.060618639E0,8.638090134E0,4.433301926E0
1.141551950E0,-1.074975610E0,8.642875671E0,4.447659016E0
1.143789072E0,-1.112662554E0,8.681758881E0,4.432703972E0
1.146025217E0,-1.122233868E0,8.672187805E0,4.456632137E0
1.148260324E0,-1.135992527E0,8.706285477E0,4.437489510E0
1.150497080E0,-1.145563841E0,8.720642090E0,4.432703972E0
1.152732920E0,-1.149751306E0,8.734998703E0,4.432703972E0
1.154969797E0,-1.174277663E0,8.721240044E0,4.417748928E0
1.157205698E0,-1.169492126E0,8.716454506E0,4.408775806E0
1.159442514E0,-1.168893814E0,8.735597610E0,4.412963390E0
1.161680368E0,-1.164706469E0,8.720642090E0,4.427918434E0
1.163916941E0,-1.198205948E0,8.721240044E0,4.427320004E0
1.166151865E0,-1.179661512E0,8.692526817E0,4.446462631E0
1.168390024E0,-1.185045362E0,8.663812637E0,4.475176334E0
1.170637949E0,-1.185045362E0,8.691927910E0,4.518247128E0
1.172874460E0,-1.183848977E0,8.744570732E0,4.523033142E0
1.175110544E0,-1.165304661E0,8.724829674E0,4.546961308E0
1.177344370E0,-1.169492126E0,8.749356270E0,4.527818680E0
1.179581491E0,-1.135992527E0,8.748757362E0,4.527818680E0
1.181815439E0,-1.097707391E0,8.738588333E0,4.504488468E0
1.184043161E0,-1.102493048E0,8.729017258E0,4.470989227E0
1.186289072E0,-1.106680512E0,8.743971825E0,4.437489510E0
1.188525338E0,-1.112064362E0,8.710473061E0,4.432703972E0
1.190764352E0,-1.116251707E0,8.711071014E0,4.389633179E0
1.192997995E0,-1.121037364E0,8.691927910E0,4.366302967E0
1.195232615E0,-1.101894855E0,8.696115494E0,4.356731892E0
1.197464060E0,-1.097109199E0,8.705686569E0,4.342374802E0
1.199708078E0,-1.087537885E0,8.705686569E0,4.328018188E0
1.201943613E0,-1.072582722E0,8.720044136E0,4.323830605E0
1.204181345E0,-1.048654556E0,8.743373871E0,4.347758770E0
1.206415537E0,-1.028913736E0,8.757730484E0,4.323830605E0
1.208652231E0,-1.019342422E0,8.752346992E0,4.338187218E0
1.210888437E0,-1.014556766E0,8.742775917E0,4.323830605E0
1.213125254E0,-1.014556766E0,8.757132530E0,4.319045067E0
1.215359628E0,-1.028315544E0,8.781659126E0,4.314259052E0
1.217587839E0,-1.057029366E0,8.787042618E0,4.299902439E0
1.219833384E0,-1.080957651E0,8.797212601E0,4.271188259E0
1.222065561E0,-1.089930773E0,8.806783676E0,4.256233215E0
1.224292612E0,-1.070788145E0,8.806783676E0,4.228117466E0
1.226542490E0,-1.108475089E0,8.802596092E0,4.194618225E0
1.228778818E0,-1.122832060E0,8.812167168E0,4.179663181E0
1.231019357E0,-1.151545882E0,8.807980537E0,4.179663181E0
1.233252634E0,-1.189831018E0,8.827720642E0,4.193421841E0
1.235488474E0,-1.218544960E0,8.818747520E0,4.188635826E0
1.237723825E0,-1.237687469E0,8.833105087E0,4.179064751E0
1.239959910E0,-1.275972724E0,8.838488579E0,4.173680782E0
1.242196299E0,-1.294517040E0,8.857631683E0,4.192225456E0
1.244432810E0,-1.314257860E0,8.839086533E0,4.220939159E0
1.246668955E0,-1.323829174E0,8.858229637E0,4.235296249E0
1.248905771E0,-1.323829174E0,8.872586250E0,4.259224415E0
1.251143076E0,-1.319641709E0,8.839086533E0,4.235296249E0
1.253379160E0,-1.319043517E0,8.858229637E0,4.259224415E0
1.255614206E0,-1.295713425E0,8.862417221E0,4.283152580E0
1.257850290E0,-1.252642632E0,8.856434822E0,4.307080746E0
1.260086558E0,-1.243071318E0,8.856434822E0,4.307679176E0
1.262322947E0,-1.238285661E0,8.846863747E0,4.317250252E0
1.264559275E0,-1.234098315E0,8.842078209E0,4.345963955E0
1.266795847E0,-1.234098315E0,8.842078209E0,4.350151539E0
1.269033274E0,-1.214955688E0,8.836693764E0,4.365106583E0
1.271269480E0,-1.200598717E0,8.846264839E0,4.379463673E0
1.273504343E0,-1.195813060E0,8.851051331E0,4.355535507E0
1.275740426E0,-1.182054400E0,8.821739197E0,4.369892120E0
1.277975595E0,-1.167697430E0,8.807381630E0,4.360919476E0
1.280208994E0,-1.191625714E0,8.807980537E0,4.355535507E0
1.282449717E0,-1.181456208E0,8.812766075E0,4.313062668E0
1.284686289E0,-1.195813060E0,8.807980537E0,4.289134502E0
1.286924692E0,-1.195813060E0,8.812766075E0,4.293920040E0
1.289159617E0,-1.200000525E0,8.813364029E0,4.260420799E0
1.291393991E0,-1.214357495E0,8.813364029E0,4.231706619E0
1.293627878E0,-1.223330617E0,8.837890625E0,4.207778454E0
1.295867135E0,-1.270588875E0,8.852845192E0,4.178466320E0
1.298100778E0,-1.289731383E0,8.867800713E0,4.168895245E0
1.300328867E0,-1.308275819E0,8.886942863E0,4.168296814E0
1.302576731E0,-1.341177106E0,8.940183640E0,4.139583111E0
1.304814218E0,-1.354935765E0,8.950352669E0,4.115654945E0
1.307050546E0,-1.383051515E0,8.970093727E0,4.082155228E0
1.309272348E0,-1.378265858E0,8.984451294E0,4.058227062E0
1.311509531E0,-1.367498159E0,9.017950058E0,4.015156269E0
1.313758921E0,-1.348355532E0,9.012566566E0,3.972683907E0
1.315996347E0,-1.338784218E0,9.012566566E0,3.972683907E0
1.318233407E0,-1.304686546E0,9.007781029E0,3.925425529E0
1.320466379E0,-1.285543919E0,8.993423462E0,3.877569199E0
1.322704172E0,-1.252044439E0,8.997611046E0,3.878167391E0
1.324940317E0,-1.243071318E0,8.964112282E0,3.873381615E0
1.327175303E0,-1.223330617E0,8.944969177E0,3.826123476E0
1.329411631E0,-1.195214868E0,8.930013657E0,3.816552162E0
1.331647837E0,-1.180858016E0,8.906085968E0,3.830909014E0
1.333884287E0,-1.147358418E0,8.900702477E0,3.788436413E0
1.336120493E0,-1.128215909E0,8.886344910E0,3.793222189E0
1.338356943E0,-1.095314622E0,8.842676163E0,3.808177233E0
1.340594797E0,-1.057029366E0,8.842078209E0,3.812962770E0
1.342830759E0,-1.018744230E0,8.841479301E0,3.808775425E0
1.345065744E0,-1.000199914E0,8.812167168E0,3.813561201E0
1.347301890E0,-9.577272534E-1,8.801998138E0,3.838087559E0
1.349537974E0,-9.098708034E-1,8.787042618E0,3.853042603E0
1.351774668E0,-8.763712645E-1,8.781659126E0,3.867399693E0
1.354010935E0,-8.476574421E-1,8.804988861E0,3.872185230E0
1.356247568E0,-8.333004713E-1,8.809176445E0,3.910470486E0
1.358484873E0,-8.338986635E-1,8.785248756E0,3.948755503E0
1.360720896E0,-8.344969153E-1,8.785248756E0,3.977469444E0
1.362956003E0,-8.291130662E-1,8.799007416E0,3.987040758E0
1.365191903E0,-8.249256015E-1,8.784649849E0,4.010969162E0
1.367427683E0,-8.159525394E-1,8.775078773E0,4.039682865E0
1.369662119E0,-8.350951076E-1,8.775078773E0,4.063611031E0
1.371889658E0,-8.350951076E-1,8.760722160E0,4.068396568E0
1.374138132E0,-8.542376757E-1,8.765507698E0,4.067798615E0
1.376375193E0,-8.691928387E-1,8.746963501E0,4.110869408E0
1.378613962E0,-8.883354068E-1,8.770891190E0,4.110869408E0
1.380846445E0,-8.931210637E-1,8.742177963E0,4.101297855E0
1.383082711E0,-9.032905698E-1,8.732605934E0,4.115056515E0
1.385315866E0,-9.272187948E-1,8.728418350E0,4.124628067E0
1.387540476E0,-9.559326172E-1,8.729017258E0,4.129413605E0
1.389779673E0,-9.559326172E-1,8.729017258E0,4.105485439E0
1.392028086E0,-9.661021233E-1,8.705088615E0,4.115056515E0
1.394268625E0,-9.942178130E-1,8.734400749E0,4.114458561E0
1.396504648E0,-9.894321561E-1,8.715258598E0,4.119244099E0
1.398736826E0,-9.990034699E-1,8.729615211E0,4.119244099E0
1.400972788E0,-1.013360381E0,8.715258598E0,4.109673023E0
1.403208871E0,-1.027717352E0,8.720642090E0,4.109074593E0
1.405442514E0,-1.037288666E0,8.706285477E0,4.094717979E0
1.407669870E0,-1.022931695E0,8.720642090E0,4.100101471E0
1.409918466E0,-1.008574724E0,8.705686569E0,4.080958843E0
1.412155832E0,-9.948160052E-1,8.676973343E0,4.109673023E0
1.414395029E0,-9.948160052E-1,8.681758881E0,4.119244099E0
1.416626963E0,-9.762716293E-1,8.652446747E0,4.143172264E0
1.418863230E0,-9.762716293E-1,8.666803360E0,4.143172264E0
1.421099253E0,-9.571290612E-1,8.690134048E0,4.181457520E0
1.423335947E0,-9.571290612E-1,8.694919586E0,4.205385685E0
1.425572214E0,-9.332008362E-1,8.684749603E0,4.219742775E0
1.427808786E0,-9.332008362E-1,8.699107170E0,4.238885403E0
1.430042917E0,-9.194421172E-1,8.665607452E0,4.225126743E0
1.432267221E0,-9.098708034E-1,8.675178528E0,4.225126743E0
1.434505320E0,-9.236295223E-1,8.665607452E0,4.186841488E0
1.436753428E0,-9.098708034E-1,8.651249886E0,4.205984116E0
1.438992624E0,-9.104689956E-1,8.632107735E0,4.210769653E0
1.441229013E0,-9.242277741E-1,8.651249886E0,4.186841488E0
1.443462412E0,-9.337990284E-1,8.651848793E0,4.177269936E0
1.445699228E0,-9.427721500E-1,8.675776482E0,4.181457520E0
1.447936533E0,-9.619147182E-1,8.676374435E0,4.152743816E0
1.450172373E0,-9.708877802E-1,8.695517540E0,4.138386726E0
1.452407663E0,-9.702895880E-1,8.724231720E0,4.119244099E0
1.454643686E0,-9.559326172E-1,8.729017258E0,4.100699902E0
1.456879892E0,-9.553344250E-1,8.729017258E0,4.076771736E0
1.459116648E0,-9.643075466E-1,8.752944946E0,4.038486481E0
1.461352793E0,-9.744769931E-1,8.734400749E0,4.014558315E0
1.463589609E0,-9.451649189E-1,8.752944946E0,3.990629911E0
1.465826609E0,-9.643075466E-1,8.734400749E0,3.985844374E0
1.468062754E0,-9.451649189E-1,8.739186287E0,3.952943087E0
1.470297983E0,-9.589236975E-1,8.743971825E0,3.929014683E0
1.472533944E0,-9.499505758E-1,8.724829674E0,3.929014683E0
1.474767831E0,-9.451649189E-1,8.696115494E0,3.938585997E0
1.476996530E0,-9.314061999E-1,8.681758881E0,3.924229145E0
1.479244150E0,-9.068797827E-1,8.685946465E0,3.891327858E0
1.481479746E0,-9.122636318E-1,8.662017822E0,3.891327858E0
1.483719920E0,-8.733802438E-1,8.680562019E0,3.891327858E0
1.485952891E0,-8.590233326E-1,8.656634331E0,3.872783422E0
1.488188486E0,-8.542376757E-1,8.642276764E0,3.858426571E0
1.490424447E0,-8.261220455E-1,8.632705688E0,3.848855257E0
1.492660592E0,-8.117650747E-1,8.627322197E0,3.859024763E0
1.494897104E0,-7.782655358E-1,8.636295319E0,3.887738705E0
1.497133249E0,-7.734799385E-1,8.636295319E0,3.892524242E0
1.499370127E0,-7.830511928E-1,8.641080856E0,3.892524242E0
1.501607492E0,-7.830511928E-1,8.655437469E0,3.911666870E0
1.503843699E0,-7.974081635E-1,8.645866394E0,3.934996843E0
1.506078379E0,-8.117650747E-1,8.641678810E0,3.920639992E0
1.508314951E0,-8.452646136E-1,8.646464348E0,3.949353695E0
1.510551156E0,-8.691928387E-1,8.651848793E0,3.953541279E0
1.512787607E0,-9.176474810E-1,8.666803360E0,4.000799656E0
1.515023630E0,-9.607182741E-1,8.681758881E0,4.009772778E0
1.517260446E0,-1.008574724E0,8.691927910E0,4.014558315E0
1.519497751E0,-1.032503009E0,8.691927910E0,4.047459602E0
1.521733652E0,-1.056431174E0,8.706883430E0,4.066003799E0
1.523968943E0,-1.104287624E0,8.721838951E0,4.080360889E0
1.526205027E0,-1.118644595E0,8.717052460E0,4.089334011E0
1.528441416E0,-1.123430252E0,8.736195564E0,4.084548473E0
1.530677927E0,-1.132403374E0,8.764909744E0,4.098905087E0
1.532914011E0,-1.127617717E0,8.764909744E0,4.118047714E0
1.535150583E0,-1.123430252E0,8.750552177E0,4.118047714E0
1.537387888E0,-1.142572761E0,8.755337715E0,4.127020836E0
1.539624033E0,-1.142572761E0,8.745766640E0,4.150949001E0
1.541859385E0,-1.147358418E0,8.740981102E0,4.136591911E0
1.544095408E0,-1.171286702E0,8.765507698E0,4.170091629E0
1.546331553E0,-1.180858016E0,8.755936623E0,4.150949001E0
1.548568247E0,-1.190429211E0,8.770293236E0,4.155734539E0
1.550804148E0,-1.190429211E0,8.765507698E0,4.150949001E0
1.553040048E0,-1.176072359E0,8.741579056E0,4.131806374E0
1.555271920E0,-1.166501045E0,8.765507698E0,4.127020836E0
1.557504648E0,-1.142572761E0,8.750552177E0,4.141377926E0
1.559749521E0,-1.133001566E0,8.740981102E0,4.141975880E0
1.561983836E0,-1.118046403E0,8.760123253E0,4.113262177E0
1.564209726E0,-1.089930773E0,8.740383148E0,4.118047714E0
1.566444101E0,-1.085145116E0,8.740383148E0,4.109074593E0
1.568680124E0,-1.085145116E0,8.730812073E0,4.104289055E0
1.570919687E0,-1.089930773E0,8.735597610E0,4.122833252E0
1.573157297E0,-1.085145116E0,8.726025581E0,4.113860130E0
1.575394480E0,-1.070189953E0,8.749954224E0,4.099503517E0
1.577628122E0,-1.094716311E0,8.740383148E0,4.122833252E0
1.579865182E0,-1.070788145E0,8.735597610E0,4.113860130E0
1.582104318E0,-1.046859860E0,8.706285477E0,4.099503517E0
1.584338205E0,-1.056431174E0,8.715856552E0,4.104289055E0
1.586573801E0,-1.066600680E0,8.696713448E0,4.118646145E0
1.588809457E0,-1.057029366E0,8.706285477E0,4.118646145E0
1.591047739E0,-1.061815023E0,8.691927910E0,4.113860130E0
1.593284860E0,-1.071386337E0,8.687741280E0,4.089931965E0
1.595522593E0,-1.037886858E0,8.706285477E0,4.128217220E0
1.597754403E0,-1.037886858E0,8.691927910E0,4.128217220E0
1.599990426E0,-1.047458172E0,8.701499939E0,4.113860130E0
1.602226083E0,-1.004387259E0,8.705686569E0,4.114458561E0
1.604464182E0,-1.004387259E0,8.681758881E0,4.138386726E0
1.606700998E0,-9.804590940E-1,8.695517540E0,4.119244099E0
1.608938852E0,-9.858429432E-1,8.676374435E0,4.138386726E0
1.611178110E0,-9.571290612E-1,8.680562019E0,4.152743816E0
1.613426584E0,-9.379864931E-1,8.670990944E0,4.153341770E0
1.615645456E0,-9.427721500E-1,8.680562019E0,4.172484398E0
1.617882516E0,-9.236295223E-1,8.670392990E0,4.196412563E0
1.620119211E0,-9.188438654E-1,8.694320679E0,4.196412563E0
1.622357187E0,-9.092726111E-1,8.708678246E0,4.210769653E0
1.624590708E0,-9.086744189E-1,8.723034859E0,4.220340729E0
1.626827402E0,-8.949156404E-1,8.732007980E0,4.258625984E0
1.629063731E0,-8.895317912E-1,8.736793518E0,4.239483356E0
1.631299936E0,-8.662018180E-1,8.726624489E0,4.272983074E0
1.633532297E0,-8.949156404E-1,8.732007980E0,4.263411522E0
1.635773568E0,-8.901300430E-1,8.732007980E0,4.272983074E0
1.638008127E0,-9.086744189E-1,8.727222443E0,4.234099865E0
1.640248422E0,-9.092726111E-1,8.727222443E0,4.253242016E0
1.642485605E0,-9.140582681E-1,8.732007980E0,4.248456478E0
1.644718759E0,-9.571290612E-1,8.714061737E0,4.243670940E0
1.646955393E0,-9.613165259E-1,8.742775917E0,4.243670940E0
1.649190866E0,-9.900303483E-1,8.748159409E0,4.209573269E0
1.651426584E0,-1.009172916E0,8.752944946E0,4.195216179E0
1.653661753E0,-1.018146038E0,8.782257080E0,4.195216179E0
1.655899606E0,-1.022931695E0,8.767900467E0,4.171288013E0
1.658134653E0,-1.031904817E0,8.772686005E0,4.147359848E0
1.660371530E0,-1.017547846E0,8.791828156E0,4.147359848E0
1.662609934E0,-1.032503009E0,8.777471542E0,4.161716938E0
1.664846018E0,-1.027119160E0,8.806185722E0,4.147359848E0
1.667081797E0,-1.007976532E0,8.772686005E0,4.114458561E0
1.669316537E0,-1.003190875E0,8.772686005E0,4.114458561E0
1.671552377E0,-1.022333503E0,8.772686005E0,4.118646145E0
1.673789438E0,-1.007976532E0,8.801400185E0,4.133002758E0
1.676026194E0,-9.984052777E-1,8.796015739E0,4.138386726E0
1.678261850E0,-9.936196208E-1,8.800801277E0,4.143172264E0
1.680498423E0,-9.930213690E-1,8.815158844E0,4.138386726E0
1.682734141E0,-9.888339639E-1,8.805587769E0,4.180859566E0
1.684970774E0,-9.840483069E-1,8.805587769E0,4.180859566E0
1.687207346E0,-9.601200819E-1,8.800203323E0,4.162314892E0
1.689444162E0,-9.367900491E-1,8.785248756E0,4.191029072E0
1.691679880E0,-9.218349457E-1,8.794819832E0,4.186243057E0
1.693915964E0,-9.128618240E-1,8.775676727E0,4.191627026E0
1.696153818E0,-8.991031051E-1,8.746364594E0,4.205984116E0
1.698392099E0,-8.799605370E-1,8.741579056E0,4.225126743E0
1.700628061E0,-8.847461939E-1,8.732007980E0,4.229912281E0
1.702860605E0,-8.901300430E-1,8.722436905E0,4.239483356E0
1.705097848E0,-8.997012973E-1,8.712865829E0,4.253840446E0
1.707333140E0,-8.997012973E-1,8.717651367E0,4.267599106E0
1.709572580E0,-8.907282352E-1,8.712865829E0,4.301098824E0
1.711807688E0,-9.146564603E-1,8.712865829E0,4.310669899E0
1.714042612E0,-9.104689956E-1,8.693722725E0,4.329812527E0
1.716280588E0,-9.385846853E-1,8.717651367E0,4.348356724E0
1.718519784E0,-9.296116233E-1,8.703293800E0,4.353740692E0
1.720758249E0,-9.529415965E-1,8.732605934E0,4.357928276E0
1.722988107E0,-9.577272534E-1,8.732605934E0,4.367499352E0
1.725226327E0,-9.774680734E-1,8.713463783E0,4.367499352E0
1.727452646E0,-9.720842242E-1,8.727820396E0,4.362713814E0
1.729698373E0,-1.001396298E0,8.733204842E0,4.386044025E0
1.731934519E0,-1.020538807E0,8.728418350E0,4.386044025E0
1.734173716E0,-1.024726272E0,8.752346992E0,4.390829563E0
1.736406992E0,-1.034297585E0,8.742775917E0,4.381258488E0
1.738643381E0,-1.049252748E0,8.729017258E0,4.390231133E0
1.740877695E0,-1.068395257E0,8.738588333E0,4.404588223E0
1.743117197E0,-1.073180914E0,8.705088615E0,4.385445595E0
1.745351205E0,-1.092921734E0,8.700901031E0,4.399802685E0
1.747586679E0,-1.092921734E0,8.686544418E0,4.395017147E0
1.749825571E0,-1.111466169E0,8.706285477E0,4.375874519E0
1.752060984E0,-1.131206870E0,8.687142372E0,4.370490551E0
1.754300181E0,-1.126421213E0,8.663214684E0,4.371088982E0
1.756545542E0,-1.131206870E0,8.658429146E0,4.361517429E0
1.758781870E0,-1.107278705E0,8.653642654E0,4.366302967E0
1.761018015E0,-1.116850019E0,8.663214684E0,4.337589264E0
1.763251780E0,-1.116850019E0,8.644071579E0,4.304089546E0
1.765484995E0,-1.083350420E0,8.638688087E0,4.319045067E0
1.767712900E0,-1.088136077E0,8.629714966E0,4.290330887E0
1.769962168E0,-1.068993568E0,8.619544983E0,4.275974274E0
1.772198252E0,-1.078564763E0,8.620143890E0,4.280759811E0
1.774436288E0,-1.073779106E0,8.620143890E0,4.266402721E0
1.776669443E0,-1.083350420E0,8.615358353E0,4.261617184E0
1.778905955E0,-1.083350420E0,8.615358353E0,4.252045631E0
1.781142283E0,-1.069591761E0,8.590831757E0,4.266402721E0
1.783378428E0,-1.107278705E0,8.592027664E0,4.247260094E0
1.785615183E0,-1.097707391E0,8.601598740E0,4.218546391E0
1.787852548E0,-1.111466169E0,8.625527382E0,4.208974838E0
1.790088633E0,-1.101296663E0,8.644669533E0,4.175475597E0
1.792323679E0,-1.101894855E0,8.611170769E0,4.170690060E0
1.794559763E0,-1.106082320E0,8.635098457E0,4.185046673E0
1.796796152E0,-1.101894855E0,8.620741844E0,4.170690060E0
1.799032908E0,-1.115653515E0,8.635098457E0,4.161118507E0
1.801268808E0,-1.115653515E0,8.635697365E0,4.146761417E0
1.803505625E0,-1.130010486E0,8.640482903E0,4.141975880E0
1.805742868E0,-1.144367456E0,8.645268440E0,4.137190342E0
1.807976816E0,-1.178465128E0,8.617152214E0,4.150949001E0
1.810205210E0,-1.168295622E0,8.612366676E0,4.113262177E0
1.812449839E0,-1.163509965E0,8.607581139E0,4.113262177E0
1.814686228E0,-1.182652593E0,8.603393555E0,4.084548473E0
1.816925180E0,-1.168295622E0,8.569893837E0,4.041477680E0
1.819158945E0,-1.177866936E0,8.565108299E0,3.998406649E0
1.821395761E0,-1.168295622E0,8.545966148E0,3.979862213E0
1.823633066E0,-1.172483087E0,8.541778564E0,3.927220106E0
1.825869455E0,-1.163509965E0,8.522636414E0,3.908077478E0
1.828104502E0,-1.143769264E0,8.517850876E0,3.875176191E0
1.830340525E0,-1.129412293E0,8.512466431E0,3.841676712E0
1.832576548E0,-1.095912814E0,8.517251968E0,3.832703590E0
1.834813120E0,-1.076171994E0,8.526225090E0,3.823132277E0
1.837049265E0,-1.033699393E0,8.473583221E0,3.771088600E0
1.839286142E0,-9.954141974E-1,8.468199730E0,3.757329702E0
1.841523447E0,-9.714859724E-1,8.462815285E0,3.762115479E0
1.843759531E0,-9.332008362E-1,8.457431793E0,3.743571043E0
1.845995004E0,-8.853443861E-1,8.432905197E0,3.720241070E0
1.848232371E0,-8.614161611E-1,8.428119659E0,3.705883980E0
1.850467051E0,-8.231309652E-1,8.417949677E0,3.706482172E0
1.852703806E0,-8.093722463E-1,8.394021988E0,3.716053486E0
1.854939279E0,-7.854440212E-1,8.355138779E0,3.678366661E0
1.857176462E0,-7.663014531E-1,8.359924316E0,3.711866140E0
1.859413462E0,-7.531409264E-1,8.316255569E0,3.745365620E0
1.861649668E0,-7.244270444E-1,8.310871124E0,3.741178274E0
1.863884958E0,-6.861419082E-1,8.286344528E0,3.755535126E0
1.866121103E0,-6.580262184E-1,8.280961037E0,3.774677753E0
1.868357371E0,-6.628118753E-1,8.261817932E0,3.798605919E0
1.870593699E0,-6.299105883E-1,8.251648903E0,3.827918053E0
1.872830088E0,-6.305087805E-1,8.232506752E0,3.865604877E0
1.875066904E0,-6.011967063E-1,8.251050949E0,3.856631994E0
1.877304331E0,-6.065805554E-1,8.241478920E0,3.866203070E0
1.879540537E0,-6.203392744E-1,8.280363083E0,3.861417532E0
1.881775339E0,-6.352944374E-1,8.266005516E0,3.913461447E0
1.884011361E0,-6.634100676E-1,8.299505234E0,3.932005882E0
1.886243905E0,-7.016952634E-1,8.328817368E0,3.960719585E0
1.888470102E0,-7.214360237E-1,8.324031830E0,3.993621111E0
1.890720224E0,-7.453642488E-1,8.338987350E0,4.026522160E0
1.892957346E0,-7.740781307E-1,8.353343964E0,4.069592953E0
1.895197458E0,-8.315058947E-1,8.373085022E0,4.088137627E0
1.897428049E0,-8.602197170E-1,8.392825127E0,4.106681824E0
1.899665659E0,-8.991031051E-1,8.378468513E0,4.134797573E0
1.901901499E0,-9.278169870E-1,8.374280930E0,4.177868366E0
1.904138498E0,-9.714859724E-1,8.360522270E0,4.205984116E0
1.906374460E0,-1.024726272E0,8.356334686E0,4.229313850E0
1.908610849E0,-1.077368379E0,8.352147102E0,4.257429600E0
1.910847422E0,-1.125224829E0,8.362317085E0,4.271188259E0
1.913084726E0,-1.153938770E0,8.362915039E0,4.280161381E0
1.915317758E0,-1.188036442E0,8.353941917E0,4.284946918E0
1.917543955E0,-1.188036442E0,8.377271652E0,4.351347923E0
1.919792185E0,-1.202393413E0,8.391629219E0,4.346562386E0
1.922028269E0,-1.216750264E0,8.415556908E0,4.384847641E0
1.924267831E0,-1.221535921E0,8.425128937E0,4.412963390E0
1.926500864E0,-1.221535921E0,8.434700012E0,4.470390797E0
1.928738107E0,-1.207179070E0,8.462815285E0,4.527818680E0
1.930977243E0,-1.193420291E0,8.457431793E0,4.556532383E0
1.933210947E0,-1.140179992E0,8.456833839E0,4.537988186E0
1.935446299E0,-1.121037364E0,8.480761528E0,4.514060020E0
1.937681772E0,-1.082752228E0,8.465806961E0,4.514657974E0
1.939918711E0,-1.058225870E0,8.474779129E0,4.495515347E0
1.942155222E0,-1.014556766E0,8.517251968E0,4.491328239E0
1.944391367E0,-9.714859724E-1,8.516654015E0,4.482355118E0
1.946628183E0,-9.038887620E-1,8.554341316E0,4.459024906E0
1.948865427E0,-8.404789567E-1,8.615358353E0,4.450051785E0
1.951101328E0,-7.920243144E-1,8.648259163E0,4.416552544E0
1.953336618E0,-7.190431952E-1,8.680562019E0,4.403391838E0
1.955570139E0,-6.562315822E-1,8.727820396E0,4.375276089E0
1.957798777E0,-6.221339107E-1,8.760722160E0,4.370490551E0
1.960045359E0,-5.742774606E-1,8.755337715E0,4.351946354E0
1.962281687E0,-5.306084156E-1,8.778668404E0,4.356731892E0
1.964520822E0,-5.210371017E-1,8.787641525E0,4.380660057E0
1.966755625E0,-5.018945336E-1,8.773283958E0,4.366901398E0
1.968991770E0,-5.497509837E-1,8.793025017E0,4.390231133E0
1.971224252E0,-5.694918036E-1,8.760123253E0,4.380660057E0
1.973447458E0,-6.227321029E-1,8.741579056E0,4.380061626E0
1.975684458E0,-6.897311211E-1,8.733204842E0,4.398606300E0
1.977928964E0,-1.063609719E0,8.370692253E0,4.333401680E0
1.980164866E0,-1.247856975E0,8.248658180E0,4.384847641E0
1.982412180E0,-1.144367456E0,8.486145973E0,4.490131855E0
1.984647288E0,-1.060618639E0,8.685347557E0,4.542773724E0
1.986884653E0,-1.000199914E0,8.880363464E0,4.567300320E0
1.989117441E0,-9.176474810E-1,9.031708717E0,4.634299278E0
1.991350412E0,-8.201399446E-1,9.183054924E0,4.739583492E0
1.993577584E0,-7.381857634E-1,9.276973724E0,4.821537495E0
1.995826120E0,-6.699903607E-1,9.357132912E0,4.846064091E0
1.998059458E0,-6.789634228E-1,9.400203705E0,4.864608288E0
2.000290049E0,-7.507480979E-1,9.396614075E0,4.820939541E0
2.002536142E0,-9.373882413E-1,9.380462646E0,4.791028976E0
2.004772409E0,-1.143769264E0,9.330811501E0,4.760520458E0
2.007010507E0,-1.409372568E0,9.172885895E0,4.725226402E0
2.009243662E0,-1.750947952E0,9.087342262E0,4.698307037E0
2.011479868E0,-1.919043779E0,9.027522087E0,4.682155609E0
2.013716257E0,-2.092523336E0,8.991629601E0,4.704887390E0
2.015952585E0,-2.241476536E0,8.941379547E0,4.694119930E0
2.018188730E0,-2.337189436E0,8.952746391E0,4.692923546E0
2.020424875E0,-2.278565407E0,9.037691116E0,4.745565414E0
2.022662790E0,-2.152343988E0,9.193224907E0,4.803591251E0
2.024897715E0,-1.963909149E0,9.333204269E0,4.881358147E0
2.027134470E0,-1.770688772E0,9.464211464E0,4.921437740E0
2.029370249E0,-1.654038668E0,9.596415520E0,4.941178799E0
2.031606699E0,-1.537986755E0,9.704092026E0,4.980062008E0
2.033843027E0,-1.436890006E0,9.769296646E0,5.005186558E0
2.036079721E0,-1.393221021E0,9.821340561E0,5.024329185E0
2.038316660E0,-1.335793257E0,9.805787086E0,5.044070244E0
2.040552927E0,-1.355534077E0,9.758528709E0,5.029713154E0
2.042788034E0,-1.395015597E0,9.677771568E0,5.010570526E0
2.045024485E0,-1.429711580E0,9.564111710E0,4.967499733E0
2.047260691E0,-1.478764415E0,9.464211464E0,4.928616524E0
2.049497019E0,-1.523629785E0,9.340981483E0,4.904688358E0
2.051733103E0,-1.572084427E0,9.256035805E0,4.871188641E0
2.053966867E0,-1.611566067E0,9.208778381E0,4.866403103E0
2.056195078E0,-1.621137381E0,9.165707588E0,4.847260475E0
2.058443369E0,-1.612164259E0,9.146564484E0,4.852046013E0
2.060678415E0,-1.573879123E0,9.136395454E0,4.847260475E0
2.062917550E0,-1.530808330E0,9.121439934E0,4.823930264E0
2.065150828E0,-1.487737536E0,9.125627518E0,4.848456860E0
2.067387461E0,-1.439880967E0,9.105886459E0,4.829912663E0
2.069623789E0,-1.363908887E0,9.061619759E0,4.806582451E0
2.071860300E0,-1.344766378E0,9.042476654E0,4.806582451E0
2.074097422E0,-1.320838094E0,9.017950058E0,4.778466702E0
2.076333689E0,-1.302891970E0,8.965308189E0,4.783252239E0
2.078568796E0,-1.303490162E0,8.922237396E0,4.793421745E0
2.080804940E0,-1.298704505E0,8.903095245E0,4.793421745E0
2.083041208E0,-1.294517040E0,8.869595528E0,4.793421745E0
2.085274790E0,-1.310070395E0,8.816953659E0,4.812564373E0
2.087501963E0,-1.305284739E0,8.778668404E0,4.802993298E0
2.089750742E0,-1.325025558E0,8.754739761E0,4.831109047E0
2.091987986E0,-1.306481123E0,8.716454506E0,4.826921463E0
2.094223947E0,-1.297508121E0,8.692526817E0,4.822135925E0
2.096444406E0,-1.292722464E0,8.691927910E0,4.836492538E0
2.098680063E0,-1.259222865E0,8.681758881E0,4.846662045E0
2.100919687E0,-1.249651670E0,8.681758881E0,4.846662045E0
2.103171090E0,-1.250249863E0,8.643473625E0,4.856233597E0
2.105404428E0,-1.250249863E0,8.657830238E0,4.856233597E0
2.107632395E0,-1.283749342E0,8.644071579E0,4.850849628E0
2.109878427E0,-1.322034478E0,8.639883995E0,4.841278553E0
2.112114511E0,-1.322034478E0,8.639883995E0,4.846064091E0
2.114352487E0,-1.350748420E0,8.635697365E0,4.835894585E0
2.116585581E0,-1.365703583E0,8.626125336E0,4.831109047E0
2.118818247E0,-1.375274777E0,8.626724243E0,4.826323509E0
2.121041696E0,-1.379462242E0,8.636295319E0,4.816751957E0
2.123282969E0,-1.341775298E0,8.611768723E0,4.822135925E0
2.125531504E0,-1.336989641E0,8.606983185E0,4.817350388E0
2.127771982E0,-1.313061476E0,8.601598740E0,4.817350388E0
2.130007516E0,-1.304088354E0,8.577671051E0,4.817350388E0
2.132239634E0,-1.280160069E0,8.572287560E0,4.822733879E0
2.134475779E0,-1.241874933E0,8.548358917E0,4.784449100E0
2.136712168E0,-1.232303619E0,8.528617859E0,4.785047054E0
2.138944772E0,-1.189831018E0,8.508877754E0,4.808975220E0
2.141168161E0,-1.175474167E0,8.494520187E0,4.804189682E0
2.143421396E0,-1.165902853E0,8.484949112E0,4.785645485E0
2.145658884E0,-1.123430252E0,8.450851440E0,4.781457901E0
2.147899179E0,-1.085743308E0,8.407182693E0,4.781457901E0
2.150130136E0,-1.076171994E0,8.392825127E0,4.748556614E0
2.152366099E0,-1.052243710E0,8.377870560E0,4.758127689E0
2.154602244E0,-1.047458172E0,8.363512993E0,4.762913704E0
2.156839060E0,-1.042672515E0,8.377870560E0,4.748556614E0
2.159075144E0,-1.023529887E0,8.373085022E0,4.753940582E0
2.161311899E0,-1.032503009E0,8.397012711E0,4.730011940E0
2.163549631E0,-1.042074203E0,8.387441635E0,4.701298237E0
2.165785654E0,-1.042074203E0,8.373085022E0,4.696512699E0
2.168020517E0,-1.061815023E0,8.359326363E0,4.676771641E0
2.170256417E0,-1.033101201E0,8.321041107E0,4.643870354E0
2.172492502E0,-1.023529887E0,8.306683540E0,4.596612453E0
2.174729197E0,-1.018744230E0,8.277970314E0,4.577469826E0
2.176965586E0,-1.033101201E0,8.287541389E0,4.567898273E0
2.179203806E0,-1.061815023E0,8.264809608E0,4.505684853E0
2.181445139E0,-1.104287624E0,8.274978638E0,4.495515347E0
2.183675730E0,-1.142572761E0,8.275577545E0,4.466801643E0
2.185910593E0,-1.166501045E0,8.266604424E0,4.447659016E0
2.188145517E0,-1.180858016E0,8.266604424E0,4.427918434E0
2.190382943E0,-1.180858016E0,8.276175499E0,4.437489510E0
2.192619638E0,-1.171286702E0,8.257032394E0,4.442873478E0
2.194855906E0,-1.142572761E0,8.246863365E0,4.452444553E0
2.197092539E0,-1.119242787E0,8.242077827E0,4.457230568E0
2.199329843E0,-1.080957651E0,8.236095428E0,4.472185612E0
2.201565928E0,-1.052243710E0,8.221738815E0,4.481756687E0
2.203801218E0,-1.038485050E0,8.201997757E0,4.472783566E0
2.206037119E0,-1.028315544E0,8.221140862E0,4.477569580E0
2.208273629E0,-1.033699393E0,8.216354370E0,4.500899315E0
2.210509958E0,-1.024128079E0,8.221140862E0,4.524827480E0
2.212746347E0,-1.009172916E0,8.258827209E0,4.539184570E0
2.214982859E0,-1.159920812E0,8.093722343E0,4.509872437E0
2.217219675E0,-1.174277663E0,8.103293419E0,4.537988186E0
2.219450632E0,-1.115653515E0,8.179265976E0,4.562514782E0
2.221677622E0,-1.071984529E0,8.230711937E0,4.572085857E0
2.223927195E0,-1.019342422E0,8.239685059E0,4.610969067E0
2.226164316E0,-9.481559992E-1,8.233702660E0,4.621138573E0
2.228403757E0,-9.140582681E-1,8.266604424E0,4.654638290E0
2.230636545E0,-8.943174481E-1,8.299505234E0,4.631308079E0
2.232873300E0,-8.506484628E-1,8.337192535E0,4.626522541E0
2.235110605E0,-8.452646136E-1,8.380263329E0,4.636094093E0
2.237346628E0,-8.309076428E-1,8.389834404E0,4.631308079E0
2.239581492E0,-8.500502706E-1,8.394619942E0,4.650450706E0
2.241817759E0,-8.835497499E-1,8.376075745E0,4.640281200E0
2.244053904E0,-9.176474810E-1,8.352746010E0,4.625924587E0
2.246290842E0,-9.463613629E-1,8.329415321E0,4.597210407E0
2.248527109E0,-9.894321561E-1,8.292326927E0,4.539782524E0
2.250763681E0,-9.900303483E-1,8.234899521E0,4.467998028E0
2.253000681E0,-1.037288666E0,8.202595711E0,4.396213531E0
2.255234690E0,-1.070788145E0,8.170292854E0,4.305285931E0
2.257463816E0,-1.075573802E0,8.175078392E0,4.267001152E0
2.259708262E0,-1.085145116E0,8.146963120E0,4.224528313E0
2.261941111E0,-1.113260746E0,8.171489716E0,4.195216179E0
2.264169260E0,-1.122233868E0,8.171489716E0,4.156930923E0
2.266417246E0,-1.140778184E0,8.205587387E0,4.142574310E0
2.268654062E0,-1.144965649E0,8.267800331E0,4.128217220E0
2.270894785E0,-1.158724308E0,8.296514511E0,4.132404804E0
2.273127146E0,-1.129412293E0,8.319844246E0,4.113860130E0
2.275359323E0,-1.119242787E0,8.362915039E0,4.123431683E0
2.277586863E0,-1.137787223E0,8.397012711E0,4.123431683E0
2.279834848E0,-1.147956610E0,8.373085022E0,4.113262177E0
2.282071054E0,-1.124028444E0,8.377271652E0,4.109074593E0
2.284310495E0,-1.119242787E0,8.348558426E0,4.109074593E0
2.286544138E0,-1.173081279E0,8.297112465E0,4.094119549E0
2.288781504E0,-1.326221943E0,7.902894974E0,3.988835335E0
2.291017283E0,-1.761715651E0,7.518248558E0,3.827918053E0
2.293252573E0,-1.906481385E0,7.405786037E0,3.774677753E0
2.295488473E0,-1.990230203E0,7.616952896E0,3.835096598E0
2.297725106E0,-1.921436548E0,7.778468132E0,3.883551121E0
2.299961679E0,-1.842473388E0,8.006384850E0,3.998406649E0
2.302198069E0,-1.695913076E0,8.257032394E0,4.161118507E0
2.304434580E0,-1.493121386E0,8.449056625E0,4.291527271E0
2.306668832E0,-1.295115232E0,8.608179092E0,4.407579422E0
2.308895639E0,-1.083948612E0,8.718847275E0,4.552345276E0
2.311142710E0,-8.871390224E-1,8.787641525E0,4.639683247E0
2.313378855E0,-7.776673436E-1,8.770891190E0,4.698307037E0
2.315618417E0,-9.583254457E-1,8.361120224E0,4.978267670E0
2.317851816E0,-1.427916884E0,7.929215908E0,4.755734921E0
2.320088144E0,-1.564307809E0,7.875975609E0,4.406383038E0
2.322324655E0,-1.504487276E0,7.980661869E0,4.268197536E0
2.324562082E0,-1.339382529E0,8.083553314E0,4.207778454E0
2.326798349E0,-1.146162033E0,8.210372925E0,4.176073551E0
2.329033457E0,-9.332008362E-1,8.326424599E0,4.153940201E0
2.331269480E0,-7.543373108E-1,8.405387878E0,4.121636868E0
2.333505564E0,-6.095715761E-1,8.470592499E0,4.070789337E0
2.335742380E0,-4.695914388E-1,8.530412674E0,4.057629108E0
2.337975717E0,-4.121637046E-1,8.586644173E0,4.138985157E0
2.340204172E0,-4.366901219E-1,8.591429710E0,4.243670940E0
2.342452585E0,-5.084748268E-1,8.583054543E0,4.233501434E0
2.344687814E0,-5.611169338E-1,8.583653450E0,4.204189301E0
2.346920847E0,-6.323033571E-1,8.599205971E0,4.179663181E0
2.349147593E0,-7.369893789E-1,8.648857117E0,4.126422882E0
2.351395029E0,-8.273184299E-1,8.669795036E0,4.101896286E0
2.353629587E0,-9.032905698E-1,8.690134048E0,4.086941242E0
2.355872079E0,-1.042672515E0,8.687142372E0,4.094717979E0
2.358102548E0,-1.241874933E0,8.814560890E0,4.064209461E0
2.360332956E0,-1.460219979E0,8.918647766E0,4.048057556E0
2.362578806E0,-1.631306887E0,9.002396584E0,4.017549038E0
2.364814280E0,-1.797608018E0,9.081958771E0,3.991826296E0
2.367052927E0,-1.969292998E0,9.132207870E0,3.966701746E0
2.369286326E0,-2.127219439E0,9.125029564E0,3.917050600E0
2.371522837E0,-2.256431818E0,9.103493690E0,3.849453449E0
2.373758982E0,-2.352144718E0,9.058030128E0,3.729214191E0
2.375995798E0,-2.313859463E0,8.957531929E0,3.572484255E0
2.378232920E0,-2.327019930E0,8.925228119E0,3.400799274E0
2.380469187E0,-2.316850424E0,8.925827026E0,3.281756163E0
2.382704111E0,-2.230708838E0,8.848059654E0,3.177668571E0
2.384937693E0,-2.191227436E0,8.848059654E0,3.044268608E0
2.387164682E0,-2.161317110E0,8.872586250E0,2.921038151E0
2.389413095E0,-2.097907305E0,8.905488014E0,2.845066071E0
2.391649302E0,-1.992024899E0,8.904291153E0,2.769692183E0
2.393888925E0,-1.880758643E0,8.917451859E0,2.651247501E0
2.396123361E0,-1.896910191E0,9.061619759E0,2.574677229E0
2.398359629E0,-1.875972986E0,9.176474571E0,2.493919373E0
2.400594736E0,-1.740180254E0,9.208179474E0,2.408974171E0
2.402830759E0,-1.420140266E0,9.055637360E0,2.255235434E0
2.405066842E0,-1.109073281E0,8.965308189E0,2.133799553E0
2.407303720E0,-9.798609018E-1,8.935398102E0,2.078166485E0
2.409539988E0,-9.990034699E-1,8.954540253E0,2.096710920E0
2.411776438E0,-1.074975610E0,9.003593445E0,2.105684042E0
2.414013925E0,-1.098305583E0,9.080163956E0,2.172084808E0
2.416249888E0,-1.012163997E0,9.154341698E0,2.296511650E0
2.418484873E0,-6.029912829E-1,9.244071960E0,2.252842426E0
2.420721140E0,-2.309073806E-1,9.468399048E0,2.260619164E0
2.422957467E0,2.213360928E-2,9.501898766E0,2.420340061E0
2.425193551E0,2.129612118E-1,9.616754532E0,2.736192703E0
2.427428842E0,3.882354796E-1,9.708279610E0,3.128615618E0
2.429670359E0,4.773681164E-1,9.442078590E0,3.487539053E0
2.431904001E0,3.762713671E-1,9.136993408E0,3.597010612E0
2.434140634E0,3.002992272E-1,8.831908226E0,3.568296671E0
2.436374277E0,3.373879790E-1,8.764310837E0,3.640081406E0
2.438611338E0,2.518445849E-1,8.827720642E0,3.625126362E0
2.440847849E0,1.333998591E-1,8.882157326E0,3.590430260E0
2.443084177E0,-5.383851007E-3,8.889336586E0,3.550948858E0
2.445317392E0,-1.339980662E-1,8.906085968E0,3.511467218E0
2.447545359E0,-2.249253243E-1,8.912068367E0,3.458226919E0
2.449794504E0,-3.056831062E-1,8.918647766E0,3.400201082E0
2.452030771E0,-3.583251834E-1,8.886344910E0,3.318845034E0
2.454265024E0,-4.396811724E-1,8.849854469E0,3.236890793E0
2.456487742E0,-4.833501875E-1,8.764310837E0,3.160320520E0
2.458737864E0,-6.245267391E-1,8.551948547E0,3.087937593E0
2.460974375E0,-7.316055298E-1,8.372486115E0,2.968296528E0
2.463214426E0,-7.160521746E-1,8.330014229E0,2.725425005E0
2.465444467E0,-6.999006271E-1,8.316853523E0,2.510669231E0
2.467672678E0,-6.693921089E-1,8.341380119E0,2.291725874E0
2.469920908E0,-5.994020700E-1,8.407780647E0,2.101496458E0
2.472153452E0,-5.258227587E-1,8.436494827E0,1.911267042E0
2.474383493E0,-4.187439680E-1,8.435895920E0,1.716850281E0
2.476625925E0,-2.309073806E-1,8.400602341E0,1.466202021E0
2.478864878E0,-1.938186288E-1,8.124231339E0,1.185643673E0
2.481103830E0,5.982056609E-4,7.849654675E0,9.254241586E-1
2.483338510E0,3.744767308E-1,7.490731239E0,8.003991842E-1
2.485575205E0,7.094719410E-1,7.118049145E0,7.758727670E-1
2.487811228E0,8.057830334E-1,6.895516872E0,9.248259664E-1
2.490046091E0,8.111668825E-1,6.693921566E0,1.092323542E0
2.492282357E0,6.885347366E-1,6.570691109E0,1.267597795E0
2.494518503E0,4.797609448E-1,6.558128834E0,1.527817249E0
2.496755381E0,2.291127741E-1,6.612565517E0,1.887937069E0
2.498991404E0,-2.153540403E-2,6.734001160E0,2.267199516E0
2.501228037E0,-1.998006850E-1,6.902096748E0,2.689532757E0
2.503465341E0,-2.961117923E-1,7.121040344E0,3.174677372E0
2.505701670E0,-3.206382394E-1,7.353742123E0,3.650849104E0
2.507936716E0,-3.302095234E-1,7.585845947E0,4.122235298E0
2.510172556E0,-2.745763958E-1,7.688138962E0,4.532604218E0
2.512408822E0,-3.020938635E-1,7.610372543E0,4.847260475E0
2.514645456E0,-4.947160780E-1,7.712665558E0,5.136193752E0
2.516881906E0,-6.574280262E-1,7.857431412E0,5.363512039E0
2.519118723E0,-8.015955687E-1,7.948956966E0,5.614758492E0
2.521355966E0,-1.001994491E0,8.114061356E0,5.827121258E0
2.523591745E0,-1.239482164E0,8.360522270E0,6.020341873E0
2.525826792E0,-1.476371527E0,8.678768158E0,6.222535133E0
2.528062876E0,-1.765304923E0,8.978468895E0,6.372086525E0
2.530299265E0,-2.054836512E0,9.254839897E0,6.507281303E0
2.532535837E0,-2.374876499E0,9.416953087E0,6.689733982E0
2.534771982E0,-2.572284460E0,9.447462082E0,6.854838848E0
2.537008737E0,-2.712862730E0,9.368498802E0,6.920641422E0
2.539245859E0,-2.863610506E0,9.193822861E0,6.905087948E0
2.541482187E0,-2.929413080E0,8.955737114E0,6.905087948E0
2.543717234E0,-2.977269650E0,8.654839516E0,6.961917400E0
2.545953379E0,-2.964108944E0,8.290532112E0,7.067800045E0
2.548189646E0,-2.955136061E0,7.954938889E0,7.144968510E0
2.550423654E0,-2.950948477E0,7.600800991E0,7.192824841E0
2.552648447E0,-2.898904562E0,7.250850677E0,7.232306480E0
2.554884470E0,-2.851646423E0,6.900900364E0,7.280761242E0
2.557136240E0,-2.736790895E0,6.578467846E0,7.296912670E0
2.559375131E0,-2.606980324E0,6.251847267E0,7.236494064E0
2.561611277E0,-2.468794823E0,5.848058701E0,7.181458950E0
2.563843760E0,-2.237887383E0,5.501099110E0,7.074379921E0
2.566080027E0,-1.866401672E0,5.252245903E0,6.906284332E0
2.568316599E0,-1.445863128E0,5.126622677E0,6.777071953E0
2.570552683E0,-1.063011408E0,5.054239750E0,6.723233223E0
2.572789255E0,-6.945167780E-1,5.024927616E0,6.683752060E0
2.575026621E0,-3.056831062E-1,5.038686275E0,6.630511761E0
2.577262888E0,3.589234129E-2,5.091328144E0,6.552146435E0
2.579497751E0,3.385843933E-1,5.124827862E0,6.512066841E0
2.581733835E0,5.940182209E-1,5.240880013E0,6.538387775E0
2.583970103E0,7.866404653E-1,5.295316696E0,6.521039963E0
2.586206797E0,9.170492887E-1,5.393422127E0,6.540780544E0
2.588443125E0,1.018146038E0,5.444868088E0,6.546762943E0
2.590679758E0,1.071984529E0,5.481956482E0,6.532405853E0
2.592914377E0,1.091127157E0,5.496313572E0,6.542575359E0
2.595138620E0,1.225125194E0,5.461019516E0,6.495915413E0
2.597373605E0,1.425524116E0,5.367101192E0,6.445665836E0
2.599612986E0,1.443470240E0,5.243272781E0,6.336194515E0
2.601863657E0,1.395015597E0,5.101497650E0,6.145366669E0
2.604100046E0,1.489532113E0,4.847858906E0,5.855835438E0
2.606336068E0,1.488335729E0,4.576871395E0,5.522036552E0
2.608569956E0,1.282552958E0,4.456632137E0,5.277370453E0
2.610807138E0,1.091725349E0,4.365705013E0,4.975276470E0
2.613043467E0,9.505487680E-1,4.359723091E0,4.688137531E0
2.615275522E0,1.060618639E0,4.531407833E0,4.369294167E0
2.617502634E0,1.101894855E0,4.689334393E0,4.269393921E0
2.619747751E0,1.052842021E0,4.834698200E0,4.073182583E0
2.621972910E0,1.066600680E0,4.969294548E0,3.834498405E0
2.624215159E0,1.027119160E0,5.076373100E0,3.576671600E0
2.626460520E0,9.445667267E-1,5.179264545E0,3.289532900E0
2.628700692E0,9.385846853E-1,5.281557560E0,3.017349243E0
2.630936715E0,9.559326172E-1,5.311468124E0,2.688336134E0
2.633168894E0,9.864411354E-1,5.283352375E0,2.398206472E0
2.635401987E0,1.021137118E0,5.184050083E0,2.083550215E0
2.637628061E0,1.128215909E0,5.102694511E0,1.741376638E0
2.639869821E0,1.183250785E0,5.046463013E0,1.313061476E0
2.642102243E0,1.283749342E0,5.062016487E0,7.752745152E-1
2.644353525E0,1.371087432E0,4.942973614E0,4.133601189E-1
2.646586191E0,1.439282775E0,4.919044971E0,2.333002090E-1
2.648815195E0,1.588834286E0,4.884349346E0,4.366901144E-2
2.651059336E0,1.665404558E0,4.831109047E0,-5.084748194E-2
2.653295420E0,1.721037745E0,4.706083775E0,-7.417750359E-2
2.655534616E0,1.734198213E0,4.548157692E0,-1.549352705E-1
2.657768015E0,1.610967875E0,4.254438877E0,-3.080759048E-1
2.660004343E0,1.292722464E0,3.987638950E0,-5.389832854E-1
2.662240976E0,8.889335990E-1,3.760320902E0,-7.764709592E-1
2.664478586E0,6.083751321E-1,3.526422262E0,-8.691928387E-1
2.666714609E0,5.383850932E-1,3.321237803E0,-8.213363886E-1
2.668949656E0,5.479564071E-1,3.128615618E0,-5.635097623E-1
2.671181833E0,4.989035130E-1,2.945564747E0,-1.728814393E-1
2.673407358E0,3.822534084E-1,2.791825771E0,3.463610709E-1
2.675658396E0,2.003988922E-1,2.749353170E0,8.548358679E-1
2.677894785E0,5.383851007E-3,2.773879766E0,1.301097274E0
2.680134958E0,-1.651047617E-1,2.793620348E0,1.724028707E0
2.682368723E0,-2.829512656E-1,2.836092949E0,2.137987137E0
2.684604929E0,-3.672982752E-1,2.859423161E0,2.575873613E0
2.686839792E0,-3.792623878E-1,2.858226538E0,2.885145903E0
2.689075876E0,-4.528416991E-1,2.881556749E0,3.151945591E0
2.691312144E0,-7.088736892E-1,3.157329559E0,3.301496983E0
2.693548838E0,-7.142575383E-1,3.162115097E0,3.415754318E0
2.695785105E0,-6.227321029E-1,3.217748165E0,3.459423304E0
2.698018503E0,-4.462614357E-1,3.214757204E0,3.499503136E0
2.700247019E0,-2.225325108E-1,3.139383316E0,3.549154282E0
2.702494822E0,3.349951655E-2,2.948555708E0,3.575475216E0
2.704730234E0,2.673979402E-1,2.619542599E0,3.659224033E0
2.706969247E0,5.096712112E-1,2.218146563E0,3.805186272E0
2.709202646E0,6.897311211E-1,1.846660852E0,4.007977962E0
2.711439158E0,7.405785918E-1,1.533799291E0,4.271188259E0
2.713675303E0,6.669993401E-1,1.269990563E0,4.628915310E0
2.715912180E0,4.935196638E-1,1.107876897E0,5.008776188E0
2.718147532E0,2.105683982E-1,1.000199914E0,5.497509956E0
2.720376963E0,-8.255238086E-2,8.919246197E-1,5.971887112E0
2.722620554E0,-3.894318938E-1,7.890332937E-1,6.464808464E0
2.724856515E0,-6.628118753E-1,6.903293133E-1,6.915855408E0
2.727094797E0,-9.302098155E-1,6.113662124E-1,7.280761242E0
2.729329294E0,-1.186241865E0,5.904290080E-1,7.521239758E0
2.731565622E0,-1.469791293E0,6.370890141E-1,7.666603565E0
2.733802316E0,-1.683948994E0,7.501499057E-1,7.707281590E0
2.736039804E0,-1.887937069E0,8.919246197E-1,7.676773071E0
2.738275644E0,-2.032702923E0,1.057029366E0,7.565506935E0
2.740510996E0,-2.134397745E0,1.212562919E0,7.378268719E0
2.742747019E0,-2.226521492E0,1.335195065E0,7.115057945E0
2.744983408E0,-2.313261271E0,1.466800332E0,6.799205780E0
2.747219980E0,-2.361716032E0,1.569691658E0,6.460022926E0
2.749456308E0,-2.420340061E0,1.639083505E0,6.125626087E0
2.751692819E0,-2.464009047E0,1.732403636E0,5.776872158E0
2.753929880E0,-2.508874655E0,1.782652855E0,5.437689304E0
2.756165964E0,-2.548356056E0,1.842473388E0,5.098506927E0
2.758401255E0,-2.588435888E0,1.868196249E0,4.783850670E0
2.760637156E0,-2.634497643E0,1.870589137E0,4.506881237E0
2.762873484E0,-2.694318295E0,1.862812400E0,4.224528313E0
2.765110056E0,-2.769692183E0,1.855633974E0,4.009772778E0
2.767346445E0,-2.834896564E0,1.866999865E0,3.808775425E0
2.769583078E0,-2.905484915E0,1.850250125E0,3.612564087E0
2.771820566E0,-3.005385160E0,1.832902193E0,3.506681681E0
2.774056345E0,-3.090928555E0,1.834696770E0,3.419941664E0
2.776291452E0,-3.195614576E0,1.850848317E0,3.390629768E0
2.778527476E0,-3.329612732E0,1.890928149E0,3.399004459E0
2.780763865E0,-3.439682484E0,1.935195327E0,3.459423304E0
2.783000498E0,-3.530609846E0,1.989033818E0,3.563511133E0
2.785234567E0,-3.593421459E0,2.022533417E0,3.715455294E0
2.787464365E0,-3.647858143E0,2.017747641E0,3.896113396E0
2.789710703E0,-3.693321705E0,1.983649969E0,4.115056515E0
2.791946726E0,-3.671188116E0,1.972882271E0,4.377668858E0
2.794184091E0,-3.650250912E0,1.918445587E0,4.616353035E0
2.796417978E0,-3.619742393E0,1.868794441E0,4.945964336E0
2.798654429E0,-3.604787350E0,1.776072621E0,5.298905849E0
2.800890574E0,-3.589233875E0,1.712064624E0,5.647659779E0
2.803123911E0,-3.579662561E0,1.609173179E0,6.029314995E0
2.805348459E0,-3.579064369E0,1.502692580E0,6.382256031E0
2.807586313E0,-3.612564087E0,1.386640668E0,6.758527756E0
2.809826670E0,-3.611367464E0,1.303490162E0,7.102495670E0
2.812075265E0,-3.610171080E0,1.239482164E0,7.412366390E0
2.814311349E0,-3.598206997E0,1.223928809E0,7.688737392E0
2.816547250E0,-3.614956856E0,1.184447169E0,7.908278942E0
2.818781199E0,-3.587439299E0,1.168893814E0,8.065607071E0
2.821017344E0,-3.560520172E0,1.134796143E0,8.204390526E0
2.823254099E0,-3.542573929E0,1.104885817E0,8.309675217E0
2.825488229E0,-3.576671600E0,1.076770186E0,8.361719131E0
2.827715586E0,-3.625126362E0,1.086939692E0,8.408976555E0
2.829962595E0,-3.663411379E0,1.077966571E0,8.394619942E0
2.832198740E0,-3.754338741E0,1.060020447E0,8.374280930E0
2.834437997E0,-3.878167391E0,1.100698471E0,8.335397720E0
2.836671518E0,-3.948157310E0,1.188036442E0,8.296514511E0
2.838907419E0,-4.057030678E0,1.261615753E0,8.199604988E0
2.841144297E0,-4.180859566E0,1.220937729E0,8.098507881E0
2.843381723E0,-4.329214573E0,1.195214868E0,8.020741463E0
2.845617502E0,-4.435096741E0,1.058824062E0,7.819744587E0
2.847853037E0,-4.583451748E0,1.051645517E0,7.785048485E0
2.850088999E0,-4.650450706E0,1.067198873E0,7.779664516E0
2.852325144E0,-4.697709084E0,1.077368379E0,7.764709473E0
2.854561533E0,-4.780261517E0,9.882357717E-1,7.678567886E0
2.856798288E0,-4.852644444E0,8.799605370E-1,7.601997375E0
2.859034738E0,-4.969892502E0,7.573283911E-1,7.605587006E0
2.861272287E0,-5.033302307E0,6.861419082E-1,7.614559650E0
2.863507944E0,-5.114060402E0,7.256234884E-1,7.666603565E0
2.865743113E0,-5.222933769E0,8.087740541E-1,7.636693478E0
2.867979136E0,-5.307878971E0,8.775677085E-1,7.554739475E0
2.870215525E0,-5.454439163E0,9.373882413E-1,7.438687325E0
2.872452097E0,-5.588437080E0,8.638089895E-1,7.299305439E0
2.874688303E0,-5.646463394E0,3.637090325E-1,7.085147858E0
2.876925302E0,-5.810969830E0,5.198407173E-1,6.902096748E0
2.879162363E0,-5.939583778E0,8.237292171E-1,6.809973240E0
2.881398386E0,-6.028118610E0,1.246660590E0,6.646064758E0
2.883629648E0,-6.088537216E0,1.630708575E0,6.516254425E0
2.885855356E0,-6.133402824E0,1.804188251E0,6.434299946E0
2.888105601E0,-6.166304111E0,1.871187329E0,6.443871498E0
2.890342295E0,-6.166902065E0,1.871187329E0,6.515058041E0
2.892582102E0,-6.144170284E0,1.831705689E0,6.629913330E0
2.894815195E0,-6.112465382E0,1.773679733E0,6.739983082E0
2.897052561E0,-6.079564095E0,1.748555183E0,6.778268337E0
2.899288828E0,-6.037091732E0,1.733600020E0,6.826723099E0
2.901523935E0,-5.989234924E0,1.690529227E0,6.736393929E0
2.903760019E0,-5.907280922E0,1.655833244E0,6.670591354E0
2.905996226E0,-5.904289722E0,1.697707653E0,6.918248653E0
2.908232615E0,-5.896512985E0,1.710269928E0,7.200003147E0
2.910469004E0,-5.931807518E0,1.705484390E0,7.395018578E0
2.912705820E0,-5.996413708E0,1.619342685E0,7.532605648E0
2.914943186E0,-6.090332031E0,1.500898004E0,7.679764271E0
2.917179148E0,-6.199205399E0,1.348355532E0,7.841279984E0
2.919414011E0,-6.321837425E0,1.220339537E0,7.993224144E0
2.921650338E0,-6.431309223E0,1.072582722E0,8.197212219E0
2.923886605E0,-6.554539204E0,9.206385016E-1,8.396414757E0
2.926123117E0,-6.658627033E0,8.015955687E-1,8.629714966E0
2.928359507E0,-6.796812534E0,6.496513486E-1,8.848059654E0
2.930595713E0,-6.911069870E0,4.875376225E-1,9.071190834E0
2.932833505E0,-7.048058987E0,3.882354796E-1,9.236893654E0
2.935069223E0,-7.204190731E0,2.799602449E-1,9.388239861E0
2.937304514E0,-7.359126091E0,2.003988922E-1,9.501898766E0
2.939540720E0,-7.548159122E0,1.405783296E-1,9.628718376E0
2.941777109E0,-7.726424217E0,7.178468257E-2,9.650852203E0
2.944013620E0,-7.938189030E0,1.256231871E-2,9.663414001E0
2.946249460E0,-8.125427246E0,-1.794617064E-2,9.661619186E0
2.948486277E0,-8.308478355E0,-5.862415582E-2,9.674779892E0
2.950723642E0,-8.467002869E0,-1.226321608E-1,9.639486313E0
2.952959970E0,-8.644669533E0,-1.298106313E-1,9.628718376E0
2.955193979E0,-8.774480820E0,-1.992024779E-1,9.594022751E0
2.957427683E0,-8.894720078E0,-2.452643216E-1,9.569496155E0
2.959667063E0,-9.005986214E0,-3.296113312E-1,9.539586067E0
2.961903513E0,-9.092725754E0,-3.852444589E-1,9.515059471E0
2.964140695E0,-9.175278664E0,-4.839483798E-1,9.438488960E0
2.966376718E0,-9.224330902E0,-5.982056856E-1,9.433105469E0
2.968614084E0,-9.282955170E0,-7.166503668E-1,9.370891571E0
2.970848703E0,-9.342177391E0,-8.446664214E-1,9.327820778E0
2.973079538E0,-9.357730865E0,-9.780662656E-1,9.260822296E0
2.975318491E0,-9.420542717E0,-1.062413216E0,9.165108681E0
2.977546580E0,-9.435498238E0,-1.128814101E0,9.098708153E0
2.979795603E0,-9.482755661E0,-1.141974568E0,8.993423462E0
2.982030527E0,-9.520442963E0,-1.155733347E0,8.912068367E0
2.984269845E0,-9.543174744E0,-1.130608678E0,8.801998138E0
2.986504404E0,-9.600004196E0,-1.143769264E0,8.672785759E0
2.988740427E0,-9.613762856E0,-1.156929731E0,8.572287560E0
2.990975534E0,-9.628718376E0,-1.209571838E0,8.514859200E0
2.993211619E0,-9.681360245E0,-1.251446247E0,8.443074226E0
2.995447886E0,-9.739386559E0,-1.321436286E0,8.371290207E0
2.997684275E0,-9.778867722E0,-1.459621787E0,8.285148621E0
2.999920603E0,-9.903294563E0,-1.505085468E0,8.217551231E0
3.002157175E0,-1.001396275E1,-1.536790371E0,8.178069115E0
3.004394602E0,-1.011027431E1,-1.582852125E0,8.172685623E0
3.006630869E0,-1.019701385E1,-1.634297848E0,8.143373489E0
3.008865915E0,-1.031785107E1,-1.741974831E0,8.114061356E0
3.011101754E0,-1.041535854E1,-1.846062660E0,8.103892326E0
3.013338022E0,-1.050329494E1,-1.973480463E0,8.098507881E0
3.015574656E0,-1.061575794E1,-2.139183521E0,8.092526436E0
3.017811106E0,-1.073779202E1,-2.257030010E0,8.111070633E0
3.020047861E0,-1.084905815E1,-2.370090723E0,8.109873772E0
3.022284922E0,-1.094656563E1,-2.478964329E0,8.118846893E0
3.024520945E0,-1.106381416E1,-2.600998163E0,8.118248940E0
3.026756052E0,-1.121456146E1,-2.752344131E0,8.160123825E0
3.028992379E0,-1.141436195E1,-2.935993433E0,8.253443718E0
3.031225473E0,-1.161416245E1,-3.115455151E0,8.337790489E0
3.033453135E0,-1.180379391E1,-3.270988464E0,8.450851440E0
3.035701365E0,-1.201316643E1,-3.425923824E0,8.535198212E0
3.037934885E0,-1.220219898E1,-3.547957659E0,8.600402832E0
3.040165841E0,-1.240558910E1,-3.655036688E0,8.727222443E0
3.042411325E0,-1.258026505E1,-3.738785267E0,8.811569214E0
3.044646494E0,-1.275434303E1,-3.818346739E0,8.886344910E0
3.046885934E0,-1.289551926E1,-3.893122435E0,8.995218277E0
3.049114694E0,-1.304088306E1,-3.958326817E0,9.122636795E0
3.051337289E0,-1.316770267E1,-4.048057556E0,9.231510162E0
3.053589304E0,-1.323709488E1,-4.133601189E0,9.335597992E0
3.055828257E0,-1.328196049E1,-4.228715897E0,9.445069313E0
3.058066843E0,-1.332323647E1,-4.343571186E0,9.540184021E0
3.060290353E0,-1.332084370E1,-4.473381996E0,9.621540070E0
3.062536814E0,-1.327538013E1,-4.627120972E0,9.689137459E0
3.064772959E0,-1.320120239E1,-4.767100811E0,9.742377281E0
3.067012155E0,-1.309831142E1,-4.893322468E0,9.805787086E0
3.069245554E0,-1.296132183E1,-4.996213913E0,9.869196892E0
3.071481882E0,-1.280519009E1,-5.094917774E0,9.956535339E0
3.073718454E0,-1.270170116E1,-5.178068161E0,1.001934624E1
3.075955881E0,-1.260239887E1,-5.242076397E0,1.010189915E1
3.078192392E0,-1.251745319E1,-5.263013363E0,1.020239735E1
3.080428232E0,-1.242712402E1,-5.274379253E0,1.029870892E1
3.082663340E0,-1.237986660E1,-5.242076397E0,1.040877819E1
3.084899607E0,-1.235115242E1,-5.209175110E0,1.050449181E1
3.087135996E0,-1.230867958E1,-5.181657314E0,1.061456108E1
3.089372568E0,-1.228534985E1,-5.168497086E0,1.074317551E1
3.091606149E0,-1.227697468E1,-5.154737949E0,1.087238789E1
3.093830576E0,-1.232004547E1,-5.116453171E0,1.099083233E1
3.096063913E0,-1.236850071E1,-5.063810825E0,1.115713406E1
3.098305796E0,-1.242233849E1,-5.016552448E0,1.133779144E1
3.100556344E0,-1.251805210E1,-4.934000492E0,1.147059345E1
3.102793589E0,-1.259462166E1,-4.847858906E0,1.162672520E1
3.105029245E0,-1.266221905E1,-4.808975220E0,1.177388382E1
3.107262705E0,-1.274417305E1,-4.746761799E0,1.193539906E1
3.109499277E0,-1.283091354E1,-4.722235680E0,1.207298660E1
3.111736582E0,-1.288475132E1,-4.721637249E0,1.221057415E1
3.113972605E0,-1.293859005E1,-4.731208801E0,1.236730385E1
3.116204660E0,-1.293081379E1,-4.765306473E0,1.249173069E1
3.118428659E0,-1.291825104E1,-4.828716278E0,1.258684540E1
3.120665415E0,-1.288176060E1,-4.925027370E0,1.264965725E1
3.122901865E0,-1.277288723E1,-5.017749310E0,1.266521072E1
3.125144480E0,-1.267298698E1,-5.100301266E0,1.261855030E1
3.127392893E0,-1.255753326E1,-5.134997368E0,1.250967693E1
3.129630259E0,-1.243789196E1,-5.184050083E0,1.240140152E1
3.131866159E0,-1.230688477E1,-5.161318302E0,1.223569870E1
3.134098093E0,-1.223450184E1,-5.199603558E0,1.206939697E1
3.136334298E0,-1.222433281E1,-5.246861935E0,1.192642593E1
3.138570199E0,-1.220459175E1,-5.308476925E0,1.176012516E1
3.140807138E0,-1.217049408E1,-5.380261898E0,1.158425236E1
3.143043406E0,-1.213759327E1,-5.480162144E0,1.142213917E1
3.145277109E0,-1.206999588E1,-5.571089268E0,1.126122189E1
3.147505380E0,-1.197906876E1,-5.633901119E0,1.109492016E1
3.149753367E0,-1.186361504E1,-5.654240131E0,1.099143124E1
3.151988474E0,-1.170867920E1,-5.636891842E0,1.084965611E1
3.154227548E0,-1.156750298E1,-5.576473236E0,1.070788097E1
3.156460946E0,-1.136830044E1,-5.482554913E0,1.050449181E1
3.158697702E0,-1.114576817E1,-5.441876888E0,1.031545830E1
3.160933664E0,-1.096630573E1,-5.376672268E0,1.012164021E1
3.163170664E0,-1.077188969E1,-5.292923450E0,9.961320877E0
3.165404794E0,-1.057328510E1,-5.223531723E0,9.796216011E0
3.167632334E0,-1.040279675E1,-5.143970490E0,9.611370087E0
3.169878794E0,-1.021795082E1,-5.040481091E0,9.436694145E0
3.172114878E0,-1.007198906E1,-4.969892502E0,9.285347939E0
3.174353891E0,-9.959526062E0,-4.889732838E0,9.138189316E0
3.176587839E0,-9.861420631E0,-4.808975220E0,8.962317467E0
3.178823923E0,-9.768099785E0,-4.743172646E0,8.810971260E0
3.181060556E0,-9.680164337E0,-4.695914268E0,8.692526817E0
3.183297800E0,-9.592227936E0,-4.677370071E0,8.531010628E0
3.185531076E0,-9.524032593E0,-4.648656368E0,8.402995110E0
3.187757761E0,-9.436096191E0,-4.644468784E0,8.217551231E0
3.190005137E0,-9.343972206E0,-4.659423828E0,8.037490845E0
3.192241648E0,-9.223134995E0,-4.698905468E0,7.857431412E0
3.194480844E0,-9.116654396E0,-4.723432064E0,7.667201996E0
3.196714426E0,-9.010173798E0,-4.757529736E0,7.467999458E0
3.198951181E0,-8.928219795E0,-4.800600529E0,7.287939548E0
3.201188547E0,-8.845666885E0,-4.849055290E0,7.107281685E0
3.203424509E0,-8.763114929E0,-4.877768993E0,6.908079147E0
3.205659433E0,-8.690732002E0,-4.949553490E0,6.722635269E0
3.207895884E0,-8.636893272E0,-4.973481655E0,6.499504566E0
3.210131724E0,-8.553742409E0,-4.954339504E0,6.294918060E0
3.212368418E0,-8.508877754E0,-4.983053207E0,6.090332031E0
3.214601633E0,-8.488538742E0,-5.011168957E0,5.871388435E0
3.216827341E0,-8.472985268E0,-5.057828903E0,5.618945599E0
3.219067575E0,-8.494520187E0,-4.999204636E0,5.398806095E0
3.221302744E0,-8.534002304E0,-4.872983456E0,5.212764263E0
3.223552987E0,-8.585447311E0,-4.838287354E0,5.078765869E0
3.225787851E0,-8.624331474E0,-4.947160721E0,4.983053207E0
3.228025155E0,-8.693124771E0,-5.108078003E0,4.892126083E0
3.230258677E0,-8.723034859E0,-5.198407173E0,4.839483738E0
3.232494822E0,-8.741579056E0,-5.260022163E0,4.715655327E0
3.234731455E0,-8.774480820E0,-5.286941528E0,4.548157692E0
3.236969065E0,-8.839685440E0,-5.251647472E0,4.385445595E0
3.239205393E0,-8.928817749E0,-5.197210789E0,4.203591347E0
3.241440439E0,-9.037691116E0,-5.190032482E0,4.083351612E0
3.243676217E0,-9.089137077E0,-5.184050083E0,3.963112593E0
3.245912484E0,-9.126225471E0,-5.154139996E0,3.834498405E0
3.248149057E0,-9.153144836E0,-5.109872818E0,3.719642878E0
3.250385263E0,-9.199805260E0,-5.065605640E0,3.623331785E0
3.252622019E0,-9.236893654E0,-5.021936417E0,3.551547050E0
3.254859140E0,-9.278767586E0,-4.982454777E0,3.474976778E0
3.257095469E0,-9.311669350E0,-4.929214478E0,3.441477060E0
3.259327524E0,-9.311071396E0,-4.924428940E0,3.417548895E0
3.261554697E0,-9.286544800E0,-4.929214478E0,3.341576815E0
3.263802926E0,-9.253643036E0,-4.986642361E0,3.293720484E0
3.266039499E0,-9.205786705E0,-5.044668198E0,3.218346357E0
3.268278573E0,-9.148359299E0,-5.097310543E0,3.132802963E0
3.270512216E0,-9.119645119E0,-5.126622677E0,3.052045345E0
3.272749704E0,-9.057432175E0,-5.169693470E0,2.962314367E0
3.274985544E0,-9.005388260E0,-5.228317261E0,2.986840963E0
3.277220713E0,-8.963513374E0,-5.276772022E0,3.015554667E0
3.279456980E0,-8.921639442E0,-5.325825214E0,3.083152056E0
3.281693308E0,-8.865407944E0,-5.398207664E0,3.126821041E0
3.283929697E0,-8.857032776E0,-5.437091351E0,3.212364435E0
3.286165964E0,-8.866603851E0,-5.398806095E0,3.236292601E0
3.288402536E0,-8.895915985E0,-5.441278458E0,3.231507063E0
3.290639963E0,-8.915657043E0,-5.489135265E0,3.278765202E0
3.292876230E0,-8.882756233E0,-5.508875847E0,3.265006542E0
3.295111338E0,-8.873184204E0,-5.528018475E0,3.288934708E0
3.297347422E0,-8.830113411E0,-5.509474277E0,3.284149170E0
3.299583689E0,-8.815756798E0,-5.490929604E0,3.332005501E0
3.301820200E0,-8.788239479E0,-5.520241737E0,3.403790236E0
3.304056284E0,-8.749954224E0,-5.511867046E0,3.494717360E0
3.306290659E0,-8.779864311E0,-5.535795212E0,3.566502094E0
3.308518259E0,-8.871390343E0,-5.539384365E0,3.637090445E0
3.310766428E0,-8.938388824E0,-5.538786411E0,3.650849104E0
3.313001475E0,-9.000003815E0,-5.504090309E0,3.626322746E0
3.315238047E0,-9.181260109E0,-5.471786976E0,3.524627686E0
3.317464060E0,-9.565308571E0,-5.364708424E0,3.258426189E0
3.319710398E0,-9.931410789E0,-5.290530682E0,2.988037348E0
3.321946848E0,-1.021555805E1,-5.251647472E0,2.689532757E0
3.324186044E0,-1.039980507E1,-5.246861935E0,2.368296146E0
3.326420725E0,-1.041356373E1,-5.336592674E0,2.077568293E0
3.328656931E0,-1.025563812E1,-5.476572990E0,1.864607096E0
3.330891733E0,-9.994820595E0,-5.723631859E0,1.781456470E0
3.333127877E0,-9.614361763E0,-5.973083496E0,1.699502230E0
3.335361215E0,-9.171689034E0,-6.161518097E0,1.675574064E0
3.337589060E0,-8.694320679E0,-6.259624004E0,1.751546144E0
3.339836924E0,-8.389236450E0,-6.336194515E0,1.783251047E0
3.342071116E0,-8.197212219E0,-6.301498413E0,1.827518344E0
3.344303477E0,-8.051848412E0,-6.174080849E0,1.785643935E0
3.346547190E0,-7.972885132E0,-6.055635929E0,1.776670814E0
3.348782419E0,-7.877171993E0,-5.990431309E0,1.853839397E0
3.351020822E0,-7.707880020E0,-6.071189404E0,2.141576290E0
3.353254281E0,-7.714460373E0,-6.014957905E0,2.470589399E0
3.355490854E0,-8.236095428E0,-5.624927998E0,2.527418852E0
3.357727304E0,-9.068199158E0,-5.041677475E0,2.146361828E0
3.359964182E0,-9.553942680E0,-4.433900356E0,1.712064624E0
3.362201486E0,-9.601799011E0,-3.996013880E0,1.281356573E0
3.364437449E0,-9.204590797E0,-3.899702787E0,8.608179688E-1
3.366672251E0,-8.620741844E0,-4.131806374E0,5.132604837E-1
3.368908396E0,-7.961519241E0,-4.412963390E0,2.721835673E-1
3.371144967E0,-7.316653252E0,-4.603790760E0,1.782652885E-1
3.373381601E0,-6.707081795E0,-4.790431023E0,2.602194548E-1
3.375617685E0,-6.270391941E0,-4.999204636E0,4.414757788E-1
3.377854257E0,-5.987440586E0,-5.190630436E0,6.155536175E-1
3.380091806E0,-5.902495384E0,-5.249852657E0,7.262216806E-1
3.382326669E0,-5.958726406E0,-5.139184952E0,7.639086246E-1
3.384553537E0,-6.156134605E0,-4.887340069E0,7.519445419E-1
3.386780649E0,-6.190232277E0,-4.457230568E0,9.607182741E-1
3.389035044E0,-5.848058701E0,-4.803591251E0,1.260419369E0
3.391272897E0,-5.030311584E0,-5.726622581E0,1.607976794E0
3.393512643E0,-4.707280159E0,-5.709274769E0,2.025524378E0
3.395744882E0,-5.267200947E0,-5.223531723E0,2.191227436E0
3.397979074E0,-5.855237007E0,-4.888536453E0,2.032702923E0
3.400206553E0,-6.071787357E0,-4.769493580E0,1.749153376E0
3.402453318E0,-5.933003902E0,-4.702494621E0,1.344766378E0
3.404689463E0,-5.662016392E0,-4.685744762E0,9.756734371E-1
3.406928659E0,-5.380261898E0,-4.837090969E0,8.255237937E-1
3.409162241E0,-5.302495003E0,-5.058426857E0,8.697910309E-1
3.411398203E0,-5.377270699E0,-5.201398373E0,9.792626500E-1
3.413635263E0,-5.435894966E0,-5.267798901E0,1.036092162E0
3.415872507E0,-5.388636589E0,-5.330610752E0,9.888339639E-1
3.418105478E0,-5.279763222E0,-5.503491879E0,8.518448472E-1
3.420331736E0,-5.300700188E0,-5.699105263E0,7.280163169E-1
3.422579722E0,-5.508875847E0,-5.839085579E0,7.501499057E-1
3.424815867E0,-5.827121258E0,-6.011368752E0,6.951149702E-1
3.427055368E0,-6.160321712E0,-6.306283951E0,4.923232496E-1
3.429288462E0,-7.466204643E0,-6.214758396E0,3.990031779E-1
3.431525156E0,-9.223732948E0,-5.249852657E0,2.380858511E-1
3.433762705E0,-1.034177971E1,-3.920639992E0,-1.698904037E-1
3.435998789E0,-1.069711399E1,-2.932404041E0,-6.376872063E-1
3.438233896E0,-1.054576778E1,-2.711666346E0,-1.208973646E0
3.440469919E0,-1.020658493E1,-2.973082066E0,-1.610369682E0
3.442706248E0,-9.875777245E0,-3.379263878E0,-1.735394597E0
3.444942820E0,-9.576674461E0,-3.805784464E0,-1.565504193E0
3.447178965E0,-9.373882294E0,-4.131208420E0,-1.176670551E0
3.449415781E0,-9.372088432E0,-4.363312244E0,-6.137589812E-1
3.451652170E0,-9.351150513E0,-4.553541660E0,6.400800496E-2
3.453885508E0,-9.168100357E0,-4.812564373E0,6.717849374E-1
3.456124216E0,-8.787641525E0,-5.060221672E0,1.162313581E0
3.458360238E0,-8.174480438E0,-5.129015446E0,1.654038668E0
3.460597299E0,-7.139584541E0,-5.052444935E0,2.374278307E0
3.462833261E0,-5.985047817E0,-5.554339409E0,2.685943365E0
3.465069590E0,-4.180859566E0,-6.141777515E0,3.680759430E0
3.467306223E0,9.675976753E0,-2.306680918E0,1.966660881E1
3.469540719E0,5.258227825E0,-4.396213531E0,1.467518139E1
3.471768442E0,2.201995134E0,-5.416153908E0,9.732208252E0
3.474014353E0,-1.121635556E0,-5.535795212E0,6.273382664E0
3.476250681E0,-4.941178799E0,-5.115256786E0,3.562912941E0
3.478489694E0,-9.166305542E0,-4.795814991E0,1.077368379E0
3.480723398E0,-1.206281757E1,-4.110270977E0,-9.678967595E-1
3.482959665E0,-1.336391449E1,-3.507279873E0,-1.957927108E0
3.485194894E0,-1.392084408E1,-3.321237803E0,-2.039881229E0
3.487428293E0,-1.406202030E1,-3.372683525E0,-1.888535261E0
3.489669870E0,-1.372164154E1,-3.665206194E0,-1.794018745E0
3.491904734E0,-1.314317703E1,-4.051646709E0,-1.792822361E0
3.494142221E0,-1.248275757E1,-4.511068821E0,-1.872383714E0
3.496377390E0,-1.184746265E1,-4.984249592E0,-1.951346874E0
3.498614023E0,-1.140718365E1,-5.411368370E0,-2.046461582E0
3.500850168E0,-1.117807102E1,-5.834897995E0,-2.129612207E0
3.503086862E0,-1.110987568E1,-6.165705681E0,-2.214557409E0
3.505320993E0,-1.116491032E1,-6.379265308E0,-2.333600283E0
3.507548410E0,-1.125224876E1,-6.501897335E0,-2.443670034E0
3.509795542E0,-1.135753250E1,-6.567101955E0,-2.516052961E0
3.512031199E0,-1.140957642E1,-6.556334019E0,-2.607578516E0
3.514270517E0,-1.134556866E1,-6.470790863E0,-2.664407969E0
3.516504282E0,-1.106919765E1,-6.292525291E0,-2.776272535E0
3.518740488E0,-1.068156052E1,-6.073582172E0,-2.882753134E0
3.520977121E0,-1.023709393E1,-5.849853039E0,-2.960519791E0
3.523214548E0,-9.789037704E0,-5.708078384E0,-3.023331404E0
3.525447458E0,-9.336195946E0,-5.590231895E0,-3.128615618E0
3.527673838E0,-8.927022934E0,-5.486144066E0,-3.168097258E0
3.529921763E0,-8.602795601E0,-5.525625706E0,-3.031706333E0
3.532157908E0,-8.313861847E0,-5.650052547E0,-2.876172781E0
3.534397470E0,-8.096714020E0,-5.759523869E0,-2.650051117E0
3.536630869E0,-7.945965767E0,-5.839683533E0,-2.447857618E0
3.538867685E0,-7.804191113E0,-5.833103180E0,-2.241476536E0
3.541104746E0,-7.763513088E0,-5.915655613E0,-2.055434704E0
3.543340769E0,-7.762316704E0,-6.031707764E0,-1.831107497E0
3.545575876E0,-7.745566845E0,-6.133402824E0,-1.663609982E0
3.547812143E0,-7.723433495E0,-6.158527374E0,-1.477568030E0
3.550045053E0,-7.686344624E0,-6.140581131E0,-1.305284739E0
3.552272959E0,-7.677969456E0,-6.117849350E0,-1.119242787E0
3.554521250E0,-7.668996811E0,-6.065805435E0,-9.523434043E-1
3.556758127E0,-7.664210796E0,-5.995217323E0,-8.333004713E-1
3.558998118E0,-7.649854183E0,-5.928816319E0,-6.999006271E-1
3.561231150E0,-7.654041290E0,-5.824130535E0,-5.617151260E-1
3.563466196E0,-7.677371502E0,-5.695516109E0,-4.336991012E-1
3.565702340E0,-7.718049526E0,-5.461019516E0,-3.200400174E-1
3.567938669E0,-7.762914658E0,-5.207380295E0,-2.398804724E-1
3.570175242E0,-7.808378696E0,-4.972883701E0,-1.549352705E-1
3.572411325E0,-7.786843300E0,-4.762913704E0,-5.443671346E-2
3.574647898E0,-7.713861942E0,-4.635495663E0,6.520441920E-2
3.576885324E0,-7.585247993E0,-4.585844517E0,2.470589429E-1
3.579121836E0,-7.316653252E0,-4.460221291E0,1.060020447E0
3.581356699E0,-7.057630539E0,-4.313062668E0,2.483151674E0
3.583592722E0,-6.983452797E0,-4.237689018E0,3.499503136E0
3.585828744E0,-6.978667259E0,-4.174877167E0,4.271786690E0
3.588065622E0,-7.024130821E0,-4.066602230E0,4.776672363E0
3.590298776E0,-7.062416077E0,-3.914059639E0,5.043471813E0
3.592523691E0,-7.031309128E0,-3.718446493E0,5.066802025E0
3.594760995E0,-6.959524632E0,-3.446861029E0,4.962115765E0
3.597000254E0,-6.803991318E0,-3.169891834E0,4.615156651E0
3.599250009E0,-6.570092678E0,-2.864806890E0,4.020540237E0
3.601486032E0,-6.221338749E0,-2.623131752E0,3.446861029E0
3.603722116E0,-5.681757450E0,-2.346760750E0,2.916850805E0
3.605956003E0,-5.042275429E0,-2.119442701E0,2.459821701E0
3.608192087E0,-4.501497746E0,-1.987837434E0,2.164308071E0
3.610428720E0,-3.870988846E0,-1.926820397E0,2.475374937E0
3.612665964E0,-3.153740168E0,-1.875374794E0,3.411566973E0
3.614899973E0,-2.648854733E0,-1.878365755E0,4.369892120E0
3.617125986E0,-2.322234392E0,-1.892722726E0,5.412564754E0
3.619358835E0,-2.023729801E0,-1.954936147E0,6.364310265E0
3.621595102E0,-1.786242127E0,-2.005185366E0,7.148557663E0
3.623834360E0,-1.194616675E0,-2.054238319E0,8.536993027E0
3.626070749E0,-1.902294010E-1,-2.140978098E0,1.044407272E1
3.628307443E0,-2.632104978E-2,-2.330609322E0,1.055533886E1
3.630544748E0,-6.334998012E-1,-2.554936409E0,9.401400566E0
3.632780710E0,-1.798206210E0,-2.600399971E0,7.578667641E0
3.635015818E0,-2.946162939E0,-2.516052961E0,5.641079426E0
3.637251780E0,-3.635894060E0,-2.406581402E0,3.980460405E0
3.639490915E0,-4.022933006E0,-2.361117840E0,2.751147747E0
3.641739450E0,-4.324428558E0,-2.581257343E0,1.709073544E0
3.643975595E0,-4.362713814E0,-3.044866800E0,8.464609981E-1
3.646212473E0,-4.418346882E0,-3.581457376E0,2.081755698E-1
3.648446787E0,-4.513461590E0,-4.132404804E0,-2.500499785E-1
3.650682871E0,-4.676771641E0,-4.683351994E0,-5.653043389E-1
3.652917856E0,-5.013561726E0,-5.207978249E0,-7.818548083E-1
3.655153757E0,-5.420939922E0,-5.636293888E0,-9.373882413E-1
3.657387400E0,-5.779862881E0,-6.022136211E0,-1.073779106E0
3.659615244E0,-6.220142365E0,-6.369095802E0,-1.162911773E0
3.661863352E0,-6.815955162E0,-6.550950050E0,-1.263410330E0
3.664099924E0,-7.135396957E0,-6.799205780E0,-1.342373490E0
3.666340342E0,-7.491927624E0,-7.018148899E0,-1.478764415E0
3.668573191E0,-7.554739475E0,-7.188039303E0,-1.674377680E0
3.670808298E0,-7.852047443E0,-7.255038261E0,-1.820339799E0
3.673044320E0,-8.204988480E0,-7.248457909E0,-1.975873351E0
3.675277719E0,-8.258827209E0,-7.414759159E0,-2.124228239E0
3.677505320E0,-8.416753769E0,-7.454240799E0,-2.273181438E0
3.679753367E0,-8.587840080E0,-7.470392227E0,-2.413161755E0
3.681989939E0,-8.860622406E0,-7.494320393E0,-2.534597397E0
3.684230233E0,-9.096315384E0,-7.576872826E0,-2.565704107E0
3.686463388E0,-9.217751503E0,-7.674978733E0,-2.566302299E0
3.688698679E0,-9.271589279E0,-7.736593723E0,-2.519043922E0
3.690934580E0,-9.343972206E0,-7.755138397E0,-2.443670034E0
3.693171091E0,-9.398408890E0,-7.816753387E0,-2.348555326E0
3.695404489E0,-9.492925644E0,-7.964509964E0,-2.172683001E0
3.697632090E0,-9.625727654E0,-8.097311974E0,-2.006979942E0
3.699877450E0,-9.604191780E0,-8.175078392E0,-1.791625977E0
3.702106272E0,-9.501300812E0,-8.234899521E0,-1.609771490E0
3.704356881E0,-9.416355133E0,-8.274978638E0,-1.532602906E0
3.706588816E0,-9.449256897E0,-8.250452042E0,-1.546959877E0
3.708827768E0,-9.265607834E0,-8.148159027E0,-1.569093466E0
3.711061167E0,-9.016156197E0,-8.142177582E0,-1.633699656E0
3.713294992E0,-8.866005898E0,-8.152944565E0,-1.823330879E0
3.715518076E0,-8.725427628E0,-8.149355888E0,-2.045863390E0
3.717751352E0,-8.574081421E0,-8.111668587E0,-2.306680918E0
3.720001718E0,-8.394619942E0,-8.037490845E0,-2.453241348E0
3.722235238E0,-8.009973526E0,-7.904689789E0,-2.392822742E0
3.724483835E0,-7.481160164E0,-7.769495010E0,-2.378465652E0
3.726716196E0,-7.118647575E0,-7.630711555E0,-2.499303341E0
3.728954782E0,-6.838088989E0,-7.500302792E0,-2.626122952E0
3.731184091E0,-6.448058605E0,-7.433901787E0,-2.755933523E0
3.733407969E0,-6.091528416E0,-7.362715244E0,-2.843271494E0
3.735661081E0,-5.860022545E0,-7.279564857E0,-2.888735056E0
3.737898447E0,-5.752943993E0,-7.161718369E0,-2.916850805E0
3.740138620E0,-5.708676815E0,-7.057032108E0,-2.883351326E0
3.742369577E0,-5.851049423E0,-6.936194420E0,-2.794218540E0
3.744605723E0,-6.257231236E0,-6.791429043E0,-2.702693224E0
3.746842234E0,-6.553941250E0,-6.649055958E0,-2.505285263E0
3.749078562E0,-6.831508636E0,-6.522236347E0,-2.264806747E0
3.751314707E0,-7.080960274E0,-6.394818306E0,-2.009970903E0
3.753551462E0,-7.077371120E0,-6.324828625E0,-1.724028707E0
3.755788767E0,-7.060023308E0,-6.321238995E0,-1.466202021E0
3.758025583E0,-7.205387115E0,-6.287141323E0,-1.248455167E0
3.760263620E0,-7.221538544E0,-6.269195557E0,-9.481559992E-1
3.762496042E0,-7.228118896E0,-6.269793510E0,-7.525427341E-1
3.764732432E0,-7.384849072E0,-6.209972858E0,-7.926225066E-1
3.766968088E0,-7.438089371E0,-6.204588890E0,-7.597211599E-1
3.769205332E0,-7.466204643E0,-6.156134605E0,-7.172485590E-1
3.771441904E0,-7.595417500E0,-6.144768715E0,-6.945167780E-1
3.773679209E0,-7.719843864E0,-6.133402824E0,-6.909275651E-1
3.775915232E0,-7.757531166E0,-6.104090691E0,-7.292127013E-1
3.778147653E0,-7.823333740E0,-6.035895348E0,-7.920243144E-1
3.780375680E0,-7.993224144E0,-5.950950146E0,-9.702895880E-1
3.782622751E0,-8.116454124E0,-5.896512985E0,-1.028315544E0
3.784859385E0,-8.254639626E0,-5.894120216E0,-1.101296663E0
3.787098398E0,-8.297710419E0,-5.892923832E0,-1.125823021E0
3.789332285E0,-8.318049431E0,-5.959922791E0,-1.077966571E0
3.791569589E0,-8.301300049E0,-6.046662807E0,-9.678967595E-1
3.793805552E0,-8.303692818E0,-6.110072613E0,-7.818548083E-1
3.796040537E0,-8.383254051E0,-6.219544411E0,-5.772684813E-1
3.798277048E0,-8.511868477E0,-6.381658077E0,-3.349951804E-1
3.800513131E0,-8.612964630E0,-6.568298340E0,-6.580262445E-3
3.802746774E0,-8.709276199E0,-6.745367050E0,3.074777126E-1
3.804971139E0,-8.806185722E0,-6.960721016E0,6.311069727E-1
3.807211923E0,-8.834300995E0,-7.067201614E0,9.553344250E-1
3.809459970E0,-8.771489143E0,-7.066005230E0,1.542174220E0
3.811699045E0,-8.685946465E0,-6.990033150E0,2.372483730E0
3.813933786E0,-8.608778000E0,-6.908079147E0,3.045464993E0
3.816167185E0,-8.464012146E0,-6.822535515E0,3.695116282E0
3.818403452E0,-8.242077827E0,-6.723831654E0,4.278964996E0
3.820639841E0,-7.952546120E0,-6.616154671E0,4.786841869E0
3.822876230E0,-7.612166882E0,-6.416952133E0,5.152345181E0
3.825112986E0,-7.317251682E0,-6.154339790E0,5.311468124E0
3.827350107E0,-7.059424877E0,-5.966503143E0,5.166104317E0
3.829586191E0,-6.800402164E0,-5.858228207E0,4.729413986E0
3.831821421E0,-6.541976929E0,-5.821139336E0,4.154538155E0
3.834057383E0,-6.296712875E0,-5.812166214E0,3.484548092E0
3.836293955E0,-6.114858150E0,-5.868995667E0,2.823530674E0
3.838530466E0,-5.928816319E0,-5.892923832E0,2.215155602E0
3.840763620E0,-5.737988472E0,-5.907280922E0,1.725823283E0
3.842991159E0,-5.586044312E0,-5.912664890E0,1.307079315E0
3.845237314E0,-5.483751297E0,-5.960521221E0,9.984052777E-1
3.847464121E0,-5.381458282E0,-5.979663849E0,7.369893789E-1
3.849714915E0,-5.216951370E0,-5.976672649E0,5.383850932E-1
3.851947947E0,-5.066802025E0,-5.958726406E0,3.439682424E-1
3.854187143E0,-4.878366947E0,-5.946762562E0,1.980060786E-1
3.856420603E0,-4.719244480E0,-5.919843197E0,7.058826834E-2
3.858656931E0,-4.603192329E0,-5.906682491E0,-4.247260094E-2
3.860893503E0,-4.530809879E0,-5.935994625E0,-1.040877849E-1
3.863130564E0,-4.448855400E0,-5.898906231E0,-1.555334777E-1
3.865363840E0,-4.439284325E0,-5.941378593E0,-2.267199457E-1
3.867590830E0,-4.351946354E0,-5.904289722E0,-2.596212626E-1
3.869838389E0,-4.240679741E0,-5.843871117E0,-2.967100143E-1
3.872074412E0,-4.182653904E0,-5.830112457E0,-3.248256743E-1
3.874313547E0,-4.037888050E0,-5.736792088E0,-3.044866920E-1
3.876547068E0,-3.873381615E0,-5.648257732E0,-3.367897868E-1
3.878783945E0,-3.714258909E0,-5.550750256E0,-2.973082066E-1
3.881019907E0,-3.599403381E0,-5.552545071E0,-2.769692242E-1
3.883251230E0,-3.464807272E0,-5.520840168E0,-2.662015259E-1
3.885487497E0,-3.330809116E0,-5.513661385E0,-2.602194548E-1
3.887716684E0,-3.235096216E0,-5.501099110E0,-2.021935135E-1
3.889965951E0,-3.241676569E0,-5.605785370E0,-2.117647976E-1
3.892201914E0,-3.309871912E0,-5.757729530E0,-2.883351147E-1
3.894440683E0,-3.354139090E0,-5.814558983E0,-2.793620527E-1
3.896674326E0,-3.353540897E0,-5.823532104E0,-3.744767308E-1
3.898911386E0,-3.390629768E0,-5.831308842E0,-5.467599630E-1
3.901147654E0,-3.471387386E0,-5.900700569E0,-7.854440212E-1
3.903382761E0,-3.531208038E0,-5.931807518E0,-1.086341500E0
3.905618906E0,-3.620340586E0,-5.986244202E0,-1.454237938E0
3.907855172E0,-3.747160196E0,-6.044270039E0,-1.856232166E0
3.910091745E0,-3.908077478E0,-6.131010056E0,-2.305484533E0
3.912327890E0,-4.014558315E0,-6.131608009E0,-2.778665304E0
3.914564707E0,-4.154538155E0,-6.150750637E0,-3.270988464E0
3.916802011E0,-4.318446636E0,-6.169893265E0,-3.801596880E0
3.919038095E0,-4.462016106E0,-6.131608009E0,-4.328018188E0
3.921273142E0,-4.658227444E0,-6.087938786E0,-4.887340069E0
3.923509226E0,-4.936393261E0,-6.099903107E0,-5.471786976E0
3.925745493E0,-5.267798901E0,-6.139982700E0,-6.065805435E0
3.927981882E0,-5.613562107E0,-6.203392506E0,-6.655636311E0
3.930218271E0,-5.940182209E0,-6.224329948E0,-7.202396393E0
3.932455027E0,-6.253642082E0,-6.298507214E0,-7.734200954E0
3.934692209E0,-6.523432732E0,-6.358926296E0,-8.218149185E0
3.936928415E0,-6.716653347E0,-6.368497372E0,-8.649456024E0
3.939163218E0,-6.857231617E0,-6.364310265E0,-9.012566566E0
3.941399424E0,-6.970292568E0,-6.413362980E0,-9.385847092E0
3.943635935E0,-6.993622303E0,-6.492924213E0,-9.629316330E0
3.945872568E0,-6.968497753E0,-6.516852379E0,-9.795618057E0
3.948108652E0,-6.901498795E0,-6.560521603E0,-9.885348320E0
3.950345224E0,-6.835097790E0,-6.618547440E0,-9.875179291E0
3.952582712E0,-6.754340172E0,-6.625127792E0,-9.802796364E0
3.954818552E0,-6.674778938E0,-6.674778938E0,-9.630513191E0
3.957053659E0,-6.562914371E0,-6.759125710E0,-9.400801659E0
3.959289683E0,-6.446862221E0,-6.853044033E0,-9.103493690E0
3.961526072E0,-6.332006931E0,-6.995417118E0,-8.725427628E0
3.963762705E0,-6.202794552E0,-7.094718933E0,-8.337790489E0
3.965999094E0,-6.072983742E0,-7.185048103E0,-7.926823139E0
3.968232858E0,-5.938985825E0,-7.270591736E0,-7.491329670E0
3.970460886E0,-5.827719688E0,-7.307680130E0,-7.066005230E0
3.972708689E0,-5.769095421E0,-7.343572617E0,-6.693323135E0
3.974944040E0,-5.748157978E0,-7.341179848E0,-6.287739754E0
3.977183359E0,-5.722435474E0,-7.362715244E0,-5.944369793E0
3.979416514E0,-5.667998791E0,-7.402794838E0,-5.653043270E0
3.981653086E0,-5.696114540E0,-7.490731239E0,-5.237888813E0
3.983889353E0,-6.207580090E0,-7.718647480E0,-4.031308174E0
3.986126047E0,-7.018746853E0,-7.893323898E0,-2.950948477E0
3.988363596E0,-7.833503246E0,-7.977072716E0,-1.856830359E0
3.990599558E0,-8.898907661E0,-8.070392609E0,3.110669367E-2
3.992834421E0,-1.023111153E1,-8.268997192E0,2.732603550E0
3.995070443E0,-1.123789120E1,-8.456234932E0,4.931607246E0
3.997306772E0,-1.167218876E1,-8.659027100E0,6.773482800E0
3.999543467E0,-1.175773239E1,-8.822337151E0,8.184051514E0
4.001779795E0,-1.151246834E1,-8.964710236E0,9.078369141E0
4.004016306E0,-1.109791183E1,-8.967103004E0,9.339784622E0
4.006253427E0,-1.056790161E1,-8.807381630E0,9.220144272E0
4.008488962E0,-1.006361389E1,-8.569893837E0,8.924032211E0
4.010721872E0,-9.610174179E0,-8.273183823E0,8.474779129E0
4.012960947E0,-9.166305542E0,-8.009375572E0,7.934599876E0
4.015195749E0,-8.797212601E0,-7.667799950E0,7.308278561E0
4.017428659E0,-8.356932640E0,-7.417151928E0,6.625127792E0
4.019669931E0,-7.993224144E0,-7.133004189E0,5.989234924E0
4.021906748E0,-7.695915699E0,-6.803991318E0,5.318646431E0
4.024145517E0,-7.437490940E0,-6.560521603E0,4.648656368E0
4.026380136E0,-7.153343201E0,-6.711269379E0,4.169493675E0
4.028615183E0,-7.032505512E0,-6.825526714E0,3.789632797E0
4.030851267E0,-7.195217609E0,-6.735197544E0,3.378067255E0
4.033087534E0,-7.558926582E0,-6.560521603E0,3.007179976E0
4.035321115E0,-7.878368378E0,-6.564110756E0,2.822932482E0
4.037549082E0,-7.929215908E0,-6.878168583E0,2.570489645E0
4.039797129E0,-8.081160545E0,-7.036095142E0,2.149353027E0
4.042034494E0,-7.900502205E0,-7.559525013E0,1.970489502E0
4.044273263E0,-8.069195747E0,-7.657032490E0,1.883749604E0
4.046505259E0,-8.312067986E0,-7.460222721E0,1.480558991E0
4.048738352E0,-7.884350777E0,-8.011768341E0,1.485344648E0
4.050965708E0,-7.802396297E0,-8.140980721E0,1.247856975E0
4.053211435E0,-7.766504288E0,-7.823931694E0,9.140582681E-1
4.055436044E0,-7.549953461E0,-8.094919205E0,8.829515576E-1
4.057675608E0,-7.859225750E0,-8.532805443E0,4.468596280E-1
4.059909921E0,-8.090731621E0,-8.937790871E0,-1.076770201E-1
4.062148874E0,-7.966304779E0,-9.153144836E0,-4.731806815E-1
4.064383982E0,-7.907680511E0,-9.272188187E0,-8.638089895E-1
4.066620066E0,-7.759325504E0,-9.176474571E0,-1.291526079E0
4.068856394E0,-7.547560692E0,-9.034101486E0,-1.733001828E0
4.071093088E0,-7.607979774E0,-9.496515274E0,-2.806182861E0
4.073329599E0,-8.032705307E0,-1.098126125E1,-6.932007313E0
4.075566049E0,-8.522037506E0,-1.228056431E1,-1.165065384E1
4.077803842E0,-8.369495392E0,-1.212383366E1,-1.188275719E1
4.080039682E0,-7.847859859E0,-1.109671497E1,-9.347561836E0
4.082274546E0,-7.253841877E0,-9.651450157E0,-5.468197823E0
4.084511057E0,-6.320641041E0,-8.722436905E0,-1.817947030E0
4.086746836E0,-5.426323414E0,-7.709674358E0,-3.571287692E-1
4.088984201E0,-4.762315273E0,-7.351349354E0,5.066801906E-1
4.091220956E0,-4.960321426E0,-8.265407562E0,2.584248483E-1
4.093461008E0,-5.136193752E0,-9.092127800E0,-2.374876440E-1
4.095693857E0,-5.349753380E0,-9.545567513E0,-7.154539824E-1
4.097929757E0,-5.602196217E0,-9.687940598E0,-1.122832060E0
4.100161447E0,-5.788836002E0,-9.521040916E0,-1.463809252E0
4.102404001E0,-5.963512421E0,-9.224929810E0,-1.861616015E0
4.104651926E0,-6.118447304E0,-8.824131966E0,-2.130808592E0
4.106889231E0,-6.230910301E0,-8.429315567E0,-2.318047047E0
4.109124704E0,-6.273981094E0,-8.098507881E0,-2.371885538E0
4.111355417E0,-6.197410583E0,-7.722237110E0,-2.300100803E0
4.113583933E0,-6.045466423E0,-7.343572617E0,-2.017747641E0
4.115828806E0,-5.876173973E0,-7.046264648E0,-1.673779488E0
4.118052316E0,-5.933003902E0,-7.021738052E0,-1.669592023E0
4.120291635E0,-6.032904148E0,-7.090531826E0,-1.936989903E0
4.122527291E0,-5.895915031E0,-6.863213539E0,-1.878963947E0
4.124778818E0,-5.779862881E0,-6.561119556E0,-1.435095429E0
4.127015024E0,-5.902495384E0,-6.439683914E0,-1.465005636E0
4.129251780E0,-6.101099491E0,-6.311667919E0,-1.586441398E0
4.131486032E0,-6.281159401E0,-6.193821430E0,-1.607378602E0
4.133721872E0,-6.354140759E0,-5.962913990E0,-1.665404558E0
4.135957224E0,-6.287141323E0,-5.653043270E0,-1.651047587E0
4.138192392E0,-6.105885029E0,-5.368896008E0,-1.635494232E0
4.140426035E0,-5.776872158E0,-5.139782906E0,-1.671386600E0
4.142666208E0,-5.457430363E0,-4.895715237E0,-1.625923038E0
4.144902353E0,-5.115854740E0,-4.734199524E0,-1.484746456E0
4.147140085E0,-4.966901779E0,-4.974678040E0,-7.674978375E-1
4.149376474E0,-4.899902344E0,-5.854638577E0,7.836493850E-2
4.151612497E0,-4.619344234E0,-6.671787739E0,4.426721856E-2
4.153847361E0,-4.339982033E0,-6.962515831E0,-6.699903309E-2
4.156080759E0,-4.085146427E0,-7.055835724E0,-3.792623878E-1
4.158308298E0,-3.784249067E0,-6.943971157E0,-6.388836503E-1
4.160556711E0,-3.690330744E0,-6.853642464E0,-8.907282352E-1
4.162792978E0,-3.828516245E0,-6.917650223E0,-1.097109199E0
4.165032480E0,-4.052245140E0,-7.003193855E0,-1.389631748E0
4.167266855E0,-4.165904045E0,-7.033702374E0,-1.663011789E0
4.169502817E0,-4.340580463E0,-7.250850677E0,-1.778465390E0
4.171737681E0,-4.496711731E0,-7.572685242E0,-1.974676847E0
4.173973765E0,-4.722235680E0,-7.993822098E0,-2.119442701E0
4.176210093E0,-5.298905849E0,-8.520243645E0,-2.213959217E0
4.178446787E0,-5.717051506E0,-8.934800148E0,-2.212762833E0
4.180683176E0,-6.268597126E0,-9.299705505E0,-2.221735716E0
4.182919931E0,-6.813562393E0,-9.507282257E0,-2.135594130E0
4.185157053E0,-7.421339512E0,-9.690333366E0,-1.922034740E0
4.187393320E0,-8.002795219E0,-1.004566765E1,-1.792822361E0
4.189628367E0,-8.361719131E0,-1.043150997E1,-1.910070658E0
4.191864451E0,-8.446663857E0,-1.067438221E1,-1.925025821E0
4.194100535E0,-8.251050949E0,-1.070608711E1,-1.837089539E0
4.196337351E0,-7.900502205E0,-1.057807064E1,-1.738983870E0
4.198573435E0,-7.482356548E0,-1.039920712E1,-1.554138303E0
4.200810129E0,-7.067800045E0,-1.012881851E1,-1.374078393E0
4.203047556E0,-6.705287457E0,-9.809376717E0,-1.247258782E0
4.205280405E0,-6.476174355E0,-9.507282257E0,-1.179063320E0
4.207506540E0,-6.342774391E0,-9.208179474E0,-1.101894855E0
4.209754525E0,-6.258427620E0,-8.923434258E0,-9.589236975E-1
4.211987924E0,-6.131010056E0,-8.662615776E0,-8.721838593E-1
4.214215647E0,-5.950950146E0,-8.422137260E0,-7.752745152E-1
4.216452097E0,-5.803791523E0,-8.142775536E0,-6.939185858E-1
4.218700205E0,-5.617749214E0,-7.886743546E0,-7.208378315E-1
4.220940806E0,-5.484349728E0,-7.668398380E0,-8.392825127E-1
4.223177011E0,-5.371886730E0,-7.588238716E0,-9.816554785E-1
4.225406320E0,-5.313262463E0,-7.578667641E0,-1.119242787E0
4.227633493E0,-5.273781300E0,-7.597810268E0,-1.295115232E0
4.229881234E0,-5.215157032E0,-7.621738434E0,-1.480558991E0
4.232117807E0,-5.204987526E0,-7.659425259E0,-1.623530149E0
4.234356942E0,-5.262415409E0,-7.781459332E0,-1.866999865E0
4.236591074E0,-5.296513081E0,-7.933403492E0,-2.048256159E0
4.238828134E0,-5.335994720E0,-8.099106789E0,-2.248655081E0
4.241064219E0,-5.330610752E0,-8.169694901E0,-2.410768747E0
4.243299204E0,-5.277370453E0,-8.189435959E0,-2.519642353E0
4.245535349E0,-5.233103275E0,-8.132605553E0,-2.590828657E0
4.247771676E0,-5.246861935E0,-8.079365730E0,-2.586641312E0
4.250008249E0,-5.260022163E0,-8.012366295E0,-2.562713146E0
4.252244333E0,-5.264808178E0,-7.941180229E0,-2.481955290E0
4.254480966E0,-5.321637630E0,-7.896913052E0,-2.487339020E0
4.256716440E0,-5.398207664E0,-7.901100159E0,-2.473580360E0
4.258943308E0,-5.513063431E0,-7.908876896E0,-2.498705149E0
4.261177744E0,-5.608178139E0,-7.906484127E0,-2.580659151E0
4.263425730E0,-5.708676815E0,-7.876574039E0,-2.548356056E0
4.265664133E0,-5.833103180E0,-7.841279984E0,-2.539981127E0
4.267901681E0,-5.933601856E0,-7.816154957E0,-2.507678032E0
4.270135019E0,-6.105885029E0,-7.770691395E0,-2.418545485E0
4.272371530E0,-6.230910301E0,-7.740781307E0,-2.343171597E0
4.274608652E0,-6.329015732E0,-7.883154392E0,-2.243869543E0
4.276844919E0,-6.370292187E0,-7.993224144E0,-2.076970100E0
4.279079966E0,-6.314060688E0,-8.079963684E0,-2.071586132E0
4.281315867E0,-6.350551128E0,-8.285148621E0,-2.100300074E0
4.283552134E0,-6.477969170E0,-8.502895355E0,-2.163111687E0
4.285788828E0,-6.671787739E0,-8.676973343E0,-2.197807550E0
4.288025400E0,-6.793223381E0,-8.804390907E0,-2.184647083E0
4.290261728E0,-6.676573277E0,-8.983254433E0,-2.135594130E0
4.292499033E0,-6.602396011E0,-9.094520569E0,-2.053640127E0
4.294735056E0,-6.598806858E0,-9.128618240E0,-1.920240164E0
4.296967539E0,-6.518647194E0,-9.154341698E0,-1.800000787E0
4.299191904E0,-6.409175396E0,-9.128020287E0,-1.674975872E0
4.301429941E0,-6.376872540E0,-9.134002686E0,-1.540977836E0
4.303671640E0,-6.275177479E0,-9.054440498E0,-1.487737536E0
4.305904001E0,-6.005984783E0,-8.967700958E0,-1.471585870E0
4.308140390E0,-5.678168297E0,-8.838488579E0,-1.497308731E0
4.310379160E0,-5.324628353E0,-8.604590416E0,-1.542174220E0
4.312628610E0,-4.995615482E0,-8.413164139E0,-1.615753531E0
4.314863717E0,-4.575675011E0,-8.228319168E0,-1.645663738E0
4.317099557E0,-4.169493675E0,-8.023134232E0,-1.756331801E0
4.319333140E0,-3.471985579E0,-7.856832981E0,-1.826920033E0
4.321569468E0,-2.706282377E0,-7.735995770E0,-1.466800332E0
4.323805674E0,-2.023131609E0,-7.723433495E0,-1.241276741E0
4.326042490E0,-1.439282775E0,-7.699504852E0,-1.102493048E0
4.328280039E0,-1.144367456E0,-7.664809227E0,-1.347757339E0
4.330515879E0,-9.547362328E-1,-7.551748276E0,-1.508674622E0
4.332750925E0,-5.635097623E-1,-7.337590694E0,-1.543370605E0
4.334986947E0,-6.083751321E-1,-7.098308563E0,-1.472782373E0
4.337223336E0,-1.661217093E0,-6.979265213E0,-2.030908108E0
4.339458383E0,-2.008774519E0,-6.930212498E0,-2.186441660E0
4.341685922E0,-1.188036442E0,-6.845267296E0,-1.593021631E0
4.343916757E0,-8.285148144E-1,-6.817151546E0,-1.603789330E0
4.346170236E0,-2.255235314E-1,-6.909873486E0,-1.107278705E0
4.348408030E0,9.164510965E-1,-6.943373203E0,-7.196413875E-1
4.350642404E0,2.018944025E0,-6.908079147E0,4.348955154E-1
4.352862741E0,3.535395384E0,-6.587440968E0,2.503490686E0
4.355099008E0,5.370092392E0,-5.904289722E0,3.801596880E0
4.357335703E0,8.177471161E0,-4.968696117E0,4.340580463E0
4.359575022E0,9.749555588E0,-3.774079561E0,4.615755081E0
4.361811777E0,1.005404282E1,-2.814557552E0,2.981456995E0
4.364050425E0,9.230313301E0,-2.247458696E0,-8.991031051E-1
4.366291208E0,4.736592293E0,-3.631706476E0,-2.182852507E0
4.368519907E0,2.046461582E0,-5.211567879E0,-2.352742910E0
4.370755990E0,-7.962117195E-1,-5.986244202E0,-2.382055044E0
4.372990671E0,-4.682754040E0,-6.448657036E0,-2.426920414E0
4.375229441E0,-6.935596466E0,-6.780063152E0,-2.895315409E0
4.377465036E0,-6.705885410E0,-6.918248653E0,-3.713062525E0
4.379701731E0,-6.560521603E0,-7.080960274E0,-4.259822369E0
4.381939035E0,-9.936196327E0,-7.221538544E0,-4.180859566E0
4.384175058E0,-1.364806175E1,-7.546962738E0,-4.280759811E0
4.386410410E0,-1.436650753E1,-7.910671711E0,-4.968696117E0
4.388646555E0,-1.305942822E1,-8.264211655E0,-6.119643688E0
4.390883249E0,-1.168893814E1,-8.428717613E0,-7.079763889E0
4.393119394E0,-1.269272804E1,-8.398209572E0,-7.322635651E0
4.395356699E0,-1.500598907E1,-8.470592499E0,-6.895516872E0
4.397592234E0,-1.624188232E1,-8.625527382E0,-6.577271461E0
4.399829843E0,-1.491147232E1,-8.755337715E0,-6.636493683E0
4.402065134E0,-1.271246815E1,-8.764310837E0,-6.668796539E0
4.404301035E0,-1.083709335E1,-8.685347557E0,-6.169893265E0
4.406538157E0,-1.061037350E1,-8.565707207E0,-4.933402061E0
4.408774057E0,-1.196052361E1,-8.520243645E0,-3.171686411E0
4.411010324E0,-1.210588837E1,-8.586644173E0,-1.880758643E0
4.413248971E0,-1.106919765E1,-8.437690735E0,-1.256231904E0
4.415497080E0,-1.004506969E1,-8.033902168E0,-9.804590940E-1
4.417734263E0,-9.786046028E0,-7.617550850E0,-8.691928387E-1
4.419970529E0,-1.011326504E1,-7.321439266E0,-7.202396393E-1
4.422199716E0,-1.113260746E1,-7.210771084E0,-6.867401004E-1
4.424427439E0,-1.167517948E1,-7.134200573E0,-9.924231768E-1
4.426674937E0,-1.132044411E1,-7.131209850E0,-1.637887120E0
4.428911631E0,-1.038425159E1,-7.079763889E0,-2.373081923E0
4.431150766E0,-9.248259544E0,-7.060621262E0,-2.973082066E0
4.433384531E0,-8.161917686E0,-6.989434719E0,-3.344567776E0
4.435621836E0,-7.281957626E0,-6.900900364E0,-3.561118364E0
4.437857920E0,-6.537191391E0,-6.749554634E0,-3.582653761E0
4.440093271E0,-5.969494343E0,-6.591030121E0,-3.587439299E0
4.442329293E0,-5.464010715E0,-6.373881340E0,-3.530609846E0
4.444565377E0,-4.934000492E0,-6.138188362E0,-3.454637766E0
4.446801950E0,-4.423132420E0,-5.860022545E0,-3.326621771E0
4.449037424E0,-3.878167391E0,-5.557928562E0,-3.202793121E0
4.451271555E0,-3.550350666E0,-5.333601475E0,-3.095116138E0
4.453512461E0,-3.472583771E0,-5.173282623E0,-2.899502754E0
4.455748301E0,-3.309871912E0,-5.104488850E0,-2.764308453E0
4.457982065E0,-3.294318676E0,-4.942973614E0,-2.583650351E0
4.460209848E0,-3.373281717E0,-4.966901779E0,-2.398206472E0
4.462455758E0,-3.402593851E0,-4.957330227E0,-2.307877541E0
4.464692331E0,-3.550948858E0,-4.878965378E0,-2.166102648E0
4.466929635E0,-3.665804386E0,-4.896313190E0,-2.181656122E0
4.469156442E0,-3.665206194E0,-4.834099770E0,-2.172084808E0
4.471390634E0,-3.448057413E0,-4.689932346E0,-2.099103689E0
4.473638620E0,-3.244069338E0,-4.802993298E0,-2.039283037E0
4.475875193E0,-3.303889751E0,-4.893322468E0,-1.935195327E0
4.478109812E0,-3.597010612E0,-5.210371494E0,-1.765304923E0
4.480334177E0,-3.622733593E0,-5.663811207E0,-1.812563181E0
4.482582773E0,-3.662214994E0,-6.093921185E0,-1.802991867E0
4.484819162E0,-3.732205153E0,-6.547959328E0,-1.692921996E0
4.487058909E0,-3.606581926E0,-6.841079712E0,-1.734198213E0
4.489293039E0,-3.595216036E0,-7.085147858E0,-1.781456470E0
4.491529245E0,-3.759722471E0,-7.532007694E0,-1.791625977E0
4.493764048E0,-3.635295868E0,-7.977670670E0,-1.956730723E0
4.496000193E0,-3.419343472E0,-8.325227737E0,-2.044667006E0
4.498236460E0,-3.483351469E0,-8.782855988E0,-2.091925144E0
4.500473093E0,-3.598805189E0,-9.130413055E0,-2.082952023E0
4.502709238E0,-3.462414265E0,-9.333204269E0,-2.124228239E0
4.504946054E0,-3.376870871E0,-9.434301376E0,-2.213959217E0
4.507179941E0,-3.431905985E0,-9.553942680E0,-2.100300074E0
4.509404489E0,-3.531208038E0,-9.606584549E0,-1.781456470E0
4.511649363E0,-3.464807272E0,-9.574879646E0,-1.594816327E0
4.513890513E0,-3.375674486E0,-9.534201622E0,-1.326820135E0
4.516130015E0,-3.424727440E0,-9.463015556E0,-1.041476011E0
4.518364572E0,-3.466601849E0,-9.488738060E0,-6.317051649E-1
4.520599924E0,-2.132603168E0,-1.038185883E1,-1.076770201E-1
4.522836740E0,-1.920838356E0,-1.081196880E1,2.285145670E-1
4.525073801E0,-2.240280151E0,-1.079940701E1,5.976074338E-1
4.527309763E0,-2.246860504E0,-1.050389290E1,8.165507317E-1
4.529544748E0,-2.325823545E0,-1.023111153E1,9.487541914E-1
4.531780649E0,-2.431107759E0,-9.851848602E0,1.023529887E0
4.534017100E0,-2.650649309E0,-9.304491043E0,1.292124271E0
4.536254160E0,-2.845066071E0,-8.489136696E0,1.370489120E0
4.538490244E0,-2.746362209E0,-7.600800991E0,1.369890928E0
4.540726572E0,-2.753540754E0,-6.839883327E0,1.244267821E0
4.542963816E0,-2.899502754E0,-6.176473618E0,9.559326172E-1
4.545199167E0,-2.934797049E0,-5.913262844E0,1.031306505E0
4.547431345E0,-2.617149830E0,-5.867799282E0,1.530210137E0
4.549671152E0,-2.346760750E0,-5.873781204E0,1.909472466E0
4.551907603E0,-2.143969059E0,-5.902495384E0,2.249851465E0
4.554142100E0,-2.286342144E0,-5.653043270E0,2.524427891E0
4.556366159E0,-2.742174864E0,-5.038087845E0,2.486142635E0
4.558605966E0,-3.302095175E0,-3.975076675E0,1.978266120E0
4.560854563E0,-3.803391695E0,-3.025724173E0,1.056431174E0
4.563093393E0,-4.188037872E0,-2.207977057E0,2.793620527E-1
4.565325205E0,-3.650849104E0,-2.285145521E0,6.610172391E-1
4.567549752E0,-2.905484915E0,-3.262015581E0,1.580459356E0
4.569797982E0,-2.756531715E0,-4.719842434E0,1.913061738E0
4.572034433E0,-2.883949518E0,-6.083751678E0,1.561316729E0
4.574273691E0,-2.967698336E0,-7.232306480E0,9.762716293E-1
4.576507273E0,-2.751745939E0,-8.647063255E0,1.555334777E-1
4.578744638E0,-2.387438774E0,-1.028076267E1,-4.013960063E-1
4.580980722E0,-1.903490424E0,-1.169013500E1,-1.204786181E0
4.583216074E0,-1.537388563E0,-1.286022568E1,-1.733600020E0
4.585449106E0,-1.666002750E0,-1.358106327E1,-2.539382935E0
4.587673349E0,-1.370489120E0,-1.464467239E1,-3.068794966E0
4.589910227E0,-8.596215248E-1,-1.585484314E1,-2.670988321E0
4.592146188E0,-5.551348329E-1,-1.664387703E1,-2.629113913E0
4.594387094E0,-3.858426511E-1,-1.663310814E1,-3.376272678E0
4.596623484E0,-2.542374134E-1,-1.617727661E1,-4.081557274E0
4.598862437E0,-1.166501045E-1,-1.516570950E1,-5.045266628E0
4.601109140E0,1.010967612E0,-1.231286716E1,-6.179464340E0
4.603345346E0,4.406980991E0,-7.092326164E0,-7.415955544E0
4.605581552E0,4.514060020E0,-4.822135925E0,-6.565307140E0
4.607815378E0,1.783849239E0,-6.253043652E0,-3.745963812E0
4.610051462E0,2.542374134E-1,-8.338388443E0,-1.939382792E0
4.612288095E0,-6.765705943E-1,-1.107817078E1,-1.411765367E-1
4.614522531E0,-1.603191137E0,-1.423370552E1,1.663011789E0
4.616747263E0,-2.892324448E0,-1.615035629E1,2.422134638E0
4.618983408E0,-4.528416634E0,-1.760878181E1,2.528615236E0
4.621227060E0,-6.037689686E0,-1.828415680E1,2.520838737E0
4.623471994E0,-7.271189690E0,-1.879083633E1,2.472383976E0
4.625708505E0,-8.156534195E0,-1.900738716E1,2.550150633E0
4.627943308E0,-8.757132530E0,-1.929153442E1,2.860021353E0
4.630178476E0,-8.201997757E0,-1.931426620E1,2.846262455E0
