"Time (s)","Gyroscope x (rad/s)","Gyroscope y (rad/s)","Gyroscope z (rad/s)"
2.120776500E-2,1.870774776E-1,1.023199260E-1,1.679879427E-2
2.340748000E-2,1.818851233E-1,8.903361112E-2,1.542434748E-2
2.564295300E-2,1.728748679E-1,7.467827946E-2,1.649336144E-2
2.787909800E-2,1.603521258E-1,5.910121277E-2,1.634064503E-2
3.011579300E-2,1.502728462E-1,4.841107130E-2,1.496619824E-2
3.235236500E-2,1.353066564E-1,3.894266114E-2,1.481348183E-2
3.459009700E-2,1.215621829E-1,2.962696366E-2,1.221730467E-2
3.682483900E-2,1.114829108E-1,1.878410578E-2,8.399397135E-3
3.906183800E-2,9.407325089E-2,1.069014147E-2,5.803219974E-3
4.129767800E-2,8.032877743E-2,-1.221730490E-3,5.650503561E-3
4.353357900E-2,6.414084882E-2,-9.315694682E-3,3.054326167E-3
4.577216500E-2,4.550946131E-2,-2.107485011E-2,-2.138028387E-3
4.800770000E-2,2.687807009E-2,-2.687807009E-2,-4.734205548E-3
5.024408900E-2,1.084285788E-2,-3.619376570E-2,-8.552113548E-3
5.248206500E-2,-7.788531948E-3,-4.428773001E-2,-9.926560335E-3
5.471924800E-2,-2.275473066E-2,-5.497787148E-2,-1.252273750E-2
5.695081500E-2,-4.260785133E-2,-6.062837690E-2,-1.527163107E-2
5.918360300E-2,-5.986479297E-2,-6.520986557E-2,-2.031126991E-2
6.142292200E-2,-7.727445662E-2,-7.574728876E-2,-2.168571576E-2
6.366150800E-2,-9.575312585E-2,-7.666359097E-2,-2.550362423E-2
6.589960600E-2,-1.130100712E-1,-7.987063378E-2,-2.809980139E-2
6.813367600E-2,-1.304197311E-1,-8.445212245E-2,-3.191770986E-2
7.037085900E-2,-1.452332139E-1,-8.536841720E-2,-3.329215571E-2
7.260724800E-2,-1.611157060E-1,-8.261952549E-2,-3.466660157E-2
7.484363700E-2,-1.747074574E-1,-8.231408894E-2,-3.604105115E-2
7.708100300E-2,-1.881465018E-1,-7.971791178E-2,-3.741549700E-2
7.931916300E-2,-2.015855312E-1,-7.574728876E-2,-3.741549700E-2
8.155060800E-2,-2.112066597E-1,-6.826419383E-2,-3.878994286E-2
8.378644700E-2,-2.173153162E-1,-6.093380973E-2,-3.756821156E-2
8.602277500E-2,-2.220495194E-1,-5.467243865E-2,-3.756821156E-2
8.826270500E-2,-2.257147133E-1,-4.856378585E-2,-3.634648025E-2
9.050226800E-2,-2.304489166E-1,-4.245513305E-2,-3.512475267E-2
9.273237000E-2,-2.241875380E-1,-3.894266114E-2,-3.375030309E-2
9.496857700E-2,-2.266310006E-1,-3.405573592E-2,-3.252857551E-2
9.720490400E-2,-2.217440903E-1,-3.405573592E-2,-3.130684420E-2
9.944434500E-2,-2.142609805E-1,-3.054326214E-2,-2.641992271E-2
1.016794520E-1,-2.055561543E-1,-2.840523422E-2,-2.626720630E-2
1.039119960E-1,-1.933388561E-1,-3.100141138E-2,-2.489275858E-2
1.061464330E-1,-1.798998117E-1,-3.252857551E-2,-2.000583708E-2
1.083876440E-1,-1.701259762E-1,-3.268129006E-2,-1.740965992E-2
1.106239720E-1,-1.591303945E-1,-3.894266114E-2,-1.374446787E-2
1.128603600E-1,-1.444696337E-1,-4.169155285E-2,-1.481348183E-2
1.150966890E-1,-1.272126883E-1,-4.444044828E-2,-1.343903504E-2
1.173321020E-1,-1.113301888E-1,-4.474587739E-2,-8.399397135E-3
1.195684910E-1,-9.773843735E-2,-4.505131021E-2,-3.359758761E-3
1.218048800E-1,-8.307767659E-2,-4.535674304E-2,4.581489484E-4
1.240418800E-1,-6.948592514E-2,-4.077525437E-2,3.054326167E-3
1.262769870E-1,-5.589416996E-2,-3.741549700E-2,7.941247895E-3
1.285132540E-1,-3.985895589E-2,-4.016438872E-2,1.298088674E-2
1.307505590E-1,-2.504547499E-2,-3.436116874E-2,1.802052557E-2
1.329874360E-1,-1.145372353E-2,-3.344487399E-2,1.939497143E-2
1.352208950E-1,-2.901609987E-3,-2.871066704E-2,2.687807009E-2
1.374539880E-1,9.468411095E-3,-2.412917651E-2,3.191770986E-2
1.396941010E-1,1.939497143E-2,-1.817324013E-2,3.558290005E-2
1.419320160E-1,2.932153270E-2,-1.359175146E-2,3.940080851E-2
1.441687100E-1,3.680463135E-2,-8.857546374E-3,4.444044828E-2
1.464033910E-1,4.550946131E-2,-4.123340361E-3,5.054909736E-2
1.486414890E-1,5.543602258E-2,-7.635815418E-4,5.558873713E-2
1.508901460E-1,6.398813426E-2,2.748893574E-3,5.940664560E-2
1.531265350E-1,6.902777404E-2,8.704829961E-3,6.429356337E-2
1.553600560E-1,7.406741381E-2,1.343903504E-2,6.933320314E-2
1.575852140E-1,8.032877743E-2,1.695151068E-2,7.055493444E-2
1.598339330E-1,8.399397135E-2,2.183843218E-2,7.422012836E-2
1.620697730E-1,8.888089657E-2,1.924225502E-2,7.803803682E-2
1.643077480E-1,9.147707373E-2,2.290744707E-2,7.803803682E-2
1.665412080E-1,9.254608303E-2,2.046398632E-2,8.048149943E-2
1.687775370E-1,9.376781434E-2,2.031126991E-2,8.170322329E-2
1.710138650E-1,9.254608303E-2,1.557706390E-2,8.048149943E-2
1.732498880E-1,8.994990587E-2,9.468411095E-3,8.170322329E-2
1.754865210E-1,9.101892263E-2,7.024950348E-3,7.925976813E-2
1.777241300E-1,8.857546002E-2,2.290744567E-3,7.910704613E-2
1.799602150E-1,8.842274547E-2,-5.039638374E-3,7.422012836E-2
1.821953830E-1,8.353582025E-2,-7.330383174E-3,6.933320314E-2
1.844315280E-1,7.849618047E-2,-1.206458826E-2,6.918048859E-2
1.866674280E-1,7.345654815E-2,-1.557706390E-2,6.673702598E-2
1.889042450E-1,6.597344577E-2,-2.397646010E-2,6.536258012E-2
1.911403290E-1,5.986479297E-2,-2.382374369E-2,6.047565863E-2
1.933772680E-1,4.871650413E-2,-2.611448988E-2,5.787948146E-2
1.956144500E-1,4.260785133E-2,-2.596177347E-2,5.665775016E-2
1.978502900E-1,3.405573592E-2,-2.214386500E-2,4.917465150E-2
2.000853980E-1,2.290744707E-2,-2.550362423E-2,4.795292020E-2
2.023217260E-1,1.298088674E-2,-2.901609987E-2,4.291328415E-2
2.045580540E-1,3.207042580E-3,-2.886338346E-2,3.787364438E-2
2.067945040E-1,-4.123340361E-3,-2.993239649E-2,3.665191308E-2
2.090310150E-1,-1.527163107E-2,-3.329215571E-2,3.039054573E-2
2.112675270E-1,-2.748893574E-2,-3.298672289E-2,2.535090782E-2
2.135046480E-1,-3.741549700E-2,-3.649919853E-2,2.046398632E-2
2.157406100E-1,-4.734205827E-2,-3.634648025E-2,1.786780916E-2
2.179749240E-1,-5.467243865E-2,-3.863722831E-2,1.160643995E-2
2.202086890E-1,-6.444628537E-2,-3.481931984E-2,6.719517522E-3
2.224452000E-1,-6.933320314E-2,-3.711006418E-2,1.832595794E-3
2.246728000E-1,-7.666359097E-2,-3.817907721E-2,-3.207042580E-3
2.269216400E-1,-8.399397135E-2,-3.680463135E-2,-6.872233935E-3
2.291575410E-1,-9.010262042E-2,-3.665191308E-2,-9.468411095E-3
2.313976530E-1,-9.514226019E-2,-3.894266114E-2,-1.435533352E-2
2.336286110E-1,-1.024726480E-1,-4.123340547E-2,-1.817324013E-2
2.358659760E-1,-1.062905490E-1,-4.612032697E-2,-1.939497143E-2
2.380991920E-1,-1.099557430E-1,-4.596760869E-2,-2.061670274E-2
2.403272190E-1,-1.136209369E-1,-4.596760869E-2,-2.306016348E-2
2.425752050E-1,-1.113301888E-1,-4.841107130E-2,-2.061670274E-2
2.448112890E-1,-1.137736514E-1,-5.192354694E-2,-2.061670274E-2
2.470510960E-1,-1.174388453E-1,-5.070181563E-2,-2.199114859E-2
2.492854100E-1,-1.186605766E-1,-4.948008433E-2,-2.199114859E-2
2.515214940E-1,-1.137736514E-1,-4.718934000E-2,-2.061670274E-2
2.537565400E-1,-1.136209369E-1,-4.352414981E-2,-2.061670274E-2
2.559896940E-1,-1.146899462E-1,-3.741549700E-2,-2.061670274E-2
2.582171730E-1,-1.110247597E-1,-3.634648025E-2,-2.306016348E-2
2.604652810E-1,-1.072068512E-1,-3.145955876E-2,-2.428189293E-2
2.627016700E-1,-1.033889428E-1,-2.306016348E-2,-2.412917651E-2
2.649414160E-1,-9.834930301E-2,-1.954768784E-2,-2.290744707E-2
2.671728000E-1,-9.453139454E-2,-1.237002108E-2,-1.908953860E-2
2.693996070E-1,-8.842274547E-2,-1.481348183E-2,-2.153299935E-2
2.716466770E-1,-8.231408894E-2,-1.252273750E-2,-1.786780916E-2
2.738830040E-1,-7.360926270E-2,-1.389718428E-2,-1.527163107E-2
2.761223230E-1,-6.612616032E-2,-8.093964309E-3,-1.282817032E-2
2.783557220E-1,-6.001751125E-2,-8.093964309E-3,-9.010262787E-3
2.805920510E-1,-5.146539584E-2,-1.069014147E-2,-7.788531948E-3
2.828288060E-1,-4.291328415E-2,-1.328631863E-2,-5.192354787E-3
2.850659880E-1,-3.298672289E-2,-9.926560335E-3,-1.527163084E-3
2.873022560E-1,-2.199114859E-2,-1.007927675E-2,2.290744567E-3
2.895373020E-1,-1.221730467E-2,-7.941247895E-3,7.330383174E-3
2.917733860E-1,-4.734205548E-3,-5.650503561E-3,9.773843922E-3
2.940094080E-1,5.192354787E-3,-3.359758761E-3,9.926560335E-3
2.962459810E-1,1.374446787E-2,-3.512475174E-3,1.359175146E-2
2.984821260E-1,2.244929783E-2,-2.443460980E-3,1.618792862E-2
3.007190040E-1,3.222314268E-2,-3.054326226E-4,1.863138936E-2
3.029534390E-1,4.214970022E-2,7.635815418E-4,1.878410578E-2
3.051782320E-1,5.207626149E-2,3.054326167E-3,1.893682219E-2
3.074138280E-1,5.940664560E-2,7.788531948E-3,2.138028294E-2
3.096503390E-1,6.566801667E-2,1.252273750E-2,2.275473066E-2
3.118928310E-1,7.070764899E-2,1.481348183E-2,2.275473066E-2
3.141269010E-1,7.819075137E-2,2.076941915E-2,2.168571576E-2
3.163753750E-1,8.689557761E-2,2.412917651E-2,2.046398632E-2
3.186078580E-1,9.804387391E-2,2.519819140E-2,2.061670274E-2
3.208377780E-1,1.029307917E-1,2.626720630E-2,2.061670274E-2
3.230827120E-1,1.116356254E-1,2.977968007E-2,1.832595654E-2
3.253146450E-1,1.140790880E-1,2.977968007E-2,2.076941915E-2
3.275449310E-1,1.165225431E-1,2.596177347E-2,2.076941915E-2
3.297902320E-1,1.177442744E-1,2.718350291E-2,2.199114859E-2
3.320268650E-1,1.201877370E-1,2.718350291E-2,2.199114859E-2
3.342659390E-1,1.201877370E-1,2.596177347E-2,2.199114859E-2
3.364997650E-1,1.189660057E-1,2.474004216E-2,2.199114859E-2
3.387370090E-1,1.201877370E-1,2.840523422E-2,2.076941915E-2
3.409728490E-1,1.165225431E-1,2.596177347E-2,2.321287990E-2
3.432079560E-1,1.139263660E-1,2.489275858E-2,2.321287990E-2
3.454442240E-1,1.091921628E-1,2.855795063E-2,2.199114859E-2
3.476804300E-1,1.043052375E-1,3.115412779E-2,2.550362423E-2
3.499173680E-1,1.006400511E-1,3.237585723E-2,2.550362423E-2
3.521537570E-1,9.437867999E-2,3.008511290E-2,2.672535367E-2
3.543898410E-1,9.071348608E-2,2.901609987E-2,2.550362423E-2
3.566269020E-1,8.200865984E-2,2.672535367E-2,2.779436857E-2
3.588631690E-1,7.712173462E-2,3.161227703E-2,2.901609987E-2
3.610986420E-1,6.734789163E-2,3.069597855E-2,2.764165215E-2
3.633347870E-1,6.123924255E-2,3.191770986E-2,2.519819140E-2
3.655709320E-1,5.619960278E-2,2.962696366E-2,2.519819140E-2
3.678070160E-1,4.886921868E-2,2.855795063E-2,2.260201424E-2
3.700434060E-1,3.894266114E-2,2.626720630E-2,2.138028294E-2
3.722790010E-1,3.527746722E-2,2.641992271E-2,1.878410578E-2
3.745127050E-1,2.779436857E-2,2.412917651E-2,1.634064503E-2
3.767534280E-1,2.153299935E-2,1.939497143E-2,1.496619824E-2
3.789887180E-1,1.527163107E-2,1.099557430E-2,1.496619824E-2
3.812260220E-1,9.010262787E-3,9.926560335E-3,1.725694351E-2
3.834611900E-1,6.414085161E-3,1.527163084E-3,1.725694351E-2
3.856977020E-1,3.970623948E-3,1.527163084E-3,1.970040426E-2
3.879338470E-1,1.527163113E-4,-4.428773187E-3,2.336559631E-2
3.901706030E-1,-1.374446787E-3,-1.298088674E-2,2.809980139E-2
3.924077240E-1,-7.635815535E-3,-1.893682219E-2,2.932153270E-2
3.946439920E-1,-6.566801574E-3,-2.733621933E-2,3.543018550E-2
3.968788550E-1,-9.162978269E-3,-3.466660157E-2,4.016438872E-2
3.991152440E-1,-9.315694682E-3,-4.062253982E-2,4.627304152E-2
4.013515100E-1,-8.246680722E-3,-4.321871698E-2,4.993823543E-2
4.035881440E-1,-9.468411095E-3,-4.428773001E-2,5.726861581E-2
4.058241670E-1,-1.084285788E-2,-4.428773001E-2,5.971207842E-2
4.080608000E-1,-1.084285788E-2,-4.428773001E-2,6.337726861E-2
4.102982880E-1,-9.621127509E-3,-4.550946131E-2,6.948592514E-2
4.125341280E-1,-1.206458826E-2,-4.428773001E-2,7.559457421E-2
4.147692970E-1,-1.206458826E-2,-3.817907721E-2,8.063421398E-2
4.170055030E-1,-1.206458826E-2,-3.695734590E-2,8.552113175E-2
4.192416480E-1,-1.450804994E-2,-3.207042441E-2,9.040805697E-2
4.214782810E-1,-1.313360315E-2,-2.489275858E-2,9.529497474E-2
4.237145480E-1,-1.542434748E-2,-1.756237634E-2,9.896016866E-2
4.259511810E-1,-1.771509275E-2,-9.010262787E-3,1.026253626E-1
4.281885470E-1,-1.878410578E-2,7.635815418E-4,1.064432710E-1
4.304248140E-1,-2.474004216E-2,1.053742506E-2,1.062905490E-1
4.326598610E-1,-2.703078650E-2,2.031126991E-2,1.064432710E-1
4.348920380E-1,-3.039054573E-2,3.375030309E-2,1.064432710E-1
4.371173190E-1,-3.390302137E-2,4.474587739E-2,1.052215397E-1
4.393686010E-1,-3.375030309E-2,5.558873713E-2,1.027780771E-1
4.416050510E-1,-3.726277873E-2,6.062837690E-2,1.003346145E-1
4.438454680E-1,-4.077525437E-2,6.673702598E-2,9.911288321E-2
4.460788670E-1,-4.199698567E-2,7.040221989E-2,9.544769675E-2
4.483148900E-1,-4.550946131E-2,7.284568250E-2,8.933904022E-2
4.505499360E-1,-4.550946131E-2,7.284568250E-2,8.445212245E-2
4.527860810E-1,-4.550946131E-2,7.040221989E-2,8.323039114E-2
4.550224100E-1,-4.444044828E-2,6.307183951E-2,7.696902007E-2
4.572589820E-1,-4.703662544E-2,5.711590126E-2,7.208210230E-2
4.594950050E-1,-4.703662544E-2,5.345070735E-2,6.597344577E-2
4.617314550E-1,-4.596760869E-2,4.260785133E-2,5.986479297E-2
4.639691870E-1,-4.489859566E-2,3.527746722E-2,5.482515693E-2
4.662050270E-1,-4.612032697E-2,3.039054573E-2,4.627304152E-2
4.684402560E-1,-4.367686436E-2,2.550362423E-2,4.138612002E-2
4.706764610E-1,-4.505131021E-2,1.832595654E-2,3.527746722E-2
4.729127890E-1,-4.642575979E-2,1.221730467E-2,2.779436857E-2
4.751491180E-1,-4.764748737E-2,4.886921961E-3,2.290744707E-2
4.773821500E-1,-5.024366826E-2,1.374446787E-3,1.802052557E-2
4.796083470E-1,-5.146539584E-2,-2.290744567E-3,1.435533352E-2
4.818535250E-1,-5.390885845E-2,-9.162978968E-4,1.313360315E-2
4.840954080E-1,-5.894849449E-2,-4.581489135E-3,1.420261711E-2
4.863333220E-1,-5.528330430E-2,-1.191187184E-2,1.175915636E-2
4.885680630E-1,-5.421429127E-2,-1.435533352E-2,1.298088674E-2
4.908029260E-1,-5.910121277E-2,-1.420261711E-2,1.542434748E-2
4.930396210E-1,-6.169738993E-2,-2.031126991E-2,1.420261711E-2
4.952728970E-1,-6.047565863E-2,-2.031126991E-2,1.175915636E-2
4.975004980E-1,-6.047565863E-2,-1.908953860E-2,1.175915636E-2
4.997497650E-1,-6.169738993E-2,-2.031126991E-2,1.053742506E-2
5.019858490E-1,-5.787948146E-2,-1.420261711E-2,9.315694682E-3
5.042241910E-1,-5.772676691E-2,-9.468411095E-3,8.093964309E-3
5.064572240E-1,-5.635231733E-2,-2.138028387E-3,4.428773187E-3
5.086933080E-1,-5.497787148E-2,3.817907767E-3,2.138028387E-3
5.109269500E-1,-5.115996301E-2,1.114829071E-2,2.138028387E-3
5.131544900E-1,-4.734205827E-2,1.466076635E-2,-1.527163084E-3
5.154040010E-1,-4.230241850E-2,1.817324013E-2,-3.817907767E-3
5.176460670E-1,-3.481931984E-2,2.168571576E-2,-3.817907767E-3
5.198842250E-1,-3.115412779E-2,2.290744707E-2,-5.039638374E-3
5.221113380E-1,-2.260201424E-2,2.153299935E-2,-7.330383174E-3
5.243464450E-1,-1.634064503E-2,2.138028294E-2,-6.108652335E-3
5.265824680E-1,-7.788531948E-3,2.000583708E-2,-9.773843922E-3
5.288205050E-1,7.635815418E-4,1.496619824E-2,-9.621127509E-3
5.310563450E-1,9.315694682E-3,8.704829961E-3,-1.084285788E-2
5.332931610E-1,1.771509275E-2,2.443460980E-3,-1.450804994E-2
5.355301610E-1,2.626720630E-2,-1.374446787E-3,-1.679879427E-2
5.377663060E-1,3.115412779E-2,-5.039638374E-3,-1.435533352E-2
5.400014130E-1,4.214970022E-2,-1.252273750E-2,-1.557706390E-2
5.422377420E-1,5.177082866E-2,-1.756237634E-2,-1.175915636E-2
5.444738870E-1,5.543602258E-2,-2.138028294E-2,-1.420261711E-2
5.467107030E-1,6.276640296E-2,-2.275473066E-2,-1.664607786E-2
5.489467260E-1,6.902777404E-2,-2.275473066E-2,-1.649336144E-2
5.511803070E-1,7.513642311E-2,-2.168571576E-2,-1.527163107E-2
5.534083960E-1,8.002334833E-2,-2.061670274E-2,-1.404990070E-2
5.556566870E-1,8.384125680E-2,-1.817324013E-2,-1.267545391E-2
5.578917330E-1,8.628471941E-2,-1.588249579E-2,-9.010262787E-3
5.601306850E-1,9.132435173E-2,-1.237002108E-2,-5.345070735E-3
5.623642060E-1,9.392052889E-2,-5.039638374E-3,-6.414085161E-3
5.646007790E-1,9.758572280E-2,-2.748893574E-3,-3.970623948E-3
5.668369850E-1,9.880745411E-2,-1.527163084E-3,-3.970623948E-3
5.690737400E-1,9.896016866E-2,3.359758761E-3,-3.054326226E-4
5.713110450E-1,9.529497474E-2,5.803219974E-3,9.162978968E-4
5.735471290E-1,9.285151958E-2,7.024950348E-3,2.138028387E-3
5.757821750E-1,8.918632567E-2,8.399397135E-3,4.581489135E-3
5.780152070E-1,8.307767659E-2,1.206458826E-2,5.650503561E-3
5.802423790E-1,7.574728876E-2,1.466076635E-2,5.650503561E-3
5.824911590E-1,7.086037099E-2,1.725694351E-2,4.428773187E-3
5.847272430E-1,6.352998316E-2,1.740965992E-2,4.276056774E-3
5.869669290E-1,5.482515693E-2,1.756237634E-2,5.497787148E-3
5.892013640E-1,4.993823543E-2,2.000583708E-2,3.054326167E-3
5.914372650E-1,4.138612002E-2,2.015855350E-2,-7.635815418E-4
5.936726780E-1,3.283400834E-2,2.153299935E-2,4.581489484E-4
5.959088840E-1,2.428189293E-2,2.168571576E-2,-2.138028387E-3
5.981420380E-1,1.679879427E-2,2.306016348E-2,-2.138028387E-3
6.003671350E-1,7.024950348E-3,2.092213556E-2,-2.290744567E-3
6.026078590E-1,-4.123340361E-3,1.740965992E-2,-3.512475174E-3
6.048544410E-1,-1.282817032E-2,1.160643995E-2,-3.665191587E-3
6.070945530E-1,-2.046398632E-2,4.428773187E-3,-2.596177394E-3
6.093302700E-1,-2.794708498E-2,-1.527163084E-3,-3.817907767E-3
6.115626320E-1,-3.543018550E-2,-8.552113548E-3,-8.857546374E-3
6.137988380E-1,-4.413501546E-2,-1.450804994E-2,-1.007927675E-2
6.160352880E-1,-5.299255997E-2,-2.412917651E-2,-9.010262787E-3
6.182717380E-1,-5.803219974E-2,-3.008511290E-2,-1.038470957E-2
6.205080660E-1,-6.673702598E-2,-3.711006418E-2,-9.162978269E-3
6.227446380E-1,-7.070764899E-2,-4.550946131E-2,-6.872233935E-3
6.249821870E-1,-7.925976813E-2,-4.535674304E-2,-8.093964309E-3
6.272179660E-1,-8.323039114E-2,-5.742133409E-2,-8.246680722E-3
6.294530740E-1,-8.949175477E-2,-6.337726861E-2,-8.246680722E-3
6.316890970E-1,-8.949175477E-2,-6.459899992E-2,-5.803219974E-3
6.339255470E-1,-9.086620808E-2,-6.948592514E-2,-5.955935922E-3
6.361623020E-1,-9.834930301E-2,-7.177666575E-2,-3.512475174E-3
6.383981420E-1,-1.007927656E-1,-7.284568250E-2,-3.512475174E-3
6.406347140E-1,-1.007927656E-1,-7.406741381E-2,-2.290744567E-3
6.428703710E-1,-1.044579595E-1,-7.284568250E-2,-1.069014193E-3
6.450988250E-1,-1.046106741E-1,-7.284568250E-2,2.596177394E-3
6.473316140E-1,-1.094975919E-1,-7.147123665E-2,2.443460980E-3
6.495798440E-1,-1.033889428E-1,-7.284568250E-2,6.261368748E-3
6.518175150E-1,-1.032362282E-1,-6.918048859E-2,6.261368748E-3
6.540554290E-1,-1.044579595E-1,-7.040221989E-2,7.483099122E-3
6.562884620E-1,-1.032362282E-1,-7.040221989E-2,8.704829961E-3
6.585251560E-1,-1.044579595E-1,-6.918048859E-2,9.926560335E-3
6.607627050E-1,-9.941831976E-2,-6.444628537E-2,7.483099122E-3
6.629987280E-1,-9.575312585E-2,-6.200282276E-2,5.192354787E-3
6.652321260E-1,-9.071348608E-2,-5.604688451E-2,3.970623948E-3
6.674637540E-1,-8.689557761E-2,-5.375614017E-2,1.527163084E-3
6.697060030E-1,-8.063421398E-2,-5.146539584E-2,4.581489484E-4
6.719428810E-1,-7.819075137E-2,-5.024366826E-2,-3.207042580E-3
6.741804300E-1,-6.948592514E-2,-4.795292020E-2,-6.872233935E-3
6.764155370E-1,-6.200282276E-2,-4.092797264E-2,-5.497787148E-3
6.786528410E-1,-5.451972410E-2,-3.741549700E-2,-9.162978269E-3
6.808891090E-1,-4.459316283E-2,-3.634648025E-2,-1.023199316E-2
6.831209200E-1,-3.711006418E-2,-3.405573592E-2,-1.145372353E-2
6.853449190E-1,-2.962696366E-2,-2.932153270E-2,-1.374446787E-2
6.875847260E-1,-2.229658142E-2,-2.703078650E-2,-1.374446787E-2
6.898334450E-1,-1.481348183E-2,-2.840523422E-2,-1.481348183E-2
6.920721530E-1,-8.552113548E-3,-2.367102914E-2,-1.725694351E-2
6.943088480E-1,0.000000000E0,-2.382374369E-2,-1.710422710E-2
6.965431000E-1,7.483099122E-3,-2.397646010E-2,-2.076941915E-2
6.987793670E-1,1.481348183E-2,-2.046398632E-2,-2.061670274E-2
7.010145970E-1,2.107485011E-2,-2.061670274E-2,-2.306016348E-2
7.032504370E-1,2.840523422E-2,-1.954768784E-2,-2.550362423E-2
7.054867040E-1,3.466660157E-2,-2.092213556E-2,-2.779436857E-2
7.077230320E-1,3.711006418E-2,-1.847867295E-2,-2.901609987E-2
7.099594820E-1,4.214970022E-2,-1.374446787E-2,-2.779436857E-2
7.121962980E-1,4.352414981E-2,-9.010262787E-3,-2.779436857E-2
7.144336640E-1,4.474587739E-2,-7.788531948E-3,-3.023782931E-2
7.166696260E-1,4.474587739E-2,-5.345070735E-3,-3.023782931E-2
7.189045510E-1,4.734205827E-2,-4.123340361E-3,-3.130684420E-2
7.211410010E-1,4.489859566E-2,-1.679879380E-3,-2.886338346E-2
7.233739110E-1,3.863722831E-2,-1.527163084E-3,-2.901609987E-2
7.256018770E-1,3.619376570E-2,-1.527163084E-3,-3.023782931E-2
7.278499850E-1,3.390302137E-2,-3.054326226E-4,-3.145955876E-2
7.300864960E-1,3.008511290E-2,-1.374446787E-3,-3.390302137E-2
7.323269140E-1,2.397646010E-2,-3.665191587E-3,-3.894266114E-2
7.345597020E-1,2.275473066E-2,-4.886921961E-3,-4.138612002E-2
7.367949310E-1,1.298088674E-2,-2.290744567E-3,-4.260785133E-2
7.390311990E-1,7.941247895E-3,-9.468411095E-3,-4.398229718E-2
7.412647800E-1,4.581489484E-4,-1.053742506E-2,-4.398229718E-2
7.434898770E-1,-3.207042580E-3,-1.160643995E-2,-4.902193695E-2
7.457231530E-1,-8.246680722E-3,-1.527163107E-2,-5.024366826E-2
7.479564290E-1,-1.206458826E-2,-2.244929783E-2,-5.635231733E-2
7.501897050E-1,-2.199114859E-2,-2.703078650E-2,-5.894849449E-2
7.524229810E-1,-2.199114859E-2,-3.313944116E-2,-6.139195710E-2
7.546562570E-1,-2.458732575E-2,-3.802636266E-2,-6.276640296E-2
7.568895330E-1,-2.718350291E-2,-4.276056588E-2,-6.643159688E-2
7.591228090E-1,-2.840523422E-2,-4.993823543E-2,-6.887505949E-2
7.613917330E-1,-2.611448988E-2,-5.497787148E-2,-7.131851465E-2
7.636278170E-1,-2.626720630E-2,-6.215553731E-2,-7.009678334E-2
7.658616420E-1,-2.764165215E-2,-6.704246253E-2,-7.147123665E-2
7.680927220E-1,-2.519819140E-2,-7.437284291E-2,-7.024950534E-2
7.703404640E-1,-2.550362423E-2,-8.277224004E-2,-6.902777404E-2
7.725753270E-1,-2.183843218E-2,-8.414668590E-2,-6.902777404E-2
7.748146450E-1,-1.450804994E-2,-8.796459436E-2,-6.765332818E-2
7.770480440E-1,-7.177666761E-3,-9.285151958E-2,-6.643159688E-2
7.792846780E-1,-2.290744567E-3,-9.300423414E-2,-6.643159688E-2
7.815208220E-1,3.817907767E-3,-9.437867999E-2,-6.139195710E-2
7.837578220E-1,1.237002108E-2,-9.330966324E-2,-5.894849449E-2
7.859948210E-1,2.107485011E-2,-9.224065393E-2,-5.635231733E-2
7.882307220E-1,2.962696366E-2,-9.117163718E-2,-5.268712714E-2
7.904659520E-1,3.711006418E-2,-8.888089657E-2,-5.009094998E-2
7.927020970E-1,4.337143153E-2,-8.292495459E-2,-4.520402849E-2
7.949384860E-1,4.825835302E-2,-7.941248268E-2,-4.138612002E-2
7.971749970E-1,5.818491429E-2,-7.238753140E-2,-3.772092983E-2
7.994110810E-1,6.444628537E-2,-6.765332818E-2,-3.756821156E-2
8.016477140E-1,7.086037099E-2,-5.803219974E-2,-3.375030309E-2
8.038852630E-1,7.712173462E-2,-4.963280261E-2,-3.619376570E-2
8.061212860E-1,8.231408894E-2,-3.634648025E-2,-3.726277873E-2
8.083532200E-1,9.132435173E-2,-2.076941915E-2,-3.711006418E-2
8.105774020E-1,9.407325089E-2,-7.483099122E-3,-3.588833287E-2
8.128162940E-1,9.804387391E-2,8.246680722E-3,-3.695734590E-2
8.150652560E-1,1.032362282E-1,2.260201424E-2,-4.062253982E-2
8.173046960E-1,1.047633886E-1,3.711006418E-2,-4.169155285E-2
8.195411470E-1,1.087340117E-1,5.161811411E-2,-3.924809024E-2
8.217754000E-1,1.102611795E-1,6.017022580E-2,-3.665191308E-2
8.240113620E-1,1.091921628E-1,6.872233748E-2,-3.665191308E-2
8.262465310E-1,1.055269688E-1,7.360926270E-2,-3.176499158E-2
8.284826150E-1,1.067487001E-1,7.590000331E-2,-3.054326214E-2
8.307190040E-1,1.091921628E-1,7.712173462E-2,-2.687807009E-2
8.329557590E-1,1.091921628E-1,7.345654815E-2,-2.687807009E-2
8.351916600E-1,1.102611795E-1,6.734789163E-2,-2.687807009E-2
8.374284760E-1,1.090394482E-1,6.505715102E-2,-2.687807009E-2
8.396657200E-1,1.088867337E-1,5.650503561E-2,-2.687807009E-2
8.419018650E-1,1.073595658E-1,4.688390717E-2,-2.336559631E-2
8.441369110E-1,1.023199260E-1,3.848451003E-2,-2.703078650E-2
8.463729960E-1,1.058324054E-1,3.115412779E-2,-2.703078650E-2
8.486092630E-1,1.055269688E-1,1.527163107E-2,-2.718350291E-2
8.508456520E-1,1.039998084E-1,4.428773187E-3,-2.718350291E-2
8.530819800E-1,1.026253626E-1,-6.414085161E-3,-2.718350291E-2
8.553156220E-1,1.010981947E-1,-2.107485011E-2,-2.733621933E-2
8.575442600E-1,9.728029370E-2,-2.947424725E-2,-3.100141138E-2
8.597922460E-1,9.208793938E-2,-4.031710699E-2,-2.993239649E-2
8.620273530E-1,9.315694869E-2,-4.993823543E-2,-3.115412779E-2
8.642663660E-1,9.056077152E-2,-5.833763257E-2,-3.604105115E-2
8.664996440E-1,8.918632567E-2,-6.566801667E-2,-3.741549700E-2
8.687360330E-1,8.781187981E-2,-7.651086897E-2,-4.230241850E-2
8.709693700E-1,8.659014851E-2,-7.528914511E-2,-4.596760869E-2
8.731970310E-1,8.032877743E-2,-8.246681094E-2,-4.734205827E-2
8.754465430E-1,7.651086897E-2,-8.597928286E-2,-4.856378585E-2
8.776823220E-1,7.651086897E-2,-8.720101416E-2,-5.222897977E-2
8.799205410E-1,7.651086897E-2,-8.964447677E-2,-5.222897977E-2
8.821540000E-1,7.284568250E-2,-8.964447677E-2,-5.467243865E-2
8.843900840E-1,6.658431143E-2,-9.071348608E-2,-5.726861581E-2
8.866264740E-1,6.795875728E-2,-8.949175477E-2,-5.971207842E-2
8.888596900E-1,6.429356337E-2,-8.582656831E-2,-5.849034712E-2
8.910873510E-1,6.688974798E-2,-8.216137439E-2,-6.215553731E-2
8.933366180E-1,6.826419383E-2,-7.376197726E-2,-6.078109145E-2
8.955724580E-1,6.963863969E-2,-6.765332818E-2,-5.833763257E-2
8.978108000E-1,6.979135424E-2,-6.047565863E-2,-5.833763257E-2
9.000439550E-1,6.979135424E-2,-5.558873713E-2,-5.711590126E-2
9.022805270E-1,7.498370856E-2,-4.474587739E-2,-5.451972410E-2
9.045167940E-1,7.513642311E-2,-3.145955876E-2,-5.207626149E-2
9.067529390E-1,7.910704613E-2,-2.183843218E-2,-4.825835302E-2
9.089897550E-1,8.048149943E-2,-1.206458826E-2,-4.703662544E-2
9.112243130E-1,8.323039114E-2,1.221730490E-3,-4.321871698E-2
9.134511200E-1,8.704829961E-2,1.084285788E-2,-3.955352306E-2
9.156979470E-1,9.101892263E-2,2.657263726E-2,-3.695734590E-2
9.179317720E-1,9.621127695E-2,3.619376570E-2,-3.329215571E-2
9.201638270E-1,1.000291854E-1,4.703662544E-2,-3.069597855E-2
9.224072360E-1,1.062905490E-1,5.772676691E-2,-2.443460934E-2
9.246432590E-1,1.114829108E-1,7.223481685E-2,-1.954768784E-2
9.268822720E-1,1.166752651E-1,8.185594529E-2,-1.572977938E-2
9.291171970E-1,1.206458881E-1,9.514226019E-2,-1.069014147E-2
9.313511440E-1,1.270599663E-1,1.119410545E-1,-1.069014147E-2
9.335790500E-1,1.322523206E-1,1.240056455E-1,-6.872233935E-3
9.358244120E-1,1.346957833E-1,1.252273768E-1,-7.635815418E-4
9.380577490E-1,1.369865239E-1,1.226311997E-1,1.679879380E-3
9.402879120E-1,1.392772794E-1,1.142318025E-1,7.788531948E-3
9.425335180E-1,1.414152980E-1,9.834930301E-2,1.389718428E-2
9.447705780E-1,1.435533315E-1,8.735372871E-2,1.756237634E-2
9.470107520E-1,1.458440721E-1,7.880161703E-2,2.244929783E-2
9.492437230E-1,1.467603743E-1,6.551529467E-2,2.855795063E-2
9.514788910E-1,1.464549452E-1,4.856378585E-2,3.329215571E-2
9.537147310E-1,1.459967941E-1,2.779436857E-2,4.062253982E-2
9.559511210E-1,1.380555481E-1,6.108652335E-3,4.780020565E-2
9.581865940E-1,1.314887404E-1,-1.557706390E-2,5.497787148E-2
9.604196870E-1,1.272126883E-1,-3.726277873E-2,5.849034712E-2
9.626606540E-1,1.183551401E-1,-5.283984542E-2,6.322455406E-2
9.648979590E-1,1.069014147E-1,-6.719517708E-2,6.918048859E-2
9.671351410E-1,9.666942805E-2,-8.155050874E-2,6.902777404E-2
9.693693940E-1,8.429940045E-2,-8.750644326E-2,6.902777404E-2
9.716054160E-1,6.933320314E-2,-9.315694869E-2,7.009678334E-2
9.738415620E-1,5.833763257E-2,-9.056077152E-2,6.994406879E-2
9.760781350E-1,4.245513305E-2,-8.781187981E-2,6.734789163E-2
9.783136080E-1,2.901609987E-2,-8.750644326E-2,6.230825558E-2
9.805507300E-1,1.557706390E-2,-8.368854225E-2,5.864306539E-2
9.827880340E-1,4.581489135E-3,-7.498370856E-2,5.849034712E-2
9.850244850E-1,-6.261368748E-3,-6.627888232E-2,5.360342562E-2
9.872592870E-1,-1.954768784E-2,-5.619960278E-2,4.856378585E-2
9.894956150E-1,-3.161227703E-2,-4.505131021E-2,4.489859566E-2
9.917318810E-1,-4.138612002E-2,-4.001167417E-2,4.108068720E-2
9.939685150E-1,-4.856378585E-2,-3.390302137E-2,3.497203439E-2
9.962045380E-1,-5.574145541E-2,-2.397646010E-2,3.252857551E-2
9.984411720E-1,-6.291911751E-2,-1.542434748E-2,2.519819140E-2
1.000678659E0,-6.887505949E-2,-5.497787148E-3,1.786780916E-2
1.002914499E0,-6.979135424E-2,4.123340361E-3,1.420261711E-2
1.005149607E0,-7.330382615E-2,1.145372353E-2,8.093964309E-3
1.007385752E0,-7.315111160E-2,1.878410578E-2,4.428773187E-3
1.009619638E0,-7.895433158E-2,3.222314268E-2,-1.679879380E-3
1.011847239E0,-7.635815442E-2,4.077525437E-2,-2.901609987E-3
1.014095285E0,-7.620543987E-2,4.550946131E-2,-7.788531948E-3
1.016331675E0,-7.864890248E-2,4.810563847E-2,-1.023199316E-2
1.018571725E0,-7.971791178E-2,5.299255997E-2,-1.267545391E-2
1.020804819E0,-7.467827946E-2,5.894849449E-2,-1.374446787E-2
1.023039988E0,-7.086037099E-2,6.123924255E-2,-1.496619824E-2
1.025273325E0,-6.475171447E-2,6.475171447E-2,-1.618792862E-2
1.027500498E0,-6.093380973E-2,6.475171447E-2,-1.847867295E-2
1.029749216E0,-6.093380973E-2,6.475171447E-2,-1.970040426E-2
1.031985056E0,-5.604688451E-2,6.582073122E-2,-1.847867295E-2
1.034224924E0,-5.100724846E-2,6.811147183E-2,-1.725694351E-2
1.036459177E0,-4.734205827E-2,6.566801667E-2,-1.847867295E-2
1.038695322E0,-3.878994286E-2,6.673702598E-2,-1.832595654E-2
1.040930368E0,-3.268129006E-2,6.536258012E-2,-1.954768784E-2
1.043166453E0,-2.886338346E-2,6.765332818E-2,-1.710422710E-2
1.045402964E0,-2.275473066E-2,6.520986557E-2,-1.695151068E-2
1.047640085E0,-1.802052557E-2,6.139195710E-2,-1.695151068E-2
1.049875498E0,-1.175915636E-2,6.246097013E-2,-1.695151068E-2
1.052112314E0,-9.315694682E-3,6.612616032E-2,-1.191187184E-2
1.054345285E0,-6.872233935E-3,6.123924255E-2,-1.191187184E-2
1.056569040E0,-5.497787148E-3,6.841690838E-2,-1.069014147E-2
1.058820444E0,-4.428773187E-3,6.108652428E-2,-5.803219974E-3
1.061056589E0,-3.359758761E-3,5.513058975E-2,-2.138028387E-3
1.063297251E0,-2.290744567E-3,5.024366826E-2,-9.162978968E-4
1.065529551E0,-2.443460980E-3,4.535674304E-2,1.527163084E-3
1.067765879E0,-1.221730490E-3,4.169155285E-2,5.192354787E-3
1.070002390E0,-1.527163113E-4,3.436116874E-2,5.039638374E-3
1.072239816E0,9.162978968E-4,2.825251780E-2,6.261368748E-3
1.074476023E0,-2.901609987E-3,2.229658142E-2,8.704829961E-3
1.076710947E0,-3.054326167E-3,1.740965992E-2,8.704829961E-3
1.078947214E0,-6.872233935E-3,1.023199316E-2,7.330383174E-3
1.081183236E0,-7.024950348E-3,2.901609987E-3,6.108652335E-3
1.083419931E0,-8.246680722E-3,1.832595794E-3,9.773843922E-3
1.085656199E0,-9.621127509E-3,-3.054326167E-3,8.552113548E-3
1.087892832E0,-9.621127509E-3,-7.941247895E-3,8.552113548E-3
1.090130136E0,-8.552113548E-3,-1.038470957E-2,9.773843922E-3
1.092366159E0,-5.955935922E-3,-1.038470957E-2,6.108652335E-3
1.094601267E0,-9.773843922E-3,-1.282817032E-2,6.108652335E-3
1.096834421E0,-5.955935922E-3,-1.038470957E-2,4.886921961E-3
1.099058969E0,-2.443460980E-3,-1.420261711E-2,2.443460980E-3
1.101298410E0,2.596177394E-3,-1.175915636E-2,1.221730490E-3
1.103546946E0,5.039638374E-3,-1.069014147E-2,-1.221730490E-3
1.105786387E0,9.926560335E-3,-1.191187184E-2,-1.069014193E-3
1.108023508E0,1.252273750E-2,-9.621127509E-3,-7.177666761E-3
1.110256418E0,1.634064503E-2,-8.399397135E-3,-9.621127509E-3
1.112491343E0,2.244929783E-2,-6.108652335E-3,-1.328631863E-2
1.114727732E0,2.626720630E-2,-2.596177394E-3,-1.435533352E-2
1.116964060E0,3.008511290E-2,-1.527163113E-4,-1.435533352E-2
1.119200754E0,3.252857551E-2,3.359758761E-3,-1.679879427E-2
1.121436960E0,3.894266114E-2,1.175915636E-2,-1.908953860E-2
1.123673044E0,4.016438872E-2,1.542434748E-2,-2.153299935E-2
1.125898752E0,4.520402849E-2,2.015855350E-2,-2.397646010E-2
1.128134409E0,4.673119262E-2,2.855795063E-2,-2.504547499E-2
1.130369944E0,4.932736978E-2,4.062253982E-2,-2.626720630E-2
1.132606089E0,5.207626149E-2,5.161811411E-2,-2.993239649E-2
1.134842539E0,4.978551716E-2,5.772676691E-2,-3.115412779E-2
1.137079111E0,5.253441259E-2,7.223481685E-2,-3.100141138E-2
1.139315683E0,5.390885845E-2,8.063421398E-2,-3.222314268E-2
1.141551950E0,5.787948146E-2,9.025534242E-2,-3.084869497E-2
1.143789072E0,5.543602258E-2,9.392052889E-2,-3.207042441E-2
1.146025217E0,5.787948146E-2,9.269879758E-2,-2.840523422E-2
1.148260324E0,5.910121277E-2,9.636399150E-2,-2.718350291E-2
1.150497080E0,5.787948146E-2,9.269879758E-2,-2.596177347E-2
1.152732920E0,5.650503561E-2,8.903361112E-2,-2.229658142E-2
1.154969797E0,5.879577994E-2,8.048149943E-2,-1.863138936E-2
1.157205698E0,5.375614017E-2,7.574728876E-2,-1.634064503E-2
1.159442514E0,5.238169432E-2,6.979135424E-2,-1.634064503E-2
1.161680368E0,5.222897977E-2,6.246097013E-2,-1.389718428E-2
1.163916941E0,4.825835302E-2,5.161811411E-2,-1.160643995E-2
1.166151865E0,4.566217586E-2,4.566217586E-2,-1.038470957E-2
1.168390024E0,4.566217586E-2,4.199698567E-2,-1.160643995E-2
1.170637949E0,4.321871698E-2,4.199698567E-2,-1.038470957E-2
1.172874460E0,4.184427112E-2,4.077525437E-2,-7.941247895E-3
1.175110544E0,4.444044828E-2,4.688390717E-2,-1.160643995E-2
1.177344370E0,4.199698567E-2,4.810563847E-2,-1.160643995E-2
1.179581491E0,4.199698567E-2,4.444044828E-2,-6.719517522E-3
1.181815439E0,4.413501546E-2,3.344487399E-2,-5.497787148E-3
1.184043161E0,4.749477282E-2,1.771509275E-2,-5.497787148E-3
1.186289072E0,4.718934000E-2,1.832595794E-3,-5.650503561E-3
1.188525338E0,4.703662544E-2,-9.010262787E-3,-5.650503561E-3
1.190764352E0,4.917465150E-2,-2.244929783E-2,-8.093964309E-3
1.192997995E0,5.268712714E-2,-3.833179548E-2,-1.069014147E-2
1.195232615E0,5.604688451E-2,-4.917465150E-2,-9.468411095E-3
1.197464060E0,5.711590126E-2,-6.261368841E-2,-1.313360315E-2
1.199708078E0,5.558873713E-2,-7.101308554E-2,-1.435533352E-2
1.201943613E0,5.803219974E-2,-7.712173462E-2,-1.695151068E-2
1.204181345E0,5.665775016E-2,-8.200865984E-2,-2.061670274E-2
1.206415537E0,5.803219974E-2,-8.078692853E-2,-2.428189293E-2
1.208652231E0,5.818491429E-2,-7.483099401E-2,-2.550362423E-2
1.210888437E0,5.329799280E-2,-6.734789163E-2,-2.794708498E-2
1.213125254E0,5.482515693E-2,-5.894849449E-2,-3.145955876E-2
1.215359628E0,5.742133409E-2,-5.054909736E-2,-3.268129006E-2
1.217587839E0,5.894849449E-2,-3.711006418E-2,-3.634648025E-2
1.219833384E0,5.665775016E-2,-2.977968007E-2,-3.634648025E-2
1.222065561E0,5.436700583E-2,-2.367102914E-2,-3.756821156E-2
1.224292612E0,5.451972410E-2,-1.649336144E-2,-3.619376570E-2
1.226542490E0,5.345070735E-2,-7.941247895E-3,-3.619376570E-2
1.228778818E0,5.238169432E-2,-1.832595794E-3,-3.741549700E-2
1.231019357E0,5.115996301E-2,6.108652451E-4,-3.741549700E-2
1.233252634E0,5.238169432E-2,3.054326167E-3,-3.741549700E-2
1.235488474E0,5.360342562E-2,4.276056774E-3,-3.497203439E-2
1.237723825E0,5.131268129E-2,9.162978269E-3,-3.375030309E-2
1.239959910E0,5.009094998E-2,1.038470957E-2,-3.252857551E-2
1.242196299E0,5.131268129E-2,1.267545391E-2,-3.252857551E-2
1.244432810E0,4.764748737E-2,1.404990070E-2,-3.008511290E-2
1.246668955E0,4.764748737E-2,1.404990070E-2,-2.519819140E-2
1.248905771E0,4.505131021E-2,1.038470957E-2,-2.153299935E-2
1.251143076E0,4.627304152E-2,1.282817032E-2,-1.664607786E-2
1.253379160E0,4.749477282E-2,1.038470957E-2,-1.175915636E-2
1.255614206E0,4.871650413E-2,1.038470957E-2,-8.093964309E-3
1.257850290E0,4.993823543E-2,1.160643995E-2,-4.276056774E-3
1.260086558E0,5.482515693E-2,1.511891466E-2,-3.054326167E-3
1.262322947E0,5.726861581E-2,1.267545391E-2,6.108652451E-4
1.264559275E0,5.849034712E-2,1.252273750E-2,4.276056774E-3
1.266795847E0,6.215553731E-2,1.252273750E-2,6.719517522E-3
1.269033274E0,6.475171447E-2,1.725694351E-2,9.315694682E-3
1.271269480E0,6.719517708E-2,1.847867295E-2,1.053742506E-2
1.273504343E0,7.330382615E-2,1.710422710E-2,1.053742506E-2
1.275740426E0,7.956519723E-2,1.939497143E-2,1.069014147E-2
1.277975595E0,8.078692853E-2,2.061670274E-2,1.069014147E-2
1.280208994E0,8.445212245E-2,1.939497143E-2,1.069014147E-2
1.282449717E0,8.933904022E-2,1.924225502E-2,1.191187184E-2
1.284686289E0,9.300423414E-2,1.679879427E-2,1.069014147E-2
1.286924692E0,9.773843735E-2,1.053742506E-2,1.069014147E-2
1.289159617E0,1.038470939E-1,5.650503561E-3,1.206458826E-2
1.291393991E0,1.049161032E-1,1.985311974E-3,1.191187184E-2
1.293627878E0,1.096503139E-1,-6.566801574E-3,1.450804994E-2
1.295867135E0,1.108720452E-1,-1.145372353E-2,1.557706390E-2
1.298100778E0,1.107193232E-1,-1.634064503E-2,1.802052557E-2
1.300328867E0,1.117883399E-1,-2.367102914E-2,2.168571576E-2
1.302576731E0,1.117883399E-1,-2.611448988E-2,2.412917651E-2
1.304814218E0,1.104138941E-1,-2.718350291E-2,2.779436857E-2
1.307050546E0,1.090394482E-1,-3.207042441E-2,3.390302137E-2
1.309272348E0,1.064432710E-1,-3.817907721E-2,3.756821156E-2
1.311509531E0,1.014036313E-1,-4.413501546E-2,4.596760869E-2
1.313758921E0,9.621127695E-2,-5.009094998E-2,5.207626149E-2
1.315996347E0,9.117163718E-2,-5.482515693E-2,6.062837690E-2
1.318233407E0,8.124507964E-2,-5.589416996E-2,6.291911751E-2
1.320466379E0,7.742717117E-2,-6.551529467E-2,6.902777404E-2
1.322704172E0,6.856962293E-2,-7.009678334E-2,7.254024595E-2
1.324940317E0,5.864306539E-2,-7.238753140E-2,7.620543987E-2
1.327175303E0,5.131268129E-2,-7.345654815E-2,7.971791178E-2
1.329411631E0,4.138612002E-2,-7.330382615E-2,8.093964309E-2
1.331647837E0,3.405573592E-2,-7.192938030E-2,8.323039114E-2
1.333884287E0,2.550362423E-2,-6.933320314E-2,8.445212245E-2
1.336120493E0,1.450804994E-2,-6.429356337E-2,8.552113175E-2
1.338356943E0,4.734205548E-3,-6.154467165E-2,8.674286306E-2
1.340594797E0,2.290744567E-3,-5.665775016E-2,8.552113175E-2
1.342830759E0,-6.261368748E-3,-5.283984542E-2,8.429940045E-2
1.345065744E0,-1.237002108E-2,-5.039638281E-2,8.414668590E-2
1.347301890E0,-2.076941915E-2,-4.535674304E-2,8.536841720E-2
1.349537974E0,-2.443460934E-2,-4.398229718E-2,8.170322329E-2
1.351774668E0,-2.916881628E-2,-3.420845419E-2,7.925976813E-2
1.354010935E0,-3.527746722E-2,-3.054326214E-2,7.681630552E-2
1.356247568E0,-3.634648025E-2,-2.321287990E-2,7.315111160E-2
1.358484873E0,-3.985895589E-2,-1.954768784E-2,6.811147183E-2
1.360720896E0,-4.352414981E-2,-2.061670274E-2,6.566801667E-2
1.362956003E0,-4.352414981E-2,-1.939497143E-2,6.078109145E-2
1.365191903E0,-4.214970022E-2,-9.773843922E-3,5.833763257E-2
1.367427683E0,-4.199698567E-2,-8.552113548E-3,5.222897977E-2
1.369662119E0,-4.566217586E-2,-7.177666761E-3,5.100724846E-2
1.371889658E0,-4.444044828E-2,-7.177666761E-3,4.978551716E-2
1.374138132E0,-4.199698567E-2,-9.773843922E-3,4.978551716E-2
1.376375193E0,-3.955352306E-2,-1.099557430E-2,4.734205827E-2
1.378613962E0,-3.955352306E-2,-1.221730467E-2,4.367686436E-2
1.380846445E0,-3.711006418E-2,-1.466076635E-2,4.489859566E-2
1.383082711E0,-3.359758854E-2,-1.832595654E-2,4.382958263E-2
1.385315866E0,-2.871066704E-2,-2.336559631E-2,4.382958263E-2
1.387540476E0,-2.504547499E-2,-2.580905706E-2,4.016438872E-2
1.389779673E0,-2.260201424E-2,-2.580905706E-2,4.016438872E-2
1.392028086E0,-2.015855350E-2,-2.474004216E-2,4.138612002E-2
1.394268625E0,-1.771509275E-2,-2.474004216E-2,4.016438872E-2
1.396504648E0,-1.389718428E-2,-2.244929783E-2,3.772092983E-2
1.398736826E0,-1.374446787E-2,-1.878410578E-2,3.909537569E-2
1.400972788E0,-1.007927675E-2,-1.404990070E-2,3.909537569E-2
1.403208871E0,-1.007927675E-2,-1.404990070E-2,4.031710699E-2
1.405442514E0,-9.926560335E-3,-9.162978269E-3,4.153883830E-2
1.407669870E0,-5.039638374E-3,-7.941247895E-3,4.276056588E-2
1.409918466E0,-1.221730490E-3,-5.650503561E-3,4.535674304E-2
1.412155832E0,-2.443460980E-3,-4.428773187E-3,4.535674304E-2
1.414395029E0,-2.443460980E-3,4.581489484E-4,4.780020565E-2
1.416626963E0,0.000000000E0,1.527163084E-3,4.902193695E-2
1.418863230E0,1.374446787E-3,8.857546374E-3,5.146539584E-2
1.421099253E0,3.817907767E-3,8.857546374E-3,5.268712714E-2
1.423335947E0,6.566801574E-3,1.603521220E-2,5.161811411E-2
1.425572214E0,9.010262787E-3,1.847867295E-2,5.406157300E-2
1.427808786E0,1.511891466E-2,1.710422710E-2,5.161811411E-2
1.430042917E0,2.138028294E-2,1.817324013E-2,5.177082866E-2
1.432267221E0,2.626720630E-2,1.802052557E-2,5.177082866E-2
1.434505320E0,3.115412779E-2,1.924225502E-2,4.810563847E-2
1.436753428E0,3.863722831E-2,1.786780916E-2,4.825835302E-2
1.438992624E0,4.352414981E-2,1.649336144E-2,4.825835302E-2
1.441229013E0,4.718934000E-2,1.771509275E-2,4.581489414E-2
1.443462412E0,5.100724846E-2,2.367102914E-2,4.703662544E-2
1.445699228E0,5.726861581E-2,2.474004216E-2,4.474587739E-2
1.447936533E0,5.971207842E-2,2.596177347E-2,4.718934000E-2
1.450172373E0,6.337726861E-2,2.825251780E-2,4.596760869E-2
1.452407663E0,6.719517708E-2,3.069597855E-2,4.734205827E-2
1.454643686E0,6.841690838E-2,3.298672289E-2,4.734205827E-2
1.456879892E0,6.841690838E-2,3.420845419E-2,4.734205827E-2
1.459116648E0,6.841690838E-2,3.420845419E-2,4.978551716E-2
1.461352793E0,6.719517708E-2,3.176499158E-2,4.978551716E-2
1.463589609E0,6.475171447E-2,3.436116874E-2,4.978551716E-2
1.465826609E0,6.352998316E-2,3.313944116E-2,4.841107130E-2
1.468062754E0,5.971207842E-2,2.840523422E-2,4.474587739E-2
1.470297983E0,5.711590126E-2,2.351831272E-2,4.474587739E-2
1.472533944E0,4.978551716E-2,2.367102914E-2,4.337143153E-2
1.474767831E0,4.734205827E-2,2.122756653E-2,4.337143153E-2
1.476996530E0,4.245513305E-2,2.260201424E-2,4.214970022E-2
1.479244150E0,3.619376570E-2,2.031126991E-2,4.321871698E-2
1.481479746E0,3.252857551E-2,1.802052557E-2,4.077525437E-2
1.483719920E0,2.626720630E-2,1.328631863E-2,3.955352306E-2
1.485952891E0,2.000583708E-2,1.328631863E-2,3.817907721E-2
1.488188486E0,1.771509275E-2,1.588249579E-2,3.329215571E-2
1.490424447E0,1.160643995E-2,1.343903504E-2,2.840523422E-2
1.492660592E0,9.010262787E-3,1.114829071E-2,2.596177347E-2
1.494897104E0,1.679879380E-3,1.130100712E-2,2.214386500E-2
1.497133249E0,-6.108652451E-4,1.740965992E-2,1.603521220E-2
1.499370127E0,-4.581489484E-4,2.229658142E-2,8.704829961E-3
1.501607492E0,-7.788531948E-3,2.474004216E-2,1.527163113E-4
1.503843699E0,-1.252273750E-2,2.733621933E-2,-3.665191587E-3
1.506078379E0,-1.481348183E-2,3.466660157E-2,-8.552113548E-3
1.508314951E0,-1.847867295E-2,3.955352306E-2,-1.466076635E-2
1.510551156E0,-2.199114859E-2,4.444044828E-2,-1.832595654E-2
1.512787607E0,-2.183843218E-2,4.810563847E-2,-2.199114859E-2
1.515023630E0,-2.428189293E-2,5.177082866E-2,-2.443460934E-2
1.517260446E0,-2.672535367E-2,5.436700583E-2,-2.443460934E-2
1.519497751E0,-2.657263726E-2,5.681046844E-2,-2.809980139E-2
1.521733652E0,-2.901609987E-2,5.681046844E-2,-2.565634064E-2
1.523968943E0,-3.039054573E-2,5.558873713E-2,-2.565634064E-2
1.526205027E0,-3.039054573E-2,5.192354694E-2,-2.809980139E-2
1.528441416E0,-3.054326214E-2,4.825835302E-2,-2.565634064E-2
1.530677927E0,-3.191770986E-2,4.230241850E-2,-2.199114859E-2
1.532914011E0,-3.191770986E-2,3.985895589E-2,-2.336559631E-2
1.535150583E0,-3.191770986E-2,3.741549700E-2,-1.970040426E-2
1.537387888E0,-3.084869497E-2,3.497203439E-2,-1.847867295E-2
1.539624033E0,-3.207042441E-2,3.130684420E-2,-1.847867295E-2
1.541859385E0,-3.344487399E-2,3.023782931E-2,-1.359175146E-2
1.544095408E0,-3.344487399E-2,3.130684420E-2,-1.114829071E-2
1.546331553E0,-3.100141138E-2,3.130684420E-2,-7.330383174E-3
1.548568247E0,-3.100141138E-2,2.886338346E-2,-6.261368748E-3
1.550804148E0,-2.871066704E-2,2.519819140E-2,-3.665191587E-3
1.553040048E0,-3.115412779E-2,2.519819140E-2,-1.527163113E-4
1.555271920E0,-3.115412779E-2,2.641992271E-2,3.512475174E-3
1.557504648E0,-2.993239649E-2,2.641992271E-2,4.886921961E-3
1.559749521E0,-2.993239649E-2,2.397646010E-2,7.177666761E-3
1.561983836E0,-2.993239649E-2,2.397646010E-2,1.221730467E-2
1.564209726E0,-3.130684420E-2,1.924225502E-2,1.206458826E-2
1.566444101E0,-2.886338346E-2,1.908953860E-2,1.084285788E-2
1.568680124E0,-3.268129006E-2,1.679879427E-2,1.450804994E-2
1.570919687E0,-3.130684420E-2,1.924225502E-2,1.450804994E-2
1.573157297E0,-3.512475267E-2,1.679879427E-2,1.450804994E-2
1.575394480E0,-3.375030309E-2,1.802052557E-2,1.328631863E-2
1.577628122E0,-3.497203439E-2,1.802052557E-2,1.206458826E-2
1.579865182E0,-3.512475267E-2,1.679879427E-2,1.084285788E-2
1.582104318E0,-3.756821156E-2,1.450804994E-2,9.621127509E-3
1.584338205E0,-3.878994286E-2,1.695151068E-2,7.177666761E-3
1.586573801E0,-4.001167417E-2,1.572977938E-2,7.177666761E-3
1.588809457E0,-4.489859566E-2,1.466076635E-2,5.803219974E-3
1.591047739E0,-4.505131021E-2,9.773843922E-3,9.468411095E-3
1.593284860E0,-4.993823543E-2,8.704829961E-3,7.024950348E-3
1.595522593E0,-4.993823543E-2,6.261368748E-3,3.359758761E-3
1.597754403E0,-4.764748737E-2,3.817907767E-3,5.803219974E-3
1.599990426E0,-5.268712714E-2,-4.581489135E-3,3.207042580E-3
1.602226083E0,-5.406157300E-2,-1.069014147E-2,1.985311974E-3
1.604464182E0,-5.406157300E-2,-1.557706390E-2,7.635815418E-4
1.606700998E0,-5.421429127E-2,-1.802052557E-2,7.635815418E-4
1.608938852E0,-5.787948146E-2,-2.031126991E-2,-1.679879380E-3
1.611178110E0,-5.543602258E-2,-2.397646010E-2,-4.581489484E-4
1.613426584E0,-5.681046844E-2,-2.764165215E-2,-1.679879380E-3
1.615645456E0,-5.681046844E-2,-2.641992271E-2,-4.123340361E-3
1.617882516E0,-5.665775016E-2,-2.275473066E-2,-6.566801574E-3
1.620119211E0,-5.772676691E-2,-1.664607786E-2,-6.566801574E-3
1.622357187E0,-5.528330430E-2,-1.313360315E-2,-9.010262787E-3
1.624590708E0,-5.513058975E-2,-7.024950348E-3,-9.010262787E-3
1.626827402E0,-5.253441259E-2,-3.359758761E-3,-1.145372353E-2
1.629063731E0,-4.993823543E-2,2.596177394E-3,-1.374446787E-2
1.631299936E0,-4.612032697E-2,9.773843922E-3,-1.252273750E-2
1.633532297E0,-4.474587739E-2,1.588249579E-2,-1.130100712E-2
1.635773568E0,-4.108068720E-2,1.817324013E-2,-9.926560335E-3
1.638008127E0,-3.481931984E-2,2.168571576E-2,-9.926560335E-3
1.640248422E0,-3.100141138E-2,2.412917651E-2,-1.114829071E-2
1.642485605E0,-2.855795063E-2,2.641992271E-2,-8.552113548E-3
1.644718759E0,-2.351831272E-2,3.115412779E-2,-7.330383174E-3
1.646955393E0,-2.107485011E-2,3.237585723E-2,-6.108652335E-3
1.649190866E0,-1.740965992E-2,3.588833287E-2,-3.665191587E-3
1.651426584E0,-1.603521220E-2,3.833179548E-2,-2.290744567E-3
1.653661753E0,-1.237002108E-2,3.711006418E-2,-1.069014193E-3
1.655899606E0,-1.130100712E-2,3.451388702E-2,2.596177394E-3
1.658134653E0,-7.635815535E-3,3.451388702E-2,3.817907767E-3
1.660371530E0,-1.007927675E-2,3.207042441E-2,7.483099122E-3
1.662609934E0,-8.857546374E-3,3.329215571E-2,9.926560335E-3
1.664846018E0,-7.635815535E-3,3.451388702E-2,9.926560335E-3
1.667081797E0,-8.857546374E-3,3.207042441E-2,1.114829071E-2
1.669316537E0,-1.023199316E-2,2.977968007E-2,1.359175146E-2
1.671552377E0,-1.389718428E-2,3.100141138E-2,1.481348183E-2
1.673789438E0,-1.527163107E-2,2.611448988E-2,1.588249579E-2
1.676026194E0,-1.893682219E-2,2.260201424E-2,1.588249579E-2
1.678261850E0,-2.397646010E-2,2.275473066E-2,1.954768784E-2
1.680498423E0,-2.153299935E-2,1.893682219E-2,1.832595654E-2
1.682734141E0,-2.886338346E-2,1.908953860E-2,2.076941915E-2
1.684970774E0,-3.023782931E-2,1.679879427E-2,2.183843218E-2
1.687207346E0,-3.023782931E-2,1.435533352E-2,2.061670274E-2
1.689444162E0,-3.390302137E-2,1.435533352E-2,2.183843218E-2
1.691679880E0,-4.016438872E-2,1.450804994E-2,1.939497143E-2
1.693915964E0,-4.382958263E-2,1.343903504E-2,2.061670274E-2
1.696153818E0,-4.749477282E-2,1.099557430E-2,1.924225502E-2
1.698392099E0,-4.871650413E-2,9.773843922E-3,1.435533352E-2
1.700628061E0,-4.886921868E-2,3.817907767E-3,1.557706390E-2
1.702860605E0,-5.253441259E-2,6.261368748E-3,8.246680722E-3
1.705097848E0,-5.497787148E-2,2.748893574E-3,5.803219974E-3
1.707333140E0,-5.864306539E-2,1.527163084E-3,7.635815418E-4
1.709572580E0,-5.986479297E-2,1.527163084E-3,-2.901609987E-3
1.711807688E0,-6.001751125E-2,-3.359758761E-3,-7.788531948E-3
1.714042612E0,-5.864306539E-2,-2.138028387E-3,-1.145372353E-2
1.716280588E0,-6.108652428E-2,-9.162978968E-4,-1.389718428E-2
1.718519784E0,-5.864306539E-2,-9.162978968E-4,-1.634064503E-2
1.720758249E0,-5.986479297E-2,3.054326226E-4,-1.756237634E-2
1.722988107E0,-5.986479297E-2,-2.138028387E-3,-2.122756653E-2
1.725226327E0,-6.108652428E-2,-3.207042580E-3,-2.244929783E-2
1.727452646E0,-5.864306539E-2,-5.803219974E-3,-2.367102914E-2
1.729698373E0,-5.742133409E-2,-8.246680722E-3,-2.367102914E-2
1.731934519E0,-5.513058975E-2,-9.468411095E-3,-2.367102914E-2
1.734173716E0,-5.268712714E-2,-1.435533352E-2,-2.489275858E-2
1.736406992E0,-4.902193695E-2,-1.435533352E-2,-2.489275858E-2
1.738643381E0,-4.902193695E-2,-1.557706390E-2,-2.367102914E-2
1.740877695E0,-4.657847434E-2,-1.939497143E-2,-2.244929783E-2
1.743117197E0,-4.550946131E-2,-2.306016348E-2,-2.367102914E-2
1.745351205E0,-4.062253982E-2,-2.428189293E-2,-2.367102914E-2
1.747586679E0,-4.062253982E-2,-2.306016348E-2,-1.878410578E-2
1.749825571E0,-3.817907721E-2,-2.672535367E-2,-1.878410578E-2
1.752060984E0,-3.451388702E-2,-2.932153270E-2,-1.740965992E-2
1.754300181E0,-2.840523422E-2,-2.932153270E-2,-1.374446787E-2
1.756545542E0,-2.611448988E-2,-3.191770986E-2,-1.252273750E-2
1.758781870E0,-2.611448988E-2,-3.313944116E-2,-1.007927675E-2
1.761018015E0,-2.367102914E-2,-3.313944116E-2,-6.414085161E-3
1.763251780E0,-1.756237634E-2,-3.329215571E-2,-3.817907767E-3
1.765484995E0,-1.634064503E-2,-3.573561832E-2,-3.817907767E-3
1.767712900E0,-1.389718428E-2,-3.940080851E-2,-1.374446787E-3
1.769962168E0,-1.023199316E-2,-3.588833287E-2,-3.817907767E-3
1.772198252E0,-6.566801574E-3,-3.833179548E-2,-1.374446787E-3
1.774436288E0,-7.788531948E-3,-3.588833287E-2,-3.817907767E-3
1.776669443E0,-1.374446787E-3,-3.115412779E-2,-6.108652335E-3
1.778905955E0,-1.527163113E-4,-2.993239649E-2,-4.886921961E-3
1.781142283E0,-1.527163113E-4,-2.382374369E-2,-2.443460980E-3
1.783378428E0,0.000000000E0,-1.908953860E-2,-1.221730490E-3
1.785615183E0,-2.290744567E-3,-9.315694682E-3,0.000000000E0
1.787852548E0,-2.138028387E-3,-3.207042580E-3,2.443460980E-3
1.790088633E0,-2.138028387E-3,1.679879380E-3,2.443460980E-3
1.792323679E0,-4.428773187E-3,4.123340361E-3,2.443460980E-3
1.794559763E0,-5.497787148E-3,1.145372353E-2,2.443460980E-3
1.796796152E0,-3.054326167E-3,1.130100712E-2,3.817907767E-3
1.799032908E0,-3.207042580E-3,5.345070735E-3,2.443460980E-3
1.801268808E0,-7.635815418E-4,6.414085161E-3,1.527163113E-4
1.803505625E0,-3.207042580E-3,6.566801574E-3,0.000000000E0
1.805742868E0,-4.428773187E-3,4.123340361E-3,1.221730490E-3
1.807976816E0,-5.803219974E-3,-7.635815418E-4,1.221730490E-3
1.810205210E0,-5.803219974E-3,-4.276056774E-3,0.000000000E0
1.812449839E0,-8.399397135E-3,-6.719517522E-3,0.000000000E0
1.814686228E0,-8.552113548E-3,-1.282817032E-2,0.000000000E0
1.816925180E0,-9.926560335E-3,-1.756237634E-2,4.886921961E-3
1.819158945E0,-1.603521220E-2,-1.985312067E-2,7.177666761E-3
1.821395761E0,-1.985312067E-2,-2.351831272E-2,8.399397135E-3
1.823633066E0,-2.244929783E-2,-2.825251780E-2,1.206458826E-2
1.825869455E0,-2.489275858E-2,-2.947424725E-2,1.328631863E-2
1.828104502E0,-3.237585723E-2,-3.054326214E-2,1.557706390E-2
1.830340525E0,-4.108068720E-2,-3.527746722E-2,1.924225502E-2
1.832576548E0,-4.718934000E-2,-3.145955876E-2,2.031126991E-2
1.834813120E0,-5.207626149E-2,-2.886338346E-2,1.786780916E-2
1.837049265E0,-6.307183951E-2,-2.504547499E-2,1.664607786E-2
1.839286142E0,-7.162395120E-2,-2.122756653E-2,1.649336144E-2
1.841523447E0,-7.895433158E-2,-1.985312067E-2,1.527163107E-2
1.843759531E0,-8.888089657E-2,-2.214386500E-2,1.389718428E-2
1.845995004E0,-9.621127695E-2,-2.443460934E-2,1.267545391E-2
1.848232371E0,-1.024726480E-1,-2.672535367E-2,1.130100712E-2
1.850467051E0,-1.134682223E-1,-2.779436857E-2,5.039638374E-3
1.852703806E0,-1.233947799E-1,-3.359758854E-2,1.527163113E-4
1.854939279E0,-1.333213449E-1,-3.711006418E-2,-1.221730490E-3
1.857176462E0,-1.409571618E-1,-4.657847434E-2,-2.596177394E-3
1.859413462E0,-1.495092660E-1,-4.886921868E-2,-7.483099122E-3
1.861649668E0,-1.545489132E-1,-5.115996301E-2,-1.007927675E-2
1.863884958E0,-1.631010175E-1,-5.100724846E-2,-1.740965992E-2
1.866121103E0,-1.704314053E-1,-5.451972410E-2,-2.122756653E-2
1.868357371E0,-1.765400618E-1,-5.070181563E-2,-2.611448988E-2
1.870593699E0,-1.812742651E-1,-4.459316283E-2,-3.344487399E-2
1.872830088E0,-1.873829067E-1,-4.199698567E-2,-4.092797264E-2
1.875066904E0,-1.933388561E-1,-3.711006418E-2,-4.825835302E-2
1.877304331E0,-1.944078654E-1,-2.977968007E-2,-5.558873713E-2
1.879540537E0,-1.966986060E-1,-2.611448988E-2,-6.536258012E-2
1.881775339E0,-2.002110779E-1,-2.122756653E-2,-7.269296050E-2
1.884011361E0,-2.037235647E-1,-1.267545391E-2,-7.757988572E-2
1.886243905E0,-2.072360367E-1,-3.970623948E-3,-8.613199741E-2
1.888470102E0,-2.095267773E-1,-2.748893574E-3,-9.468411654E-2
1.890720224E0,-2.105957866E-1,6.872233935E-3,-9.957103431E-2
1.892957346E0,-2.102903575E-1,1.664607786E-2,-1.081231460E-1
1.895197458E0,-2.076941878E-1,2.260201424E-2,-1.130100712E-1
1.897428049E0,-2.037235647E-1,3.344487399E-2,-1.165225431E-1
1.899665659E0,-2.035708427E-1,4.199698567E-2,-1.214094684E-1
1.901901499E0,-2.008219510E-1,5.161811411E-2,-1.214094684E-1
1.904138498E0,-1.970040351E-1,6.001751125E-2,-1.224784851E-1
1.906374460E0,-1.919644028E-1,6.719517708E-2,-1.212567538E-1
1.908610849E0,-1.893682331E-1,7.452555746E-2,-1.198823079E-1
1.910847422E0,-1.879937798E-1,7.803803682E-2,-1.162171140E-1
1.913084726E0,-1.806633919E-1,8.277224004E-2,-1.125519201E-1
1.915317758E0,-1.756237596E-1,8.643743396E-2,-1.062905490E-1
1.917543955E0,-1.718058437E-1,9.361509979E-2,-1.001819000E-1
1.919792185E0,-1.681406647E-1,9.468411654E-2,-9.392052889E-2
1.922028269E0,-1.632537395E-1,9.575312585E-2,-8.781187981E-2
1.924267831E0,-1.583668143E-1,9.575312585E-2,-8.414668590E-2
1.926500864E0,-1.559233516E-1,9.926560521E-2,-7.666359097E-2
1.928738107E0,-1.472185254E-1,1.064432710E-1,-7.055493444E-2
1.930977243E0,-1.411098689E-1,1.075122803E-1,-6.551529467E-2
1.933210947E0,-1.324050426E-1,1.061378345E-1,-6.185010448E-2
1.935446299E0,-1.276708394E-1,1.012509167E-1,-5.940664560E-2
1.937681772E0,-1.192714423E-1,9.621127695E-2,-5.192354694E-2
1.939918711E0,-1.133155003E-1,8.506298810E-2,-4.825835302E-2
1.942155222E0,-1.110247597E-1,7.895433158E-2,-4.337143153E-2
1.944391367E0,-1.050688252E-1,6.795875728E-2,-3.604105115E-2
1.946628183E0,-1.053742543E-1,5.711590126E-2,-2.871066704E-2
1.948865427E0,-1.081231460E-1,4.734205827E-2,-2.519819140E-2
1.951101328E0,-1.044579595E-1,4.123340547E-2,-2.641992271E-2
1.953336618E0,-1.033889428E-1,3.390302137E-2,-2.764165215E-2
1.955570139E0,-1.059851199E-1,2.916881628E-2,-3.130684420E-2
1.957798777E0,-1.059851199E-1,2.550362423E-2,-3.619376570E-2
1.960045359E0,-1.108720452E-1,2.565634064E-2,-4.108068720E-2
1.962281687E0,-1.157589629E-1,2.336559631E-2,-4.856378585E-2
1.964520822E0,-1.182024255E-1,2.458732575E-2,-5.711590126E-2
1.966755625E0,-1.264491081E-1,3.436116874E-2,-6.566801667E-2
1.968991770E0,-1.287398487E-1,4.169155285E-2,-7.299839705E-2
1.971224252E0,-1.322523206E-1,5.268712714E-2,-8.155050874E-2
1.973447458E0,-1.380555481E-1,6.261368841E-2,-8.765916526E-2
1.975684458E0,-1.427897513E-1,7.360926270E-2,-9.010262042E-2
1.977928964E0,-1.487456858E-1,8.093964309E-2,-8.659014851E-2
1.980164866E0,-1.504255682E-1,7.376197726E-2,-5.222897977E-2
1.982412180E0,-1.543961912E-1,7.131851465E-2,-2.046398632E-2
1.984647288E0,-1.568396538E-1,8.231408894E-2,-9.162978968E-4
1.986884653E0,-1.601994038E-1,9.697485715E-2,5.192354787E-3
1.989117441E0,-1.634064466E-1,1.188132912E-1,4.581489484E-4
1.991350412E0,-1.627955884E-1,1.430951804E-1,-1.175915636E-2
1.993577584E0,-1.585195363E-1,1.649336219E-1,-3.481931984E-2
1.995826120E0,-1.568396538E-1,1.757764816E-1,-6.291911751E-2
1.998059458E0,-1.505782902E-1,1.768454909E-1,-9.468411654E-2
2.000290049E0,-1.466076523E-1,1.780672222E-1,-1.215621829E-1
2.002536142E0,-1.429424733E-1,1.670716405E-1,-1.485929638E-1
2.004772409E0,-1.430951804E-1,1.524108797E-1,-1.693623960E-1
2.007010507E0,-1.458440721E-1,1.343903542E-1,-1.805106848E-1
2.009243662E0,-1.463022232E-1,1.149953827E-1,-1.831068546E-1
2.011479868E0,-1.490511149E-1,1.015563458E-1,-1.745547503E-1
2.013716257E0,-1.518000066E-1,9.315694869E-2,-1.586722434E-1
2.015952585E0,-1.521054506E-1,8.109235764E-2,-1.379028261E-1
2.018188730E0,-1.527163088E-1,6.520986557E-2,-1.110247597E-1
2.020424875E0,-1.533271819E-1,4.581489414E-2,-8.185594529E-2
2.022662790E0,-1.537853181E-1,2.764165215E-2,-5.375614017E-2
2.024897715E0,-1.518000066E-1,9.468411095E-3,-3.420845419E-2
2.027134470E0,-1.499674171E-1,-1.007927675E-2,-1.954768784E-2
2.029370249E0,-1.466076523E-1,-2.229658142E-2,-7.330383174E-3
2.031606699E0,-1.420261711E-1,-4.046982154E-2,-3.665191587E-3
2.033843027E0,-1.324050426E-1,-5.039638281E-2,1.221730490E-3
2.036079721E0,-1.288925707E-1,-5.650503561E-2,0.000000000E0
2.038316660E0,-1.266018152E-1,-6.750060618E-2,-1.221730490E-3
2.040552927E0,-1.192714423E-1,-7.620543987E-2,-4.886921961E-3
2.042788034E0,-1.131627858E-1,-7.513642311E-2,-7.330383174E-3
2.045024485E0,-1.094975919E-1,-8.002334833E-2,-9.773843922E-3
2.047260691E0,-1.107193232E-1,-8.002334833E-2,-8.552113548E-3
2.049497019E0,-1.107193232E-1,-7.757988572E-2,-3.665191587E-3
2.051733103E0,-1.107193232E-1,-7.757988572E-2,1.221730490E-3
2.053966867E0,-1.119410545E-1,-6.780604273E-2,9.926560335E-3
2.056195078E0,-1.142318025E-1,-6.169738993E-2,1.970040426E-2
2.058443369E0,-1.178969890E-1,-5.558873713E-2,2.580905706E-2
2.060678415E0,-1.140790880E-1,-4.963280261E-2,3.191770986E-2
2.062917550E0,-1.065959856E-1,-3.756821156E-2,3.817907721E-2
2.065150828E0,-1.052215397E-1,-3.512475267E-2,4.428773001E-2
2.067387461E0,-9.911288321E-2,-3.527746722E-2,4.932736978E-2
2.069623789E0,-9.682214260E-2,-3.894266114E-2,5.299255997E-2
2.071860300E0,-9.071348608E-2,-4.031710699E-2,5.665775016E-2
2.074097422E0,-8.338310570E-2,-4.535674304E-2,5.910121277E-2
2.076333689E0,-7.742717117E-2,-4.902193695E-2,5.910121277E-2
2.078568796E0,-6.994406879E-2,-5.039638281E-2,5.681046844E-2
2.080804940E0,-6.261368841E-2,-4.932736978E-2,5.681046844E-2
2.083041208E0,-6.017022580E-2,-5.070181563E-2,5.436700583E-2
2.085274790E0,-5.390885845E-2,-4.948008433E-2,5.329799280E-2
2.087501963E0,-4.780020565E-2,-4.963280261E-2,5.085453019E-2
2.089750742E0,-4.276056588E-2,-4.612032697E-2,5.207626149E-2
2.091987986E0,-3.894266114E-2,-3.894266114E-2,4.856378585E-2
2.094223947E0,-3.023782931E-2,-3.665191308E-2,4.856378585E-2
2.096444406E0,-2.275473066E-2,-3.191770986E-2,4.871650413E-2
2.098680063E0,-1.771509275E-2,-2.474004216E-2,4.627304152E-2
2.100919687E0,-1.267545391E-2,-2.244929783E-2,4.642575979E-2
2.103171090E0,-5.192354787E-3,-1.771509275E-2,4.886921868E-2
2.105404428E0,2.290744567E-3,-1.298088674E-2,4.657847434E-2
2.107632395E0,1.084285788E-2,-1.069014147E-2,4.780020565E-2
2.109878427E0,1.832595654E-2,-4.886921961E-3,4.917465150E-2
2.112114511E0,2.825251780E-2,-1.527163113E-4,5.299255997E-2
2.114352487E0,3.588833287E-2,7.024950348E-3,5.299255997E-2
2.116585581E0,3.848451003E-2,1.298088674E-2,5.681046844E-2
2.118818247E0,4.825835302E-2,1.404990070E-2,5.925392732E-2
2.121041696E0,5.451972410E-2,2.000583708E-2,6.307183951E-2
2.123282969E0,6.078109145E-2,2.351831272E-2,6.673702598E-2
2.125531504E0,6.811147183E-2,2.458732575E-2,7.177666575E-2
2.127771982E0,7.299839705E-2,2.443460934E-2,7.422012836E-2
2.130007516E0,7.666359097E-2,2.550362423E-2,7.544185966E-2
2.132239634E0,8.414668590E-2,2.657263726E-2,7.925976813E-2
2.134475779E0,8.903361112E-2,2.779436857E-2,7.681630552E-2
2.136712168E0,9.529497474E-2,3.008511290E-2,7.437284291E-2
2.138944772E0,1.052215397E-1,3.466660157E-2,7.330382615E-2
2.141168161E0,1.090394482E-1,4.199698567E-2,7.086037099E-2
2.143421396E0,1.153008118E-1,4.550946131E-2,6.856962293E-2
2.145658884E0,1.252273768E-1,4.642575979E-2,6.490442902E-2
2.147899179E0,1.302670091E-1,5.115996301E-2,5.772676691E-2
2.150130136E0,1.365283877E-1,5.482515693E-2,5.406157300E-2
2.152366099E0,1.403462887E-1,5.589416996E-2,4.550946131E-2
2.154602244E0,1.440114826E-1,5.696318299E-2,3.817907721E-2
2.156839060E0,1.492038369E-1,6.658431143E-2,2.977968007E-2
2.159075144E0,1.518000066E-1,6.780604273E-2,2.000583708E-2
2.161311899E0,1.543961912E-1,7.254024595E-2,1.145372353E-2
2.163549631E0,1.571450830E-1,7.987063378E-2,4.581489484E-4
2.165785654E0,1.634064466E-1,8.704829961E-2,-5.497787148E-3
2.168020517E0,1.684460938E-1,9.178250283E-2,-9.162978269E-3
2.170256417E0,1.698205322E-1,9.651670605E-2,-1.771509275E-2
2.172492502E0,1.774563491E-1,1.036943719E-1,-2.000583708E-2
2.174729197E0,1.776090711E-1,1.098030284E-1,-2.122756653E-2
2.176965586E0,1.788308024E-1,1.122464910E-1,-2.489275858E-2
2.179203806E0,1.850921661E-1,1.145372316E-1,-2.474004216E-2
2.181445139E0,1.875356287E-1,1.168279797E-1,-2.718350291E-2
2.183675730E0,1.913535446E-1,1.217148975E-1,-2.596177347E-2
2.185910593E0,1.939497143E-1,1.240056455E-1,-2.474004216E-2
2.188145517E0,1.977676302E-1,1.336267740E-1,-2.214386500E-2
2.190382943E0,1.966986060E-1,1.421788931E-1,-2.092213556E-2
2.192619638E0,2.017382532E-1,1.481348276E-1,-1.603521220E-2
2.194855906E0,2.057088763E-1,1.614211351E-1,-1.099557430E-2
2.197092539E0,2.121229619E-1,1.782199293E-1,-7.177666761E-3
2.199329843E0,2.098322064E-1,1.916589737E-1,1.527163113E-4
2.201565928E0,2.102903575E-1,2.122756690E-1,2.748893574E-3
2.203801218E0,2.156354338E-1,2.339613885E-1,7.788531948E-3
2.206037119E0,2.134974003E-1,2.547308207E-1,1.145372353E-2
2.208273629E0,2.165517360E-1,2.837468982E-1,1.404990070E-2
2.210509958E0,2.220495194E-1,3.103195429E-1,1.664607786E-2
2.212746347E0,2.225076705E-1,3.382666409E-1,2.168571576E-2
2.214982859E0,2.218967974E-1,3.674354553E-1,2.672535367E-2
2.217219675E0,2.307543457E-1,3.891211748E-1,4.031710699E-2
2.219450632E0,2.385428846E-1,4.095851481E-1,5.268712714E-2
2.221677622E0,2.400700450E-1,4.277583957E-1,6.750060618E-2
2.223927195E0,2.487748712E-1,4.384485185E-1,7.254024595E-2
2.226164316E0,2.577851415E-1,4.589125216E-1,8.002334833E-2
2.228403757E0,2.680171132E-1,4.757113159E-1,8.261952549E-2
2.230636545E0,2.805398703E-1,4.876231849E-1,8.399397135E-2
2.232873300E0,2.929098904E-1,4.922046661E-1,7.925976813E-2
2.235110605E0,3.065016270E-1,4.906775057E-1,7.437284291E-2
2.237346628E0,3.236058652E-1,4.830417037E-1,6.719517708E-2
2.239581492E0,3.384193480E-1,4.816672504E-1,6.123924255E-2
2.241817759E0,3.533855379E-1,4.850270152E-1,5.283984542E-2
2.244053904E0,3.681990206E-1,4.834998548E-1,4.550946131E-2
2.246290842E0,3.816380501E-1,4.831944108E-1,4.077525437E-2
2.248527109E0,3.950771093E-1,4.732678533E-1,3.955352306E-2
2.250763681E0,4.060726762E-1,4.694499373E-1,3.848451003E-2
2.253000681E0,4.170682430E-1,4.654793143E-1,3.848451003E-2
2.255234690E0,4.268420935E-1,4.628831446E-1,4.108068720E-2
2.257463816E0,4.378376603E-1,4.602869749E-1,4.612032697E-2
2.259708262E0,4.439463317E-1,4.601342380E-1,5.222897977E-2
2.261941111E0,4.514294267E-1,4.648684561E-1,5.726861581E-2
2.264169260E0,4.575380683E-1,4.696026444E-1,6.704246253E-2
2.266417246E0,4.639521539E-1,4.792237878E-1,7.452555746E-2
2.268654062E0,4.688390791E-1,4.876231849E-1,8.429940045E-2
2.270894785E0,4.703662395E-1,4.996877611E-1,9.056077152E-2
2.273127146E0,4.717406929E-1,5.117523670E-1,9.911288321E-2
2.275359323E0,4.744895697E-1,5.250386596E-1,1.041525230E-1
2.277586863E0,4.734205604E-1,5.396994352E-1,1.090394482E-1
2.279834848E0,4.712825418E-1,5.529857874E-1,1.153008118E-1
2.282071054E0,4.726569951E-1,5.652030706E-1,1.201877370E-1
2.284310495E0,4.644103050E-1,5.810855627E-1,1.201877370E-1
2.286544138E0,4.634940028E-1,5.968153477E-1,1.214094684E-1
2.288781504E0,4.587597847E-1,6.090326309E-1,1.264491081E-1
2.291017283E0,4.466952085E-1,6.238461137E-1,1.385136992E-1
2.293252573E0,4.311181605E-1,6.520986557E-1,1.605048478E-1
2.295488473E0,4.094324410E-1,6.817256212E-1,1.849394590E-1
2.297725106E0,3.926336467E-1,7.147123218E-1,2.069306076E-1
2.299961679E0,3.758348525E-1,7.405213714E-1,2.277000248E-1
2.302198069E0,3.613267839E-1,7.602217793E-1,2.448042482E-1
2.304434580E0,3.518583775E-1,7.822129726E-1,2.557998300E-1
2.306668832E0,3.472768962E-1,8.042041063E-1,2.608394623E-1
2.308895639E0,3.440698385E-1,8.249735236E-1,2.620611787E-1
2.311142710E0,3.419318199E-1,8.382598162E-1,2.559525371E-1
2.313378855E0,3.422372639E-1,8.504771590E-1,2.438879460E-1
2.315618417E0,3.426954150E-1,8.723155856E-1,2.304489166E-1
2.317851816E0,3.422372639E-1,9.111055136E-1,2.293798923E-1
2.320088144E0,3.367394805E-1,9.414960742E-1,2.393064648E-1
2.322324655E0,3.283400834E-1,9.575312734E-1,2.490803003E-1
2.324562082E0,3.187189400E-1,9.697485566E-1,2.527455091E-1
2.326798349E0,3.077233732E-1,9.724974632E-1,2.501493096E-1
2.329033457E0,3.003929853E-1,9.726501703E-1,2.390010208E-1
2.331269480E0,2.941316068E-1,9.618073106E-1,2.243402600E-1
2.333505564E0,2.877175212E-1,9.425650835E-1,2.058615834E-1
2.335742380E0,2.897028327E-1,9.133962393E-1,1.837177277E-1
2.337975717E0,2.929098904E-1,8.793405294E-1,1.566869318E-1
2.340204172E0,2.997821271E-1,8.428413272E-1,1.284344196E-1
2.342452585E0,3.089450896E-1,8.000807762E-1,1.062905490E-1
2.344687814E0,3.217732608E-1,7.634288669E-1,8.552113175E-2
2.346920847E0,3.272710443E-1,7.232644558E-1,6.459899992E-2
2.349147593E0,3.364340365E-1,6.806566119E-1,4.978551716E-2
2.351395029E0,3.379611969E-1,6.345362663E-1,3.497203439E-2
2.353629587E0,3.384193480E-1,5.920811296E-1,2.489275858E-2
2.355872079E0,3.353650272E-1,5.545129180E-1,1.496619824E-2
2.358102548E0,3.346014321E-1,5.181664228E-1,8.704829961E-3
2.360332956E0,3.291036487E-1,4.903720617E-1,2.443460980E-3
2.362578806E0,3.262020350E-1,4.673119187E-1,-1.374446787E-3
2.364814280E0,3.222314119E-1,4.540255964E-1,-1.527163113E-4
2.367052927E0,3.187189400E-1,4.589125216E-1,9.162978968E-4
2.369286326E0,3.139847219E-1,4.735732675E-1,8.399397135E-3
2.371522837E0,3.118467033E-1,4.918992519E-1,2.061670274E-2
2.373758982E0,3.058907688E-1,5.090034604E-1,3.649919853E-2
2.375995798E0,2.997821271E-1,5.187773108E-1,5.986479297E-2
2.378232920E0,2.869539559E-1,5.007568002E-1,8.292495459E-2
2.380469187E0,2.727513313E-1,4.720461071E-1,1.046106741E-1
2.382704111E0,2.507601976E-1,4.335615933E-1,1.299615800E-1
2.384937693E0,2.277000248E-1,3.952298164E-1,1.516472995E-1
2.387164682E0,2.021963894E-1,3.593414724E-1,1.696678251E-1
2.389413095E0,1.695151031E-1,3.320052624E-1,1.864666194E-1
2.391649302E0,1.430951804E-1,3.094032407E-1,2.032654136E-1
2.393888925E0,1.119410545E-1,2.918408811E-1,2.176207453E-1
2.396123361E0,7.437284291E-2,2.671008408E-1,2.293798923E-1
2.398359629E0,3.726277873E-2,2.641992271E-1,2.437352389E-1
2.400594736E0,3.207042580E-3,2.854267955E-1,2.557998300E-1
2.402830759E0,-3.940080851E-2,3.142901659E-1,2.664899528E-1
2.405066842E0,-8.200865984E-2,3.368921876E-1,2.700024247E-1
2.407303720E0,-1.311833113E-1,3.426954150E-1,2.683225572E-1
2.409539988E0,-1.829541475E-1,3.376557529E-1,2.629774809E-1
2.411776438E0,-2.348776907E-1,3.252857327E-1,2.551889420E-1
2.414013925E0,-2.843577862E-1,3.080287874E-1,2.448042482E-1
2.416249888E0,-3.326161206E-1,2.919935882E-1,2.357939780E-1
2.418484873E0,-3.634648323E-1,2.283108830E-1,2.231185287E-1
2.420721140E0,-3.416263759E-1,3.252857551E-2,2.298380435E-1
2.422957467E0,-2.422080636E-1,-3.371976018E-1,2.707660198E-1
2.425193551E0,-8.842274547E-2,-7.964155674E-1,3.472768962E-1
2.427428842E0,6.108652428E-2,-1.184162259E0,3.911064863E-1
2.429670359E0,1.663080603E-1,-1.408197165E0,3.616322279E-1
2.431904001E0,2.225076705E-1,-1.511280656E0,2.956587672E-1
2.434140634E0,2.443460971E-1,-1.550528765E0,2.258674204E-1
2.436374277E0,2.400700450E-1,-1.541976571E0,1.635591686E-1
2.438611338E0,2.241875380E-1,-1.494329095E0,1.049161032E-1
2.440847849E0,1.895209402E-1,-1.402546644E0,4.612032697E-2
2.443084177E0,1.469130963E-1,-1.276708364E0,-6.261368748E-3
2.445317392E0,1.009454802E-1,-1.127810001E0,-5.375614017E-2
2.447545359E0,5.635231733E-2,-9.740246534E-1,-8.903361112E-2
2.449794504E0,1.145372353E-2,-8.310821652E-1,-1.169806942E-1
2.452030771E0,-2.290744707E-2,-7.090618610E-1,-1.351539344E-1
2.454265024E0,-5.283984542E-2,-6.065891981E-1,-1.496619880E-1
2.456487742E0,-8.277224004E-2,-5.100724697E-1,-1.580613852E-1
2.458737864E0,-1.153008118E-1,-4.147774875E-1,-1.653917581E-1
2.460974375E0,-1.597412676E-1,-3.022255898E-1,-1.676825136E-1
2.463214426E0,-2.153300047E-1,-1.907426715E-1,-1.713477075E-1
2.465444467E0,-2.835941911E-1,-1.020144969E-1,-1.777617931E-1
2.467672678E0,-3.474296033E-1,-3.649919853E-2,-1.878410578E-1
2.469920908E0,-4.192062616E-1,1.374446787E-3,-2.066251636E-1
2.472153452E0,-4.975497425E-1,1.985312067E-2,-2.304489166E-1
2.474383493E0,-5.787948370E-1,8.093964309E-3,-2.641992271E-1
2.476625925E0,-6.704245806E-1,-3.619376570E-2,-3.031418920E-1
2.478864878E0,-7.680103183E-1,-1.217148975E-1,-3.397938013E-1
2.481103830E0,-8.898779750E-1,-2.490803003E-1,-3.659082949E-1
2.483338510E0,-1.020755768E0,-4.019493461E-1,-3.895792961E-1
2.485575205E0,-1.160796642E0,-5.763513446E-1,-4.111123085E-1
2.487811228E0,-1.307098866E0,-7.518224120E-1,-4.399756789E-1
2.490046091E0,-1.445765376E0,-9.239336848E-1,-4.723515511E-1
2.492282357E0,-1.580461144E0,-1.082758665E0,-5.035057068E-1
2.494518503E0,-1.705077648E0,-1.229519010E0,-5.322163701E-1
2.496755381E0,-1.823127270E0,-1.354593635E0,-5.667302608E-1
2.498991404E0,-1.927127123E0,-1.449735999E0,-5.972734690E-1
2.501228037E0,-2.015549898E0,-1.512196898E0,-6.276640296E-1
2.503465341E0,-2.083661318E0,-1.542434692E0,-6.553056836E-1
2.505701670E0,-2.135126829E0,-1.541518450E0,-6.840163469E-1
2.507936716E0,-2.168877125E0,-1.512960553E0,-7.110471725E-1
2.510172556E0,-2.182468891E0,-1.461647868E0,-7.391469479E-1
2.512408822E0,-2.185828447E0,-1.398423314E0,-7.608326674E-1
2.514645456E0,-2.177276373E0,-1.336725831E0,-7.629706860E-1
2.516881906E0,-2.162615776E0,-1.276402950E0,-7.504479289E-1
2.519118723E0,-2.139250040E0,-1.218523502E0,-7.402159572E-1
2.521355966E0,-2.110997677E0,-1.153619051E0,-7.322747111E-1
2.523591745E0,-2.073887587E0,-1.081536889E0,-7.218900323E-1
2.525826792E0,-2.030363321E0,-9.998337030E-1,-7.078400850E-1
2.528062876E0,-1.985617518E0,-9.060658813E-1,-6.763805151E-1
2.530299265E0,-1.933846593E0,-8.232936263E-1,-6.340781450E-1
2.532535837E0,-1.873523712E0,-7.504479289E-1,-5.855143666E-1
2.534771982E0,-1.813200712E0,-6.692028642E-1,-5.283984542E-1
2.537008737E0,-1.744325757E0,-5.916230083E-1,-4.747950137E-1
2.539245859E0,-1.674381614E0,-5.250386596E-1,-4.176791012E-1
2.541482187E0,-1.607491851E0,-4.851797223E-1,-3.497203588E-1
2.543717234E0,-1.536326051E0,-4.647157490E-1,-2.718350291E-1
2.545953379E0,-1.457829952E0,-4.552473128E-1,-1.831068546E-1
2.548189646E0,-1.377043009E0,-4.459316432E-1,-8.933904022E-2
2.550423654E0,-1.289842010E0,-4.222606122E-1,8.093964309E-3
2.552648447E0,-1.204779029E0,-3.825543523E-1,1.105666086E-1
2.554884470E0,-1.123228431E0,-3.295617998E-1,2.167044431E-1
2.557136240E0,-1.049924612E0,-2.606867552E-1,3.203988075E-1
2.559375131E0,-9.802860022E-1,-1.904372424E-1,4.253149331E-1
2.561611277E0,-9.217956662E-1,-1.237002090E-1,5.276348591E-1
2.563843760E0,-8.743008971E-1,-6.154467165E-2,6.238461137E-1
2.566080027E0,-8.342891932E-1,-4.581489484E-4,7.087563872E-1
2.568316599E0,-8.104654551E-1,4.642575979E-2,7.826710939E-1
2.570552683E0,-7.939720750E-1,8.613199741E-2,8.367326856E-1
2.572789255E0,-7.849618196E-1,1.211040318E-1,8.810204268E-1
2.575026621E0,-7.796167731E-1,1.550070494E-1,9.007207751E-1
2.577262888E0,-7.811439037E-1,1.963931769E-1,9.008735418E-1
2.579497751E0,-7.861835957E-1,2.498438805E-1,8.827002645E-1
2.581733835E0,-7.895433307E-1,3.118467033E-1,8.449793458E-1
2.583970103E0,-7.875580192E-1,3.918700516E-1,7.951938510E-1
2.586206797E0,-7.840455174E-1,4.804455042E-1,7.319692969E-1
2.588443125E0,-7.765624523E-1,5.833762884E-1,6.601926088E-1
2.590679758E0,-7.651087046E-1,6.936374903E-1,5.800165534E-1
2.592914377E0,-7.535023093E-1,8.147414923E-1,4.937318265E-1
2.595138620E0,-7.354817390E-1,9.395107627E-1,4.001167417E-1
2.597373605E0,-7.116580009E-1,1.053131700E0,3.090978265E-1
2.599612986E0,-6.919575930E-1,1.144914150E0,2.116648108E-1
2.601863657E0,-6.734789610E-1,1.231962442E0,1.131627858E-1
2.604100046E0,-6.614143252E-1,1.311833143E0,2.183843218E-2
2.606336068E0,-6.519459486E-1,1.383304358E0,-6.719517708E-2
2.608569956E0,-6.427829266E-1,1.440114856E0,-1.537853181E-1
2.610807138E0,-6.401867867E-1,1.483791709E0,-2.257147133E-1
2.613043467E0,-6.391177773E-1,1.512960553E0,-2.892446816E-1
2.615275522E0,-6.411030889E-1,1.519069195E0,-3.431535661E-1
2.617502634E0,-6.374378800E-1,1.497077942E0,-3.946189582E-1
2.619747751E0,-6.380487680E-1,1.454622865E0,-4.338670373E-1
2.621972910E0,-6.404922009E-1,1.387885809E0,-4.683809280E-1
2.624215159E0,-6.495024562E-1,1.297172308E0,-5.007568002E-1
2.626460520E0,-6.650795341E-1,1.185842156E0,-5.258022547E-1
2.628700692E0,-6.921103001E-1,1.061378360E0,-5.522221923E-1
2.630936715E0,-7.254024744E-1,9.285151958E-1,-5.676465034E-1
2.633168894E0,-7.687739134E-1,7.874053121E-1,-5.784893632E-1
2.635401987E0,-8.196284175E-1,6.450737119E-1,-5.842925906E-1
2.637628061E0,-8.779660463E-1,5.054910183E-1,-5.792529583E-1
2.639869821E0,-9.411906004E-1,3.611740768E-1,-5.729916096E-1
2.642102243E0,-1.010982037E0,2.058615834E-1,-5.583308339E-1
2.644353525E0,-1.082147837E0,4.230241850E-2,-5.314527750E-1
2.646586191E0,-1.159574986E0,-1.175915599E-1,-5.021312237E-1
2.648815195E0,-1.237460256E0,-2.532036304E-1,-4.886921942E-1
2.651059336E0,-1.323286891E0,-3.584251702E-1,-4.886921942E-1
2.653295420E0,-1.414611220E0,-4.306600094E-1,-4.970915914E-1
2.655534616E0,-1.506393671E0,-4.700607955E-1,-5.077817440E-1
2.657768015E0,-1.610088110E0,-4.838052690E-1,-5.148066878E-1
2.660004343E0,-1.715462327E0,-4.622722864E-1,-5.169447064E-1
2.662240976E0,-1.840078831E0,-4.161519408E-1,-5.264131427E-1
2.664478586E0,-1.970956683E0,-3.796527386E-1,-5.346598029E-1
2.666714609E0,-2.108706713E0,-3.746131063E-1,-5.505422950E-1
2.668949656E0,-2.247220516E0,-4.167627990E-1,-5.751296282E-1
2.671181833E0,-2.371684313E0,-4.871650338E-1,-6.033821702E-1
2.673407358E0,-2.482250929E0,-5.528330207E-1,-6.363688707E-1
2.675658396E0,-2.587472439E0,-5.896376967E-1,-6.692028642E-1
2.677894785E0,-2.675284386E0,-6.183483601E-1,-6.969972253E-1
2.680134958E0,-2.756834745E0,-6.409503818E-1,-7.174612284E-1
2.682368723E0,-2.830749512E0,-6.479753256E-1,-7.217372656E-1
2.684604929E0,-2.896723032E0,-6.126978397E-1,-7.111998796E-1
2.686839792E0,-2.954602480E0,-5.461135507E-1,-6.856962442E-1
2.689075876E0,-3.004846096E0,-4.613559842E-1,-6.502660513E-1
2.691312144E0,-3.056922436E0,-3.451388776E-1,-6.099489331E-1
2.693548838E0,-3.099683046E0,-1.925752759E-1,-5.630650520E-1
2.695785105E0,-3.147635937E0,-5.574145541E-2,-5.250386596E-1
2.698018503E0,-3.192229033E0,6.169738993E-2,-4.992296100E-1
2.700247019E0,-3.238654852E0,1.463022232E-1,-4.882340431E-1
2.702494822E0,-3.289051294E0,2.079996169E-1,-4.958698750E-1
2.704730234E0,-3.339905739E0,2.405281961E-1,-5.254968405E-1
2.706969247E0,-3.383429766E0,2.571742535E-1,-5.722280145E-1
2.709202646E0,-3.423747063E0,2.554943860E-1,-6.374378800E-1
2.711439158E0,-3.449250698E0,2.475531399E-1,-7.111998796E-1
2.713675303E0,-3.466202021E0,2.370157093E-1,-7.896960378E-1
2.715912180E0,-3.468340158E0,2.237294018E-1,-8.753699064E-1
2.718147532E0,-3.453221321E0,2.087631971E-1,-9.598219991E-1
2.720376963E0,-3.430771828E0,1.974621862E-1,-1.039081812E0
2.722620554E0,-3.390760183E0,2.028072625E-1,-1.108567715E0
2.724856515E0,-3.333186150E0,2.283108830E-1,-1.165378213E0
2.727094797E0,-3.269350767E0,2.707660198E-1,-1.207527876E0
2.729329294E0,-3.187647581E0,3.396410644E-1,-1.237154841E0
2.731565622E0,-3.100904703E0,4.204280078E-1,-1.250746608E0
2.733802316E0,-3.006831408E0,5.059491396E-1,-1.255786180E0
2.736039804E0,-2.910314798E0,5.890268087E-1,-1.258229733E0
2.738275644E0,-2.822502851E0,6.698137522E-1,-1.255938888E0
2.740510996E0,-2.734996319E0,7.422012687E-1,-1.253648162E0
2.742747019E0,-2.659554482E0,8.171849847E-1,-1.250288486E0
2.744983408E0,-2.596635342E0,8.827002645E-1,-1.253190041E0
2.747219980E0,-2.548835278E0,9.363036752E-1,-1.253800869E0
2.749456308E0,-2.514474154E0,9.854783416E-1,-1.257007957E0
2.751692819E0,-2.490039349E0,1.037096500E0,-1.266323686E0
2.753929880E0,-2.474462509E0,1.073137522E0,-1.277013779E0
2.756165964E0,-2.474767923E0,1.112080216E0,-1.289078355E0
2.758401255E0,-2.490039349E0,1.145066857E0,-1.303891897E0
2.760637156E0,-2.513863087E0,1.179580808E0,-1.318552613E0
2.762873484E0,-2.548682451E0,1.213025689E0,-1.337031364E0
2.765110056E0,-2.589915991E0,1.241736293E0,-1.355662704E0
2.767346445E0,-2.640923262E0,1.264643788E0,-1.375668526E0
2.769583078E0,-2.699566126E0,1.285107732E0,-1.393078208E0
2.771820566E0,-2.758362055E0,1.295950651E0,-1.409571528E0
2.774056345E0,-2.824640989E0,1.300990224E0,-1.427133918E0
2.776291452E0,-2.892294168E0,1.298699498E0,-1.437518597E0
2.778527476E0,-2.956587791E0,1.280526280E0,-1.445612550E0
2.780763865E0,-3.021186829E0,1.253800869E0,-1.446223497E0
2.783000498E0,-3.080898762E0,1.220966935E0,-1.439503908E0
2.785234567E0,-3.137251139E0,1.178359032E0,-1.431562662E0
2.787464365E0,-3.188716650E0,1.135751247E0,-1.419956207E0
2.789710703E0,-3.236669540E0,1.081995010E0,-1.401019454E0
2.791946726E0,-3.272405148E0,1.023352027E0,-1.384373307E0
2.794184091E0,-3.305697203E0,9.656252265E-1,-1.369101763E0
2.796417978E0,-3.328146458E0,9.017898440E-1,-1.348637700E0
2.798654429E0,-3.335629702E0,8.413141370E-1,-1.331838965E0
2.800890574E0,-3.333338976E0,7.805330753E-1,-1.308778763E0
2.803123911E0,-3.318525553E0,7.279986739E-1,-1.284496903E0
2.805348459E0,-3.293938160E0,6.742424965E-1,-1.256244421E0
2.807586313E0,-3.255759001E0,6.249151230E-1,-1.224326611E0
2.809826670E0,-3.206431627E0,5.791002512E-1,-1.192256212E0
2.812075265E0,-3.148399591E0,5.378668308E-1,-1.162629247E0
2.814311349E0,-3.078150034E0,4.928155243E-1,-1.132849574E0
2.816547250E0,-2.997973919E0,4.462370574E-1,-1.109025836E0
2.818781199E0,-2.909398556E0,3.923282027E-1,-1.089020014E0
2.821017344E0,-2.818226814E0,3.347541690E-1,-1.077413559E0
2.823254099E0,-2.721099138E0,2.696970105E-1,-1.074359298E0
2.825488229E0,-2.621528149E0,2.058615834E-1,-1.072526693E0
2.827715586E0,-2.527760267E0,1.507309973E-1,-1.075733662E0
2.829962595E0,-2.432618141E0,1.039998084E-1,-1.081231475E0
2.832198740E0,-2.341140985E0,6.215553731E-2,-1.087950945E0
2.834437997E0,-2.253176451E0,3.008511290E-2,-1.087340117E0
2.836671518E0,-2.171015024E0,1.145372353E-2,-1.095281363E0
2.838907419E0,-2.094656944E0,8.704829961E-3,-1.106887817E0
2.841144297E0,-2.031584978E0,1.847867295E-2,-1.118494272E0
2.843381723E0,-1.975690961E0,4.046982154E-2,-1.130100727E0
2.845617502E0,-1.934304833E0,6.994406879E-2,-1.136972904E0
2.847853037E0,-1.905288696E0,1.058324054E-1,-1.131780624E0
2.850088999E0,-1.886810064E0,1.649336219E-1,-1.136209369E0
2.852325144E0,-1.869094968E0,2.434297949E-1,-1.160185814E0
2.854561533E0,-1.855961323E0,3.329215646E-1,-1.191492677E0
2.856798288E0,-1.855197787E0,4.239404798E-1,-1.224173903E0
2.859034738E0,-1.864055276E0,5.187773108E-1,-1.255786180E0
2.861272287E0,-1.872607350E0,6.330091357E-1,-1.289689302E0
2.863507944E0,-1.879479647E0,7.654141784E-1,-1.327104688E0
2.865743113E0,-1.892155051E0,9.138544202E-1,-1.369407177E0
2.867979136E0,-1.913382649E0,1.070694089E0,-1.414305806E0
2.870215525E0,-1.938275456E0,1.224173903E0,-1.460273385E0
2.872452097E0,-1.971720338E0,1.381319046E0,-1.506393671E0
2.874688303E0,-2.012495518E0,1.538769603E0,-1.545336366E0
2.876925302E0,-2.060601234E0,1.701107025E0,-1.586722493E0
2.879162363E0,-2.114968300E0,1.864818931E0,-1.625665188E0
2.881398386E0,-2.171625853E0,2.030974150E0,-1.670716405E0
2.883629648E0,-2.235614061E0,2.197282314E0,-1.723250866E0
2.885855356E0,-2.303420067E0,2.356260061E0,-1.773341775E0
2.888105601E0,-2.378556490E0,2.520430088E0,-1.822211027E0
2.890342295E0,-2.452471256E0,2.683225632E0,-1.866346002E0
2.892582102E0,-2.530203819E0,2.842508793E0,-1.907884836E0
2.894815195E0,-2.599537134E0,2.994461536E0,-1.942093372E0
2.897052561E0,-2.661998034E0,3.116940022E0,-1.974011064E0
2.899288828E0,-2.718961239E0,3.210402250E0,-2.007150412E0
2.901523935E0,-2.774397135E0,3.260035038E0,-2.039220810E0
2.903760019E0,-2.828306198E0,3.264616489E0,-2.070222378E0
2.905996226E0,-2.872746468E0,3.249803066E0,-2.102445364E0
2.908232615E0,-2.897333860E0,3.234531403E0,-2.135890245E0
2.910469004E0,-2.909856558E0,3.216511011E0,-2.166586399E0
2.912705820E0,-2.913980007E0,3.189938307E0,-2.193617105E0
2.914943186E0,-2.911994696E0,3.154660940E0,-2.213317394E0
2.917179148E0,-2.909245729E0,3.104875326E0,-2.228283644E0
2.919414011E0,-2.899319172E0,3.047606707E0,-2.238210201E0
2.921650338E0,-2.890614271E0,2.983160496E0,-2.246915102E0
2.923886605E0,-2.874579191E0,2.921004772E0,-2.253176451E0
2.926123117E0,-2.853809595E0,2.855031490E0,-2.261728525E0
2.928359507E0,-2.828000546E0,2.787836313E0,-2.271655083E0
2.930595713E0,-2.797152042E0,2.726444244E0,-2.281429052E0
2.932833505E0,-2.757598400E0,2.665052414E0,-2.293646336E0
2.935069223E0,-2.714226961E0,2.615572214E0,-2.305710793E0
2.937304514E0,-2.665968657E0,2.564870358E0,-2.318844557E0
2.939540720E0,-2.617710352E0,2.513099670E0,-2.329687357E0
2.941777109E0,-2.560594320E0,2.468200922E0,-2.339155674E0
2.944013620E0,-2.502562284E0,2.419790030E0,-2.347402334E0
2.946249460E0,-2.445446253E0,2.378556490E0,-2.350762129E0
2.948486277E0,-2.391995668E0,2.344806194E0,-2.351678371E0
2.950723642E0,-2.339613914E0,2.319455385E0,-2.351372957E0
2.952959970E0,-2.287079573E0,2.297769547E0,-2.349693060E0
2.955193979E0,-2.239279270E0,2.288453817E0,-2.349387646E0
2.957427683E0,-2.194838762E0,2.289981127E0,-2.344042778E0
2.959667063E0,-2.151467323E0,2.307390690E0,-2.340072155E0
2.961903513E0,-2.115273714E0,2.335795879E0,-2.337170362E0
2.964140695E0,-2.078469038E0,2.386039734E0,-2.335337877E0
2.966376718E0,-2.046398640E0,2.454609156E0,-2.333657980E0
2.968614084E0,-2.023796558E0,2.534174442E0,-2.330603600E0
2.970848703E0,-2.007150412E0,2.629774809E0,-2.328923702E0
2.973079538E0,-1.992795110E0,2.733774662E0,-2.328312874E0
2.975318491E0,-1.988060951E0,2.839301586E0,-2.327854633E0
2.977546580E0,-1.985922933E0,2.944828749E0,-2.326174736E0
2.979795603E0,-1.990351677E0,3.034778595E0,-2.330756426E0
2.982030527E0,-1.998445630E0,3.114954710E0,-2.331825256E0
2.984269845E0,-2.007150412E0,3.174666643E0,-2.337781191E0
2.986504404E0,-2.020895004E0,3.219870806E0,-2.341293812E0
2.988740427E0,-2.036472082E0,3.239571095E0,-2.346333504E0
2.990975534E0,-2.049758434E0,3.249497652E0,-2.352442026E0
2.993211619E0,-2.063350201E0,3.247359753E0,-2.358703375E0
2.995447886E0,-2.079843521E0,3.224604845E0,-2.363895893E0
2.997684275E0,-2.091602564E0,3.189632893E0,-2.366492033E0
2.999920603E0,-2.106110573E0,3.140152693E0,-2.370462656E0
3.002157175E0,-2.119702339E0,3.077386379E0,-2.369699001E0
3.004394602E0,-2.132225037E0,3.007136822E0,-2.365117550E0
3.006630869E0,-2.149787426E0,2.926197290E0,-2.361910582E0
3.008865915E0,-2.162768364E0,2.839148998E0,-2.359925270E0
3.011101754E0,-2.180788994E0,2.742326736E0,-2.355648994E0
3.013338022E0,-2.197740316E0,2.635883570E0,-2.348929644E0
3.015574656E0,-2.218509912E0,2.521040916E0,-2.343431711E0
3.017811106E0,-2.240653753E0,2.401311398E0,-2.335490465E0
3.020047861E0,-2.262950182E0,2.281581640E0,-2.322662354E0
3.022284922E0,-2.288912058E0,2.158339739E0,-2.312430382E0
3.024520945E0,-2.313652039E0,2.036166668E0,-2.298380375E0
3.026756052E0,-2.337017775E0,1.922545671E0,-2.278221846E0
3.028992379E0,-2.365117550E0,1.823585510E0,-2.253176451E0
3.031225473E0,-2.390468359E0,1.734399199E0,-2.222022295E0
3.033453135E0,-2.415666580E0,1.655902982E0,-2.185828447E0
3.035701365E0,-2.440864801E0,1.583668113E0,-2.144747972E0
3.037934885E0,-2.458579779E0,1.512349606E0,-2.101071119E0
3.040165841E0,-2.472629786E0,1.444696307E0,-2.053729057E0
3.042411325E0,-2.490345001E0,1.373377800E0,-2.002874374E0
3.044646494E0,-2.497064352E0,1.304350019E0,-1.950492740E0
3.046885934E0,-2.505005598E0,1.237765670E0,-1.897042036E0
3.049114694E0,-2.512794256E0,1.171181440E0,-1.842369556E0
3.051337289E0,-2.516917467E0,1.114218235E0,-1.781435728E0
3.053589304E0,-2.511114359E0,1.056949615E0,-1.720349193E0
3.055828257E0,-2.508823633E0,1.008385777E0,-1.653306842E0
3.058066843E0,-2.501645803E0,9.645562172E-1,-1.586111665E0
3.060290353E0,-2.489428520E0,9.182831645E-1,-1.516472936E0
3.062536814E0,-2.474920511E0,8.694139719E-1,-1.449277759E0
3.064772959E0,-2.460412502E0,8.181012869E-1,-1.378264666E0
3.067012155E0,-2.440101147E0,7.521278262E-1,-1.312291265E0
3.069245554E0,-2.424676895E0,6.838636398E-1,-1.246470571E0
3.071481882E0,-2.409252644E0,6.107125282E-1,-1.187827468E0
3.073718454E0,-2.395355225E0,5.267185569E-1,-1.133002281E0
3.075955881E0,-2.374127865E0,4.413501322E-1,-1.081689596E0
3.078192392E0,-2.352900267E0,3.488040566E-1,-1.032973170E0
3.080428232E0,-2.336559534E0,2.609921694E-1,-9.867000580E-1
3.082663340E0,-2.315026522E0,1.805106848E-1,-9.465357065E-1
3.084899607E0,-2.294867992E0,9.392052889E-2,-9.074403048E-1
3.087135996E0,-2.270891666E0,1.572977938E-2,-8.684976697E-1
3.089372568E0,-2.249358654E0,-6.108652428E-2,-8.306240439E-1
3.091606149E0,-2.222785950E0,-1.331686229E-1,-7.951938510E-1
3.093830576E0,-2.195907831E0,-1.968513280E-1,-7.622070909E-1
3.096063913E0,-2.166433573E0,-2.460259795E-1,-7.327328324E-1
3.098305796E0,-2.129323483E0,-2.868012190E-1,-7.032586336E-1
3.100556344E0,-2.095573187E0,-3.153591752E-1,-6.737843752E-1
3.102793589E0,-2.052965403E0,-3.320052624E-1,-6.415612102E-1
3.105029245E0,-2.014022827E0,-3.423899710E-1,-6.107125282E-1
3.107262705E0,-1.967444181E0,-3.396410644E-1,-5.809328556E-1
3.109499277E0,-1.918269634E0,-3.297145069E-1,-5.474879742E-1
3.111736582E0,-1.866498709E0,-3.197879493E-1,-5.126686692E-1
3.113972605E0,-1.805870414E0,-2.918408811E-1,-4.754058719E-1
3.116204660E0,-1.742798567E0,-2.603813112E-1,-4.367686510E-1
3.118428659E0,-1.676977873E0,-2.228130996E-1,-3.956879675E-1
3.120665415E0,-1.608560920E0,-1.768454909E-1,-3.582724631E-1
3.122901865E0,-1.537395120E0,-1.151480973E-1,-3.255911767E-1
3.125144480E0,-1.464702129E0,-3.894266114E-2,-2.915354371E-1
3.127392893E0,-1.396743417E0,4.352414981E-2,-2.612976134E-1
3.129630259E0,-1.326188445E0,1.343903542E-1,-2.370157093E-1
3.131866159E0,-1.261589408E0,2.264782935E-1,-2.141082734E-1
3.134098093E0,-1.209360480E0,3.213151097E-1,-1.973094791E-1
3.136334298E0,-1.160643935E0,4.224133193E-1,-1.794416606E-1
3.138570199E0,-1.120479584E0,5.296201706E-1,-1.554652005E-1
3.140807138E0,-1.091158032E0,6.443101168E-1,-1.290452778E-1
3.143043406E0,-1.066876173E0,7.651087046E-1,-1.001819000E-1
3.145277109E0,-1.047175765E0,8.958339095E-1,-7.131851465E-2
3.147505380E0,-1.029918790E0,1.029002547E0,-4.123340547E-2
3.149753367E0,-1.012509108E0,1.164614558E0,-7.483099122E-3
3.151988474E0,-9.950994849E-1,1.303739190E0,2.260201424E-2
3.154227548E0,-9.715811610E-1,1.444085479E0,5.268712714E-2
3.156460946E0,-9.494373202E-1,1.579544783E0,8.277224004E-2
3.158697702E0,-9.275988936E-1,1.691944003E0,1.079704314E-1
3.160933664E0,-9.071348906E-1,1.794722080E0,1.281289905E-1
3.163170664E0,-8.820894361E-1,1.881617665E0,1.458440721E-1
3.165404794E0,-8.559749126E-1,1.958739400E0,1.585195363E-1
3.167632334E0,-8.287914395E-1,2.029905319E0,1.689042449E-1
3.169878794E0,-8.054258227E-1,2.091297150E0,1.766927689E-1
3.172114878E0,-7.736608386E-1,2.140471935E0,1.844813079E-1
3.174353891E0,-7.518224120E-1,2.188577414E0,1.908953935E-1
3.176587839E0,-7.301366925E-1,2.231796265E0,1.986839175E-1
3.178823923E0,-7.021896243E-1,2.270128012E0,2.038762718E-1
3.181060556E0,-6.719517708E-1,2.308306932E0,2.141082734E-1
3.183297800E0,-6.418666840E-1,2.340530157E0,2.218967974E-1
3.185531076E0,-6.130032539E-1,2.371531487E0,2.307543457E-1
3.187757761E0,-5.794056654E-1,2.393828154E0,2.397646159E-1
3.190005137E0,-5.506950021E-1,2.415208578E0,2.486221492E-1
3.192241648E0,-5.221370459E-1,2.425593138E0,2.538145185E-1
3.194480844E0,-4.926628172E-1,2.423760653E0,2.565633953E-1
3.196714426E0,-4.607451260E-1,2.417041063E0,2.579378486E-1
3.198951181E0,-4.340197444E-1,2.401922226E0,2.606867552E-1
3.201188547E0,-4.062253833E-1,2.375960350E0,2.582432926E-1
3.203424509E0,-3.810271919E-1,2.343889952E0,2.559525371E-1
3.205659433E0,-3.570507467E-1,2.307085276E0,2.510656118E-1
3.207895884E0,-3.344487250E-1,2.265393734E0,2.425135076E-1
3.210131724E0,-3.182607889E-1,2.212859392E0,2.327396572E-1
3.212368418E0,-3.022255898E-1,2.152994633E0,2.191479057E-1
3.214601633E0,-2.886338234E-1,2.087326527E0,2.055561543E-1
3.216827341E0,-2.825251818E-1,2.024101973E0,1.954768747E-1
3.219067575E0,-2.777909636E-1,1.947438359E0,1.817324162E-1
3.221302744E0,-2.779437006E-1,1.868636727E0,1.655444801E-1
3.223552987E0,-2.829833329E-1,1.795943856E0,1.469130963E-1
3.225787851E0,-2.829833329E-1,1.730428576E0,1.307251602E-1
3.228025155E0,-2.814561725E-1,1.679421306E0,1.182024255E-1
3.230258677E0,-2.823724449E-1,1.638187885E0,1.107193232E-1
3.232494822E0,-2.842050493E-1,1.605353832E0,1.069014147E-1
3.234731455E0,-2.849686444E-1,1.565342188E0,1.006400511E-1
3.236969065E0,-2.929098904E-1,1.535257101E0,9.560041130E-2
3.239205393E0,-3.022255898E-1,1.498910546E0,8.918632567E-2
3.241440439E0,-3.187189400E-1,1.471421719E0,7.910704613E-2
3.243676217E0,-3.495676219E-1,1.462258697E0,6.902777404E-2
3.245912484E0,-3.851505518E-1,1.465465665E0,6.017022580E-2
3.248149057E0,-4.234823287E-1,1.456455469E0,5.131268129E-2
3.250385263E0,-4.618141353E-1,1.447445154E0,4.978551716E-2
3.252622019E0,-4.975497425E-1,1.444543600E0,4.810563847E-2
3.254859140E0,-5.418374538E-1,1.446681619E0,4.291328415E-2
3.257095469E0,-5.823072791E-1,1.451110363E0,3.894266114E-2
3.259327524E0,-6.276640296E-1,1.459204316E0,2.993239649E-2
3.261554697E0,-6.707300544E-1,1.461342335E0,2.718350291E-2
3.263802926E0,-7.150177956E-1,1.462105989E0,2.565634064E-2
3.266039499E0,-7.533495426E-1,1.453248382E0,2.397646010E-2
3.268278573E0,-7.906123400E-1,1.434464335E0,2.244929783E-2
3.270512216E0,-8.255843520E-1,1.413389444E0,2.199114859E-2
3.272749704E0,-8.605564237E-1,1.386053205E0,1.908953860E-2
3.274985544E0,-8.940013051E-1,1.372156024E0,1.511891466E-2
3.277220713E0,-9.346238375E-1,1.371850610E0,7.483099122E-3
3.279456980E0,-9.724974632E-1,1.384678841E0,-1.374446787E-3
3.281693308E0,-1.007469535E0,1.410793304E0,-1.756237634E-2
3.283929697E0,-1.043510556E0,1.452790260E0,-3.481931984E-2
3.286165964E0,-1.080467939E0,1.502117634E0,-5.451972410E-2
3.288402536E0,-1.112385631E0,1.558470011E0,-7.284568250E-2
3.290639963E0,-1.144456029E0,1.613753319E0,-9.254608303E-2
3.292876230E0,-1.174082994E0,1.666593075E0,-1.072068512E-1
3.295111338E0,-1.193936110E0,1.713018894E0,-1.206458881E-1
3.297347422E0,-1.207680583E0,1.754557729E0,-1.401935667E-1
3.299583689E0,-1.214400053E0,1.787391663E0,-1.585195363E-1
3.301820200E0,-1.212414742E0,1.810451865E0,-1.840231568E-1
3.304056284E0,-1.203099132E0,1.839468002E0,-2.156354338E-1
3.306290659E0,-1.183856845E0,1.864513397E0,-2.472477108E-1
3.308518259E0,-1.158200502E0,1.897958279E0,-2.860376537E-1
3.310766428E0,-1.132696867E0,1.935221076E0,-3.211624026E-1
3.313001475E0,-1.104444385E0,1.979508877E0,-3.597996235E-1
3.315238047E0,-1.076039076E0,2.028683424E0,-3.985895813E-1
3.317464060E0,-1.058934927E0,2.070833206E0,-4.251621962E-1
3.319710398E0,-1.049924612E0,2.097405910E0,-4.237877727E-1
3.321946848E0,-1.058629513E0,2.100002050E0,-4.030183554E-1
3.324186044E0,-1.072984815E0,2.066251755E0,-3.665191531E-1
3.326420725E0,-1.099557400E0,1.992795110E0,-3.181080818E-1
3.328656931E0,-1.132849574E0,1.886657357E0,-2.637410760E-1
3.330891733E0,-1.168890595E0,1.764789701E0,-2.095267773E-1
3.333127877E0,-1.211193085E0,1.636966109E0,-1.577559561E-1
3.335361215E0,-1.241430879E0,1.494329095E0,-1.230893433E-1
3.337589060E0,-1.258077025E0,1.348943233E0,-1.116356254E-1
3.339836924E0,-1.260978580E0,1.204626322E0,-1.110247597E-1
3.342071116E0,-1.257313371E0,1.075886369E0,-1.188132912E-1
3.344303477E0,-1.248608589E0,9.592111707E-1,-1.339322031E-1
3.346547190E0,-1.240514636E0,8.645270467E-1,-1.574505121E-1
3.348782419E0,-1.237765670E0,7.988590002E-1,-1.980730593E-1
3.351020822E0,-1.229060888E0,7.901542187E-1,-2.458732575E-1
3.353254281E0,-1.207680583E0,8.541423082E-1,-3.077233732E-1
3.355490854E0,-1.180191636E0,9.749409556E-1,-3.596469164E-1
3.357727304E0,-1.166599870E0,1.097266674E0,-3.590360582E-1
3.359964182E0,-1.171486855E0,1.178664446E0,-3.013092875E-1
3.362201486E0,-1.192256212E0,1.216690898E0,-2.168571651E-1
3.364437449E0,-1.227991819E0,1.187063932E0,-1.230893433E-1
3.366672251E0,-1.268767118E0,1.085812926E0,-3.817907721E-2
3.368908396E0,-1.311985850E0,9.216429591E-1,2.443460934E-2
3.371144967E0,-1.348332286E0,7.185302377E-1,5.879577994E-2
3.373381601E0,-1.377348423E0,5.067127347E-1,6.383541971E-2
3.375617685E0,-1.392314553E0,3.055853248E-1,4.688390717E-2
3.377854257E0,-1.401630282E0,1.382082552E-1,1.679879427E-2
3.380091806E0,-1.409113407E0,3.665191587E-3,-1.802052557E-2
3.382326669E0,-1.421025276E0,-1.101084575E-1,-5.039638281E-2
3.384553537E0,-1.446376204E0,-2.128865421E-1,-7.803803682E-2
3.386780649E0,-1.476003170E0,-2.898555696E-1,-9.926560521E-2
3.389035044E0,-1.500895858E0,-3.136793077E-1,-1.327104717E-1
3.391272897E0,-1.520901799E0,-2.842050493E-1,-1.915062517E-1
3.393512643E0,-1.523497939E0,-2.089159191E-1,-2.964223623E-1
3.395744882E0,-1.504255652E0,-8.536841720E-2,-4.108068645E-1
3.397979074E0,-1.476155877E0,5.726861581E-2,-4.894557893E-1
3.400206553E0,-1.458440781E0,1.879937798E-1,-5.316054821E-1
3.402453318E0,-1.457371712E0,2.898555696E-1,-5.691736937E-1
3.404689463E0,-1.476919413E0,3.413209617E-1,-6.192646623E-1
3.406928659E0,-1.504408360E0,3.562871516E-1,-6.892086864E-1
3.409162241E0,-1.525941372E0,3.628539443E-1,-7.725918293E-1
3.411398203E0,-1.530828357E0,3.909537494E-1,-8.581129313E-1
3.413635263E0,-1.530675530E0,4.370740950E-1,-9.350819588E-1
3.415872507E0,-1.521665335E0,4.926628172E-1,-1.010676503E0
3.418105478E0,-1.516014814E0,5.471825600E-1,-1.114370942E0
3.420331736E0,-1.518916488E0,6.067419052E-1,-1.247539520E0
3.422579722E0,-1.519985437E0,6.881396770E-1,-1.392772794E0
3.424815867E0,-1.526094079E0,8.205447197E-1,-1.533119082E0
3.427055368E0,-1.537853241E0,9.833403230E-1,-1.669494748E0
3.429288462E0,-1.560302496E0,1.180344343E0,-1.761888027E0
3.431525156E0,-1.591914773E0,1.393383622E0,-1.733177423E0
3.433762705E0,-1.631315589E0,1.558011770E0,-1.604437590E0
3.435998789E0,-1.680948496E0,1.596496344E0,-1.443169117E0
3.438233896E0,-1.740965962E0,1.476308584E0,-1.292438149E0
3.440469919E0,-1.823738217E0,1.203709960E0,-1.168127060E0
3.442706248E0,-1.915520668E0,8.402451277E-1,-1.068861485E0
3.444942820E0,-1.997987509E0,4.485278130E-1,-9.757044911E-1
3.447178965E0,-2.067626238E0,7.498370856E-2,-8.897252083E-1
3.449415781E0,-2.111913919E0,-2.567161322E-1,-7.996225953E-1
3.451652170E0,-2.126880169E0,-5.294674635E-1,-6.882924438E-1
3.453885508E0,-2.117411613E0,-7.481572032E-1,-5.545129180E-1
3.456124216E0,-2.089311838E0,-9.465357065E-1,-4.130976200E-1
3.458360238E0,-2.037235498E0,-1.128420830E0,-2.837468982E-1
3.460597299E0,-1.948354721E0,-1.268461704E0,-1.942551434E-1
3.462833261E0,-1.835497379E0,-1.350775719E0,-1.899790913E-1
3.465069590E0,-1.712407947E0,-1.378722906E0,-2.782491148E-1
3.467306223E0,-1.385289669E0,-9.651671052E-1,-6.041457057E-1
3.469540719E0,-9.567676783E-1,-3.011565804E-1,-1.160796642E0
3.471768442E0,-6.382014751E-1,2.012801021E-1,-1.603826642E0
3.474014353E0,-4.657847583E-1,6.469063163E-1,-1.915062547E0
3.476250681E0,-4.210388660E-1,1.085354805E0,-2.101376534E0
3.478489694E0,-4.749477208E-1,1.509906173E0,-2.144136906E0
3.480723398E0,-5.971207619E-1,1.884977460E0,-2.071444035E0
3.482959665E0,-7.525860071E-1,2.158492327E0,-1.939497113E0
3.485194894E0,-9.059131742E-1,2.364201307E0,-1.772425532E0
3.487428293E0,-1.021061301E0,2.518139362E0,-1.575726867E0
3.489669870E0,-1.096197724E0,2.589915991E0,-1.368032694E0
3.491904734E0,-1.129184365E0,2.545628309E0,-1.169043422E0
3.494142221E0,-1.131475091E0,2.374585867E0,-9.911288619E-1
3.496377390E0,-1.111163855E0,2.091297150E0,-8.416196108E-1
3.498614023E0,-1.073901057E0,1.724167109E0,-7.166976333E-1
3.500850168E0,-1.027628064E0,1.314276576E0,-6.029239893E-1
3.503086862E0,-9.839512110E-1,8.935431242E-1,-4.978551865E-1
3.505320993E0,-9.486737251E-1,4.825835526E-1,-3.903428912E-1
3.507548410E0,-9.275988936E-1,9.987647086E-2,-2.790127099E-1
3.509795542E0,-9.193521738E-1,-2.412917763E-1,-1.617265791E-1
3.512031199E0,-9.263771176E-1,-5.409211516E-1,-4.062253982E-2
3.514270517E0,-9.494373202E-1,-7.916813493E-1,8.414668590E-2
3.516504282E0,-9.891435504E-1,-1.004567862E0,2.041817009E-1
3.518740488E0,-1.035263896E0,-1.183246017E0,3.071125150E-1
3.520977121E0,-1.088103771E0,-1.329089999E0,3.856086731E-1
3.523214548E0,-1.148426652E0,-1.432326317E0,4.506658316E-1
3.525447458E0,-1.224173903E0,-1.506088257E0,4.937318265E-1
3.527673838E0,-1.305113554E0,-1.543351054E0,5.186246037E-1
3.529921763E0,-1.392772794E0,-1.553735733E0,5.288565755E-1
3.532157908E0,-1.483333588E0,-1.522887111E0,5.319108963E-1
3.534397470E0,-1.563204169E0,-1.459357023E0,5.265658498E-1
3.536630869E0,-1.640173197E0,-1.374141335E0,5.140430927E-1
3.538867685E0,-1.713171601E0,-1.274417639E0,4.966334403E-1
3.541104746E0,-1.784490108E0,-1.160185814E0,4.708243906E-1
3.543340769E0,-1.849394560E0,-1.032667756E0,4.463897645E-1
3.545575876E0,-1.905746818E0,-8.993463516E-1,4.231768847E-1
3.547812143E0,-1.959350228E0,-7.599163651E-1,4.024074674E-1
3.550045053E0,-2.009288549E0,-6.241515875E-1,3.756821156E-1
3.552272959E0,-2.054492474E0,-4.897612035E-1,3.488040566E-1
3.554521250E0,-2.087326527E0,-3.605632186E-1,3.222314119E-1
3.556758127E0,-2.118022442E0,-2.397646159E-1,2.979495227E-1
3.558998118E0,-2.150092840E0,-1.287398487E-1,2.748893499E-1
3.561231150E0,-2.173763990E0,-2.626720630E-2,2.591595948E-1
3.563466196E0,-2.193922520E0,6.627888232E-2,2.434297949E-1
3.565702340E0,-2.204612732E0,1.392772794E-1,2.339613885E-1
3.567938669E0,-2.216830015E0,2.026545405E-1,2.304489166E-1
3.570175242E0,-2.225840330E0,2.464841306E-1,2.353358418E-1
3.572411325E0,-2.226603746E0,2.744311988E-1,2.403754741E-1
3.574647898E0,-2.225229263E0,2.842050493E-1,2.501493096E-1
3.576885324E0,-2.220342398E0,2.840523422E-1,2.637410760E-1
3.579121836E0,-2.199878454E0,2.666426897E-1,2.736676335E-1
3.581356699E0,-2.138486624E0,2.011273801E-1,2.811507285E-1
3.583592722E0,-2.043038845E0,1.094975919E-1,2.852740586E-1
3.585828744E0,-1.923003793E0,2.580905706E-2,2.933680415E-1
3.588065622E0,-1.794111252E0,-5.070181563E-2,3.039054573E-1
3.590298776E0,-1.657582879E0,-1.177442744E-1,3.194825351E-1
3.592523691E0,-1.529606581E0,-1.687515229E-1,3.362813294E-1
3.594760995E0,-1.411862254E0,-1.928807050E-1,3.494149148E-1
3.597000254E0,-1.310764074E0,-1.803579628E-1,3.588833213E-1
3.599250009E0,-1.230893493E0,-1.284344196E-1,3.610213697E-1
3.601486032E0,-1.180038929E0,-5.177082866E-2,3.556762934E-1
3.603722116E0,-1.147357702E0,4.092797264E-2,3.355177343E-1
3.605956003E0,-1.135140300E0,1.438587606E-1,3.017674387E-1
3.608192087E0,-1.142470717E0,2.544253767E-1,2.556470931E-1
3.610428720E0,-1.149801135E0,3.517056704E-1,1.899790913E-1
3.612665964E0,-1.137125611E0,4.072943926E-1,1.156062484E-1
3.614899973E0,-1.089172721E0,4.379903674E-1,2.687807009E-2
3.617125986E0,-1.011592865E0,4.644103050E-1,-6.902777404E-2
3.619358835E0,-8.947648406E-1,4.888449013E-1,-1.658499092E-1
3.621595102E0,-7.521278262E-1,5.077817440E-1,-2.625193298E-1
3.623834360E0,-5.855143666E-1,4.961752892E-1,-3.541491330E-1
3.626070749E0,-3.659082949E-1,4.190535545E-1,-4.552473128E-1
3.628307443E0,-1.182024255E-1,3.388774991E-1,-5.648976564E-1
3.630544748E0,1.062905490E-1,3.248275816E-1,-6.609562039E-1
3.632780710E0,2.704605758E-1,3.811798990E-1,-7.302893996E-1
3.635015818E0,3.761402667E-1,4.798346460E-1,-7.681630254E-1
3.637251780E0,4.228714705E-1,5.917757154E-1,-7.855727077E-1
3.639490915E0,4.263839424E-1,6.997461319E-1,-7.948883772E-1
3.641739450E0,4.111123085E-1,7.933612466E-1,-8.057312369E-1
3.643975595E0,3.758348525E-1,8.669704795E-1,-8.277224302E-1
3.646212473E0,3.313944042E-1,9.175195694E-1,-8.573493958E-1
3.648446787E0,2.842050493E-1,9.390525818E-1,-8.979719281E-1
3.650682871E0,2.315179259E-1,9.413433671E-1,-9.436340928E-1
3.652917856E0,1.924225539E-1,9.372199774E-1,-9.905179739E-1
3.655153757E0,1.519527286E-1,9.283624291E-1,-1.031293273E0
3.657387400E0,1.174388453E-1,9.144652486E-1,-1.062294602E0
3.659615244E0,8.888089657E-2,9.005680680E-1,-1.087034702E0
3.661863352E0,6.307183951E-2,8.985827565E-1,-1.099557400E0
3.664099924E0,3.711006418E-2,8.881980777E-1,-1.099710107E0
3.666340342E0,2.199114859E-2,8.738427162E-1,-1.094975948E0
3.668573191E0,7.941247895E-3,8.510879874E-1,-1.087950945E0
3.670808298E0,-6.261368748E-3,8.258898258E-1,-1.074664712E0
3.673044320E0,-2.672535367E-2,7.935139537E-1,-1.056644201E0
3.675277719E0,-4.612032697E-2,7.562511563E-1,-1.032514930E0
3.677505320E0,-6.566801667E-2,7.142542005E-1,-1.008385777E0
3.679753367E0,-9.239336848E-2,6.783658266E-1,-9.854783416E-1
3.681989939E0,-1.266018152E-1,6.377432942E-1,-9.576839805E-1
3.684230233E0,-1.632537395E-1,5.983424783E-1,-9.239336848E-1
3.686463388E0,-2.002110779E-1,5.554292202E-1,-8.852964640E-1
3.688698679E0,-2.345722616E-1,5.099197626E-1,-8.429940343E-1
3.690934580E0,-2.727513313E-1,4.608978331E-1,-8.055785298E-1
3.693171091E0,-3.075706363E-1,4.021020532E-1,-7.681630254E-1
3.695404489E0,-3.397938013E-1,3.420845270E-1,-7.221954465E-1
3.697632090E0,-3.709479272E-1,2.820670307E-1,-6.737843752E-1
3.699877450E0,-3.932445049E-1,2.302961946E-1,-6.178901792E-1
3.702106272E0,-4.046982229E-1,1.747074574E-1,-5.606215596E-1
3.704356881E0,-4.037819207E-1,1.163698286E-1,-5.045747161E-1
3.706588816E0,-3.967569768E-1,5.558873713E-2,-4.473060668E-1
3.708827768E0,-3.810271919E-1,-3.054326167E-3,-3.923282027E-1
3.711061167E0,-3.652974069E-1,-5.787948146E-2,-3.446807265E-1
3.713294992E0,-3.483459055E-1,-1.153008118E-1,-3.019201458E-1
3.715518076E0,-3.384193480E-1,-1.603521258E-1,-2.554943860E-1
3.717751352E0,-3.358231783E-1,-1.992947906E-1,-2.116648108E-1
3.720001718E0,-3.417791128E-1,-2.319760770E-1,-1.689042449E-1
3.722235238E0,-3.524692357E-1,-2.583959997E-1,-1.299615800E-1
3.724483835E0,-3.616322279E-1,-2.753475010E-1,-9.957103431E-2
3.726716196E0,-3.767511547E-1,-2.883284092E-1,-8.139779419E-2
3.728954782E0,-4.005748928E-1,-3.060434759E-1,-7.437284291E-2
3.731184091E0,-4.279111028E-1,-3.213151097E-1,-7.223481685E-2
3.733407969E0,-4.601342380E-1,-3.352122903E-1,-8.353582025E-2
3.735661081E0,-4.984660447E-1,-3.442225754E-1,-9.850201756E-2
3.737898447E0,-5.389358401E-1,-3.494149148E-1,-1.185078546E-1
3.740138620E0,-5.769622326E-1,-3.498730659E-1,-1.420261711E-1
3.742369577E0,-6.212499738E-1,-3.539963961E-1,-1.620320082E-1
3.744605723E0,-6.582072973E-1,-3.581197560E-1,-1.820378453E-1
3.746842234E0,-6.963863969E-1,-3.597996235E-1,-1.872301996E-1
3.749078562E0,-7.273877859E-1,-3.712533414E-1,-1.875356287E-1
3.751314707E0,-7.560984492E-1,-3.901901841E-1,-1.817324162E-1
3.753551462E0,-7.751879692E-1,-4.201225638E-1,-1.734857261E-1
3.755788767E0,-7.883216143E-1,-4.586070776E-1,-1.650863290E-1
3.758025583E0,-7.942775488E-1,-5.071708560E-1,-1.592831165E-1
3.760263620E0,-7.951938510E-1,-5.519167781E-1,-1.545489132E-1
3.762496042E0,-7.936666608E-1,-5.969680548E-1,-1.510364264E-1
3.764732432E0,-7.909177542E-1,-6.406449080E-1,-1.524108797E-1
3.766968088E0,-7.881689072E-1,-6.879869699E-1,-1.525636017E-1
3.769205332E0,-7.889324427E-1,-7.279986739E-1,-1.551597714E-1
3.771441904E0,-7.959573865E-1,-7.667886019E-1,-1.566869318E-1
3.773679209E0,-7.979426980E-1,-8.080220222E-1,-1.605048478E-1
3.775915232E0,-8.087855577E-1,-8.587238193E-1,-1.681406647E-1
3.778147653E0,-8.210029006E-1,-9.216429591E-1,-1.808161139E-1
3.780375680E0,-8.410087228E-1,-1.002582550E0,-1.971567571E-1
3.782622751E0,-8.648324609E-1,-1.091921568E0,-2.112066597E-1
3.784859385E0,-8.912523985E-1,-1.181107998E0,-2.289217561E-1
3.787098398E0,-9.164505601E-1,-1.274112225E0,-2.441933751E-1
3.789332285E0,-9.440922141E-1,-1.369407177E0,-2.582432926E-1
3.791569589E0,-9.642508030E-1,-1.460120678E0,-2.759583890E-1
3.793805552E0,-9.755517840E-1,-1.538769603E0,-2.935207486E-1
3.796040537E0,-9.805914164E-1,-1.611462474E0,-3.109304011E-1
3.798277048E0,-9.793697000E-1,-1.672090888E0,-3.271183372E-1
3.800513131E0,-9.618073106E-1,-1.724625349E0,-3.405573666E-1
3.802746774E0,-9.366091490E-1,-1.757917404E0,-3.478877544E-1
3.804971139E0,-8.962920308E-1,-1.776854277E0,-3.524692357E-1
3.807211923E0,-8.495608568E-1,-1.778992295E0,-3.533855379E-1
3.809459970E0,-7.791585922E-1,-1.769523859E0,-3.526219726E-1
3.811699045E0,-6.919575930E-1,-1.776090741E0,-3.520110846E-1
3.813933786E0,-5.809328556E-1,-1.767233133E0,-3.497203588E-1
3.816167185E0,-4.500549734E-1,-1.747990847E0,-3.436116874E-1
3.818403452E0,-2.993239760E-1,-1.718211174E0,-3.385720551E-1
3.820639841E0,-1.434006095E-1,-1.678810358E0,-3.382666409E-1
3.822876230E0,2.138028294E-2,-1.632231951E0,-3.428481221E-1
3.825112986E0,1.875356287E-1,-1.572367191E0,-3.484986126E-1
3.827350107E0,3.419318199E-1,-1.489136696E0,-3.578143120E-1
3.829586191E0,4.845688641E-1,-1.383915186E0,-3.685044646E-1
3.831821421E0,5.968153477E-1,-1.253953576E0,-3.853032589E-1
3.834057383E0,6.788240075E-1,-1.106276989E0,-4.085161388E-1
3.836293955E0,7.289149761E-1,-9.518807530E-1,-4.306600094E-1
3.838530466E0,7.509061098E-1,-7.884743214E-1,-4.604396820E-1
3.840763620E0,7.608326674E-1,-6.126978397E-1,-4.877758920E-1
3.842991159E0,7.496843934E-1,-4.425718784E-1,-5.215262175E-1
3.845237314E0,7.322747111E-1,-2.759583890E-1,-5.516113043E-1
3.847464121E0,7.124215961E-1,-1.117883399E-1,-5.804746747E-1
3.849714915E0,6.872233748E-1,3.069597855E-2,-6.082690954E-1
3.851947947E0,6.676757336E-1,1.513418704E-1,-6.372851729E-1
3.854187143E0,6.493497491E-1,2.632829249E-1,-6.675229669E-1
3.856420603E0,6.365215778E-1,3.497203588E-1,-6.991352439E-1
3.858656931E0,6.185010672E-1,4.253149331E-1,-7.307475209E-1
3.860893503E0,6.076582074E-1,4.886921942E-1,-7.623597980E-1
3.863130564E0,5.991060734E-1,5.433646441E-1,-7.904596329E-1
3.865363840E0,5.917757154E-1,5.920811296E-1,-8.184067011E-1
3.867590830E0,5.902485251E-1,6.298020482E-1,-8.402451277E-1
3.869838389E0,5.884159207E-1,6.577491760E-1,-8.634580374E-1
3.872074412E0,5.878050923E-1,6.771441102E-1,-8.842274547E-1
3.874313547E0,5.845980644E-1,6.942483783E-1,-9.037751555E-1
3.876547068E0,5.826127529E-1,7.087563872E-1,-9.282097220E-1
3.878783945E0,5.841398835E-1,7.185302377E-1,-9.502009153E-1
3.881019907E0,5.821545720E-1,7.367035151E-1,-9.732610583E-1
3.883251230E0,5.826127529E-1,7.499898076E-1,-1.001360893E0
3.885487497E0,5.856670737E-1,7.681630254E-1,-1.030682325E0
3.887716684E0,5.902485251E-1,7.984008789E-1,-1.058629513E0
3.889965951E0,5.960517526E-1,8.359690905E-1,-1.089020014E0
3.892201914E0,6.032294035E-1,8.733845949E-1,-1.113301873E0
3.894440683E0,6.189591885E-1,9.144652486E-1,-1.136209369E0
3.896674326E0,6.397286057E-1,9.625709057E-1,-1.154229879E0
3.898911386E0,6.630942225E-1,1.014341712E0,-1.171028733E0
3.901147654E0,6.973026991E-1,1.057255030E0,-1.186452985E0
3.903382761E0,7.336491346E-1,1.085660219E0,-1.201877356E0
3.905618906E0,7.660250068E-1,1.098488450E0,-1.212567568E0
3.907855172E0,8.003861904E-1,1.090547204E0,-1.225853801E0
3.910091745E0,8.283332586E-1,1.068097830E0,-1.231809735E0
3.912327890E0,8.486445546E-1,1.032514930E0,-1.239140153E0
3.914564707E0,8.562803864E-1,9.874636531E-1,-1.241583586E0
3.916802011E0,8.588765264E-1,9.327912331E-1,-1.240667343E0
3.919038095E0,8.564330935E-1,8.746063113E-1,-1.237154841E0
3.921273142E0,8.425359130E-1,7.971791625E-1,-1.227839112E0
3.923509226E0,8.210029006E-1,7.102835774E-1,-1.212414742E0
3.925745493E0,7.867944241E-1,6.137668490E-1,-1.193630695E0
3.927981882E0,7.400632501E-1,5.054910183E-1,-1.166294456E0
3.930218271E0,6.772968173E-1,3.938553631E-1,-1.134224057E0
3.932455027E0,5.995642543E-1,2.788599730E-1,-1.093754172E0
3.934692209E0,5.096143484E-1,1.666134894E-1,-1.047175765E0
3.936928415E0,4.022547603E-1,5.329799280E-2,-9.984592199E-1
3.939163218E0,2.838996351E-1,-5.726861581E-2,-9.460775256E-1
3.941399424E0,1.585195363E-1,-1.554652005E-1,-8.912523985E-1
3.943635935E0,1.832595654E-2,-2.522873580E-1,-8.402451277E-1
3.945872568E0,-1.291979998E-1,-3.416263759E-1,-7.904596329E-1
3.948108652E0,-2.811507285E-1,-4.163046777E-1,-7.480044961E-1
3.950345224E0,-4.353941977E-1,-4.836525619E-1,-7.128797174E-1
3.952582712E0,-5.893322229E-1,-5.364924073E-1,-6.801984310E-1
3.954818552E0,-7.380779386E-1,-5.723807216E-1,-6.533203721E-1
3.957053659E0,-8.889616728E-1,-6.035348773E-1,-6.302602291E-1
3.959289683E0,-1.029918790E0,-6.226243973E-1,-6.108652353E-1
3.961526072E0,-1.165530920E0,-6.259841323E-1,-5.960517526E-1
3.963762705E0,-1.288620234E0,-6.210972667E-1,-5.824599862E-1
3.965999094E0,-1.402852058E0,-6.042984724E-1,-5.772676468E-1
3.968232858E0,-1.499674201E0,-5.842925906E-1,-5.780312419E-1
3.970460886E0,-1.589013219E0,-5.606215596E-1,-5.810855627E-1
3.972708689E0,-1.664760470E0,-5.300782919E-1,-5.839871764E-1
3.974944040E0,-1.726763368E0,-4.937318265E-1,-5.942191482E-1
3.977183359E0,-1.784948230E0,-4.549418986E-1,-6.006332636E-1
3.979416514E0,-1.831068516E0,-4.224133193E-1,-6.094908118E-1
3.981653086E0,-1.869858503E0,-3.961461186E-1,-6.244570017E-1
3.983889353E0,-1.891544223E0,-3.848451078E-1,-6.392704844E-1
3.986126047E0,-1.875967145E0,-3.984368443E-1,-6.317873597E-1
3.988363596E0,-1.837177277E0,-4.199698567E-1,-6.058256030E-1
3.990599558E0,-1.759750009E0,-4.711298347E-1,-5.577199459E-1
3.992834421E0,-1.618334770E0,-5.771149397E-1,-4.847215712E-1
3.995070443E0,-1.413694859E0,-7.133378983E-1,-3.856086731E-1
3.997306772E0,-1.165072680E0,-8.565858006E-1,-2.739730477E-1
3.999543467E0,-8.819366693E-1,-1.004109740E0,-1.620320082E-1
4.001779795E0,-5.852088928E-1,-1.148273945E0,-6.093380973E-2
4.004016306E0,-2.915354371E-1,-1.266934514E0,2.794708498E-2
4.006253427E0,-2.641992271E-2,-1.349859476E0,9.834930301E-2
4.008488962E0,2.075414658E-1,-1.389565706E0,1.528690308E-1
4.010721872E0,3.958406746E-1,-1.377501130E0,1.948660165E-1
4.012960947E0,5.445863605E-1,-1.317330956E0,2.220495194E-1
4.015195749E0,6.511823535E-1,-1.213789225E0,2.344195396E-1
4.017428659E0,7.156286240E-1,-1.074359298E0,2.405281961E-1
4.019669931E0,7.463245988E-1,-8.988882303E-1,2.390010208E-1
4.021906748E0,7.405213714E-1,-7.046330571E-1,2.238821089E-1
4.024145517E0,7.092145681E-1,-4.880813360E-1,2.047925740E-1
4.026380136E0,6.525567770E-1,-2.635883391E-1,1.747074574E-1
4.028615183E0,5.844452977E-1,-5.238169432E-2,1.333213449E-1
4.030851267E0,5.038111210E-1,1.507309973E-1,9.315694869E-2
4.033087534E0,4.153883755E-1,3.344487250E-1,6.368270516E-2
4.035321115E0,3.277291954E-1,4.951062799E-1,4.764748737E-2
4.037549082E0,2.394591719E-1,6.316346526E-1,3.894266114E-2
4.039797129E0,1.556179225E-1,7.473936081E-1,3.252857551E-2
4.042034494E0,7.895433158E-2,8.520042896E-1,2.748893574E-2
4.044273263E0,1.557706390E-2,9.418014884E-1,2.000583708E-2
4.046505259E0,-4.062253982E-2,1.024268270E0,2.229658142E-2
4.048738352E0,-9.437867999E-2,1.101695418E0,2.580905706E-2
4.050965708E0,-1.336267740E-1,1.165530920E0,1.588249579E-2
4.053211435E0,-1.605048478E-1,1.240209222E0,1.114829071E-2
4.055436044E0,-1.849394590E-1,1.306182623E0,1.374446787E-3
4.057675608E0,-2.069306076E-1,1.368490815E0,-3.512475174E-3
4.059909921E0,-2.339613885E-1,1.432173610E0,-4.734205548E-3
4.062148874E0,-2.573269904E-1,1.495703578E0,-1.069014147E-2
4.064383982E0,-2.791654170E-1,1.567632914E0,-2.046398632E-2
4.066620066E0,-3.069597781E-1,1.647198081E0,-3.130684420E-2
4.068856394E0,-3.336851299E-1,1.725388885E0,-4.596760869E-2
4.071093088E0,-3.692680299E-1,1.783115625E0,-6.322455406E-2
4.073329599E0,-4.633412957E-1,1.758222938E0,-6.780604273E-2
4.075566049E0,-6.577491760E-1,1.592067599E0,-4.184427112E-2
4.077803842E0,-8.804095387E-1,1.370781660E0,4.276056774E-3
4.080039682E0,-1.050993681E0,1.165378213E0,3.619376570E-2
4.082274546E0,-1.112080216E0,1.011134744E0,4.367686436E-2
4.084511057E0,-1.062600136E0,8.973610401E-1,2.519819140E-2
4.086746836E0,-9.546296597E-1,8.029823899E-1,-1.466076635E-2
4.088984201E0,-8.407033086E-1,6.951646209E-1,-5.940664560E-2
4.091220956E0,-7.392996550E-1,5.852088928E-1,-9.315694869E-2
4.093461008E0,-6.675229669E-1,4.795292318E-1,-1.174388453E-1
4.095693857E0,-6.174320579E-1,3.862195611E-1,-1.406517178E-1
4.097929757E0,-5.830708742E-1,3.139847219E-1,-1.601994038E-1
4.100161447E0,-5.519167781E-1,2.611449063E-1,-1.858557463E-1
4.102404001E0,-5.232060552E-1,2.133446932E-1,-2.200642079E-1
4.104651926E0,-5.004513264E-1,1.643227488E-1,-2.568688393E-1
4.106889231E0,-4.781547785E-1,1.007927656E-1,-2.910772860E-1
4.109124704E0,-4.633412957E-1,3.375030309E-2,-3.194825351E-1
4.111355417E0,-4.497495294E-1,-3.329215571E-2,-3.514002264E-1
4.113583933E0,-4.384485185E-1,-9.162978828E-2,-3.808744848E-1
4.115828806E0,-4.279111028E-1,-1.295034289E-1,-4.152356386E-1
4.118052316E0,-4.179845452E-1,-1.418734491E-1,-4.506658316E-1
4.120291635E0,-4.118759036E-1,-1.553124934E-1,-4.799873531E-1
4.122527291E0,-4.178318381E-1,-1.551597714E-1,-5.033529401E-1
4.124778818E0,-4.173736870E-1,-1.345430762E-1,-5.277875662E-1
4.127015024E0,-4.140139222E-1,-1.043052375E-1,-5.569564104E-1
4.129251780E0,-4.105014503E-1,-6.185010448E-2,-5.775730610E-1
4.131486032E0,-4.146247804E-1,-1.939497143E-2,-5.884159207E-1
4.133721872E0,-4.198171496E-1,2.443460934E-2,-5.894849896E-1
4.135957224E0,-4.251621962E-1,6.704246253E-2,-5.844452977E-1
4.138192392E0,-4.331034720E-1,1.012509167E-1,-5.710062981E-1
4.140426035E0,-4.399756789E-1,1.328631938E-1,-5.549710989E-1
4.142666208E0,-4.485278130E-1,1.475239545E-1,-5.354233980E-1
4.144902353E0,-4.532620013E-1,1.621847153E-1,-5.195409060E-1
4.147140085E0,-4.494441152E-1,1.742493063E-1,-5.010622144E-1
4.149376474E0,-4.318817258E-1,1.970040351E-1,-4.763221741E-1
4.151612497E0,-4.011857510E-1,2.012801021E-1,-4.479169548E-1
4.153847361E0,-3.648392558E-1,1.774563491E-1,-4.243986309E-1
4.156080759E0,-3.300199509E-1,1.427897513E-1,-4.022547603E-1
4.158308298E0,-2.953533530E-1,9.850201756E-2,-3.935499489E-1
4.160556711E0,-2.617557645E-1,5.650503561E-2,-3.923282027E-1
4.162792978E0,-2.403754741E-1,1.603521220E-2,-3.947716653E-1
4.165032480E0,-2.261728644E-1,-1.206458826E-2,-3.933972120E-1
4.167266855E0,-2.205223590E-1,-3.649919853E-2,-3.874412775E-1
4.169502817E0,-2.122756690E-1,-5.482515693E-2,-3.801108897E-1
4.171737681E0,-2.078468949E-1,-7.803803682E-2,-3.776674271E-1
4.173973765E0,-2.144137025E-1,-9.605856240E-2,-3.802636266E-1
4.176210093E0,-2.244929820E-1,-1.104138941E-1,-3.816380501E-1
4.178446787E0,-2.318233550E-1,-1.055269688E-1,-3.853032589E-1
4.180683176E0,-2.351831198E-1,-8.842274547E-2,-3.840815127E-1
4.182919931E0,-2.333505303E-1,-6.169738993E-2,-3.790418804E-1
4.185157053E0,-2.264782935E-1,-2.306016348E-2,-3.740022480E-1
4.187393320E0,-2.144137025E-1,2.886338346E-2,-3.613267839E-1
4.189628367E0,-2.021963894E-1,9.422596544E-2,-3.378084898E-1
4.191864451E0,-1.849394590E-1,1.678352207E-1,-2.993239760E-1
4.194100535E0,-1.701259762E-1,2.489275932E-1,-2.609921694E-1
4.196337351E0,-1.612684280E-1,3.324634135E-1,-2.299907655E-1
4.198573435E0,-1.609629989E-1,4.161519408E-1,-2.002110779E-1
4.200810129E0,-1.632537395E-1,4.902193546E-1,-1.803579628E-1
4.203047556E0,-1.718058437E-1,5.558874011E-1,-1.655444801E-1
4.205280405E0,-1.832595766E-1,6.084218025E-1,-1.568396538E-1
4.207506540E0,-1.948660165E-1,6.401867867E-1,-1.470658034E-1
4.209754525E0,-2.057088763E-1,6.597344875E-1,-1.360702366E-1
4.211987924E0,-2.154827118E-1,6.647741199E-1,-1.226311997E-1
4.214215647E0,-2.281581759E-1,6.565274000E-1,-1.081231460E-1
4.216452097E0,-2.409863323E-1,6.313292384E-1,-8.872817457E-2
4.218700205E0,-2.590068579E-1,6.013968587E-1,-7.070764899E-2
4.220940806E0,-2.819143236E-1,5.690209866E-1,-5.757404864E-2
4.223177011E0,-3.109304011E-1,5.416847467E-1,-4.199698567E-2
4.225406320E0,-3.399465084E-1,5.155702829E-1,-2.519819140E-2
4.227633493E0,-3.714060783E-1,4.845688641E-1,-1.328631863E-2
4.229881234E0,-4.004221559E-1,4.535674453E-1,-1.527163084E-3
4.232117807E0,-4.282165468E-1,4.201225638E-1,1.404990070E-2
4.234356942E0,-4.499022663E-1,3.854559660E-1,2.596177347E-2
4.236591074E0,-4.718934000E-1,3.420845270E-1,3.909537569E-2
4.238828134E0,-4.912883639E-1,2.964223623E-1,5.100724846E-2
4.241064219E0,-5.122104883E-1,2.434297949E-1,6.154467165E-2
4.243299204E0,-5.357288122E-1,1.771509200E-1,6.475171447E-2
4.245535349E0,-5.569564104E-1,1.059851199E-1,6.795875728E-2
4.247771676E0,-5.703954101E-1,4.795292020E-2,7.131851465E-2
4.250008249E0,-5.885686874E-1,9.162978968E-4,7.467827946E-2
4.252244333E0,-6.004805565E-1,-3.756821156E-2,7.437284291E-2
4.254480966E0,-6.009386778E-1,-6.307183951E-2,7.299839705E-2
4.256716440E0,-6.001750827E-1,-8.491026610E-2,7.055493444E-2
4.258943308E0,-5.968153477E-1,-9.834930301E-2,6.795875728E-2
4.261177744E0,-5.859724879E-1,-1.180497110E-1,6.185010448E-2
4.263425730E0,-5.653557777E-1,-1.354593635E-1,5.345070735E-2
4.265664133E0,-5.422956347E-1,-1.528690308E-1,4.627304152E-2
4.267901681E0,-5.157229900E-1,-1.788308024E-1,3.665191308E-2
4.270135019E0,-4.792237878E-1,-2.050980031E-1,2.703078650E-2
4.272371530E0,-4.427245855E-1,-2.275473028E-1,2.107485011E-2
4.274608652E0,-4.037819207E-1,-2.513710558E-1,2.015855350E-2
4.276844919E0,-3.672827184E-1,-2.678644061E-1,2.886338346E-2
4.279079966E0,-3.220787048E-1,-2.857322097E-1,3.649919853E-2
4.281315867E0,-2.794708610E-1,-3.048217595E-1,4.169155285E-2
4.283552134E0,-2.354885489E-1,-3.239113092E-1,4.566217586E-2
4.285788828E0,-1.892155111E-1,-3.491095006E-1,4.841107130E-2
4.288025400E0,-1.406517178E-1,-3.743076921E-1,5.849034712E-2
4.290261728E0,-8.597928286E-2,-4.080579877E-1,6.750060618E-2
4.292499033E0,-3.252857551E-2,-4.456261992E-1,6.902777404E-2
4.294735056E0,1.618792862E-2,-4.720461071E-1,7.055493444E-2
4.296967539E0,6.001751125E-2,-4.958698750E-1,6.826419383E-2
4.299191904E0,8.567385375E-2,-5.085453391E-1,6.734789163E-2
4.301429941E0,1.076650023E-1,-5.151121020E-1,6.139195710E-2
4.303671640E0,1.163698286E-1,-5.128213763E-1,5.772676691E-2
4.305904001E0,1.178969890E-1,-4.983133376E-1,5.039638281E-2
4.308140390E0,1.061378345E-1,-4.810563922E-1,3.695734590E-2
4.310379160E0,8.704829961E-2,-4.564690590E-1,1.863138936E-2
4.312628610E0,5.711590126E-2,-4.205807149E-1,-4.734205548E-3
4.314863717E0,2.718350291E-2,-3.860668242E-1,-3.543018550E-2
4.317099557E0,-7.483099122E-3,-3.477350473E-1,-7.360926270E-2
4.319333140E0,-4.337143153E-2,-3.167336285E-1,-1.140790880E-1
4.321569468E0,-7.452555746E-2,-2.881756723E-1,-1.730275750E-1
4.323805674E0,-9.422596544E-2,-2.574796975E-1,-2.440406680E-1
4.326042490E0,-1.029307917E-1,-2.220495194E-1,-3.222314119E-1
4.328280039E0,-1.091921628E-1,-1.963931769E-1,-4.030183554E-1
4.330515879E0,-1.194241568E-1,-1.828014255E-1,-4.801400900E-1
4.332750925E0,-1.221730486E-1,-1.585195363E-1,-5.571091175E-1
4.334986947E0,-1.198823079E-1,-1.379028261E-1,-6.340781450E-1
4.337223336E0,-1.110247597E-1,-1.453859210E-1,-7.038694620E-1
4.339458383E0,-1.087340117E-1,-1.733330190E-1,-7.480044961E-1
4.341685922E0,-9.514226019E-2,-1.844813079E-1,-7.980954647E-1
4.343916757E0,-5.986479297E-2,-1.681406647E-1,-8.613200188E-1
4.346170236E0,-2.306016348E-2,-1.372919679E-1,-9.330966473E-1
4.348408030E0,2.183843218E-2,-8.124507964E-2,-1.024268270E0
4.350642404E0,6.154467165E-2,1.511891466E-2,-1.143387079E0
4.352862741E0,1.328631938E-1,2.067778856E-1,-1.284038782E0
4.355099008E0,2.414444834E-1,4.583016634E-1,-1.464396715E0
4.357335703E0,3.631593883E-1,7.435756922E-1,-1.692249417E0
4.359575022E0,4.723515511E-1,1.046106696E0,-1.977676272E0
4.361811777E0,5.453499556E-1,1.328631878E0,-2.279290915E0
4.364050425E0,5.531384945E-1,1.556637406E0,-2.558609009E0
4.366291208E0,4.844161272E-1,1.736384511E0,-2.773786306E0
4.368519907E0,4.164573848E-1,1.936748266E0,-2.853046179E0
4.370755990E0,3.824016452E-1,2.143831491E0,-2.858696699E0
4.372990671E0,3.568980098E-1,2.237752199E0,-2.800969839E0
4.375229441E0,3.608686328E-1,2.230421782E0,-2.677422285E0
4.377465036E0,3.678936064E-1,2.190104723E0,-2.563648701E0
4.379701731E0,3.779728711E-1,2.115884542E0,-2.479501963E0
4.381939035E0,3.900374472E-1,1.950645447E0,-2.394438982E0
4.384175058E0,4.198171496E-1,1.708437324E0,-2.236072302E0
4.386410410E0,4.692972302E-1,1.483028054E0,-2.035861254E0
4.388646555E0,5.002986193E-1,1.318552613E0,-1.855197787E0
4.390883249E0,4.778493345E-1,1.223104954E0,-1.730886698E0
4.393119394E0,4.431827366E-1,1.130253434E0,-1.617723942E0
4.395356699E0,4.069889784E-1,1.031445980E0,-1.466840148E0
4.397592234E0,3.755294085E-1,9.385944605E-1,-1.287551165E0
4.399829843E0,3.575088978E-1,8.976664543E-1,-1.117730737E0
4.402065134E0,3.217732608E-1,9.347765446E-1,-1.004109740E0
4.404301035E0,2.787072659E-1,1.019381404E0,-9.479101300E-1
4.406538157E0,2.521346211E-1,1.109636664E0,-9.257662892E-1
4.408774057E0,2.619084716E-1,1.182329655E0,-8.862127662E-1
4.411010324E0,3.182607889E-1,1.245554209E0,-8.242099285E-1
4.413248971E0,3.909537494E-1,1.335045934E0,-7.681630254E-1
4.415497080E0,4.679227769E-1,1.434311628E0,-7.414376736E-1
4.417734263E0,5.371032953E-1,1.508226275E0,-7.258606553E-1
4.419970529E0,6.093381047E-1,1.556484699E0,-7.092145681E-1
4.422199716E0,6.745479703E-1,1.562440634E0,-6.754642725E-1
4.424427439E0,7.423539758E-1,1.524719596E0,-6.224716902E-1
4.426674937E0,7.997753024E-1,1.461800575E0,-5.684100986E-1
4.428911631E0,8.333728909E-1,1.374904990E0,-5.317581892E-1
4.431150766E0,8.448266387E-1,1.272737741E0,-5.247332454E-1
4.433384531E0,8.352054954E-1,1.157589674E0,-5.400048494E-1
4.435621836E0,8.194757104E-1,1.041525245E0,-5.723807216E-1
4.437857920E0,7.988590002E-1,9.193521738E-1,-6.159048676E-1
4.440093271E0,7.745771408E-1,7.924449444E-1,-6.692028642E-1
4.442329293E0,7.464773059E-1,6.630942225E-1,-7.299839854E-1
4.444565377E0,7.234171629E-1,5.384777188E-1,-7.979426980E-1
4.446801950E0,6.966918111E-1,4.056145251E-1,-8.733845949E-1
4.449037424E0,6.760751009E-1,2.736676335E-1,-9.547823668E-1
4.451271555E0,6.579018831E-1,1.345430762E-1,-1.043663263E0
4.453512461E0,6.343835592E-1,-1.908953860E-2,-1.133765936E0
4.455748301E0,6.159048676E-1,-1.777617931E-1,-1.226311922E0
4.457982065E0,5.995642543E-1,-3.423899710E-1,-1.321454287E0
4.460209848E0,5.894849896E-1,-5.061018467E-1,-1.408960700E0
