"Time (s)","Acceleration x (m/s^2)","Acceleration y (m/s^2)","Acceleration z (m/s^2)"
1.661135500E-2,9.195018768E0,-1.424925923E0,2.090130568E0
1.899323000E-2,9.189635277E0,-1.372283816E0,2.152343988E0
2.137515700E-2,9.189635277E0,-1.323829174E0,2.233700037E0
2.375708400E-2,9.227322578E0,-1.280160069E0,2.343171597E0
2.613895900E-2,9.260822296E0,-1.269990563E0,2.458027124E0
2.852088600E-2,9.299106598E0,-1.287936807E0,2.558525562E0
3.090276100E-2,9.308678627E0,-1.263410330E0,2.711666346E0
3.328468800E-2,9.342177391E0,-1.277169108E0,2.788236618E0
3.566656300E-2,9.399605751E0,-1.261615753E0,2.827120066E0
3.804849000E-2,9.446864128E0,-1.251446247E0,2.874976397E0
4.043036500E-2,9.446864128E0,-1.241874933E0,2.913261652E0
4.281229200E-2,9.451649666E0,-1.236491084E0,2.951546669E0
4.519416700E-2,9.418747902E0,-1.256231904E0,2.908475876E0
4.757609400E-2,9.409176826E0,-1.271187067E0,2.870190859E0
4.995796900E-2,9.356534958E0,-1.281356573E0,2.817548752E0
5.233989600E-2,9.342177391E0,-1.281954765E0,2.783450842E0
5.472182300E-2,9.318847656E0,-1.301097274E0,2.759522676E0
5.710369800E-2,9.280562401E0,-1.292124271E0,2.730808735E0
5.948562500E-2,9.260822296E0,-1.278365493E0,2.716451883E0
6.186750000E-2,9.246464729E0,-1.283151150E0,2.726023197E0
6.424942700E-2,9.203393936E0,-1.274178028E0,2.711666346E0
6.663130200E-2,9.189037323E0,-1.245464206E0,2.697309256E0
6.901323000E-2,9.164510727E0,-1.212562919E0,2.697309256E0
7.139510500E-2,9.145966530E0,-1.212562919E0,2.682952404E0
7.377703200E-2,9.150154114E0,-1.188634634E0,2.687737942E0
7.615890700E-2,9.140582085E0,-1.198205948E0,2.678166628E0
7.854083400E-2,9.140582085E0,-1.169492126E0,2.668595552E0
8.092270900E-2,9.150154114E0,-1.159920812E0,2.653640270E0
8.330463600E-2,9.159127235E0,-1.135992527E0,2.658426046E0
8.568656300E-2,9.173483849E0,-1.155135155E0,2.653640270E0
8.806843800E-2,9.192625999E0,-1.149751306E0,2.677568436E0
9.045036500E-2,9.211769104E0,-1.144965649E0,2.682354212E0
9.283224000E-2,9.212367058E0,-1.173679471E0,2.720639229E0
9.521416700E-2,9.226723671E0,-1.168295622E0,2.725425005E0
9.759604200E-2,9.226723671E0,-1.173081279E0,2.744567633E0
9.997796900E-2,9.221938133E0,-1.192223907E0,2.764308453E0
1.023598440E-1,9.236295700E0,-1.206580877E0,2.769093990E0
1.047417710E-1,9.231510162E0,-1.206580877E0,2.749951363E0
1.071236460E-1,9.227322578E0,-1.225723386E0,2.759522676E0
1.095055730E-1,9.232108116E0,-1.235294700E0,2.764308453E0
1.118874480E-1,9.203393936E0,-1.259222865E0,2.778665304E0
1.142693750E-1,9.198608398E0,-1.259222865E0,2.783450842E0
1.166512500E-1,9.193822861E0,-1.264008522E0,2.793022156E0
1.190331770E-1,9.198608398E0,-1.259222865E0,2.793022156E0
1.214151050E-1,9.189037323E0,-1.249651670E0,2.788236618E0
1.237969800E-1,9.194420815E0,-1.273579836E0,2.764308453E0
1.261789070E-1,9.193822861E0,-1.249651670E0,2.778665304E0
1.285607820E-1,9.203393936E0,-1.254437327E0,2.788236618E0
1.309427090E-1,9.189037323E0,-1.259821177E0,2.759522676E0
1.333245840E-1,9.193822861E0,-1.249651670E0,2.764308453E0
1.357065110E-1,9.212965012E0,-1.230509043E0,2.773879766E0
1.380883860E-1,9.217751503E0,-1.225723386E0,2.793022156E0
1.404703130E-1,9.231510162E0,-1.197009563E0,2.812762976E0
1.428521880E-1,9.241081238E0,-1.186840057E0,2.860619545E0
1.452341150E-1,9.260223389E0,-1.182054400E0,2.879761934E0
1.476159900E-1,9.279366493E0,-1.186241865E0,2.927618504E0
1.499979170E-1,9.293723106E0,-1.161715388E0,2.974876642E0
1.523797920E-1,9.307481766E0,-1.156929731E0,3.013161898E0
1.547617190E-1,9.326624870E0,-1.132403374E0,3.051447153E0
1.571435940E-1,9.350552559E0,-1.118046403E0,3.075375319E0
1.595255210E-1,9.364909172E0,-1.112662554E0,3.099303484E0
1.619074480E-1,9.378668785E0,-1.098305583E0,3.108874798E0
1.642893230E-1,9.373882294E0,-1.069591761E0,3.104089260E0
1.666712500E-1,9.378668785E0,-1.079162955E0,3.123231649E0
1.690531250E-1,9.378668785E0,-1.055234790E0,3.117847919E0
1.714350520E-1,9.392427444E0,-1.049850941E0,3.141776085E0
1.738169270E-1,9.368498802E0,-1.036092162E0,3.136990547E0
1.761988550E-1,9.358927727E0,-1.012163997E0,3.165704250E0
1.785807300E-1,9.411569595E0,-1.011565804E0,3.117847919E0
1.809626570E-1,9.425328255E0,-9.972088337E-1,3.117847919E0
1.833445320E-1,9.420542717E0,-9.876375198E-1,3.122633457E0
1.857264590E-1,9.410971642E0,-9.589236975E-1,3.160918713E0
1.881083340E-1,9.410971642E0,-9.445667267E-1,3.165704250E0
1.904902610E-1,9.376873970E0,-9.212366939E-1,3.169891834E0
1.928721880E-1,9.386445045E0,-9.164510965E-1,3.179463148E0
1.952540630E-1,9.376873970E0,-8.973084688E-1,3.165106058E0
1.976359380E-1,9.376873970E0,-8.877372146E-1,3.145963669E0
2.000178650E-1,9.372088432E0,-8.781659007E-1,3.136392355E0
2.023997920E-1,9.372088432E0,-8.925228715E-1,3.117249727E0
2.047816670E-1,9.362516403E0,-8.787640929E-1,3.102892876E0
2.071635940E-1,9.366703987E0,-8.691928387E-1,3.074178934E0
2.095454690E-1,9.347561836E0,-8.739784956E-1,3.069393158E0
2.119273960E-1,9.352347374E0,-8.548358679E-1,3.059821844E0
2.143092710E-1,9.366703987E0,-8.500502706E-1,3.035893679E0
2.166911980E-1,9.361918449E0,-8.596215248E-1,3.026322365E0
2.190730730E-1,9.347561836E0,-8.650053740E-1,3.016751051E0
2.214550000E-1,9.352347374E0,-8.745766878E-1,3.011965513E0
2.238368750E-1,9.347561836E0,-8.931210637E-1,2.988037348E0
2.262188020E-1,9.338588715E0,-9.026923180E-1,2.988037348E0
2.286007300E-1,9.343374252E0,-9.170492887E-1,2.992822886E0
2.309826050E-1,9.348159790E0,-9.409775138E-1,2.997608662E0
2.333645320E-1,9.363115311E0,-9.601200819E-1,3.017349243E0
2.357464070E-1,9.377471924E0,-9.690931439E-1,3.065205812E0
2.381283340E-1,9.396614075E0,-1.001994491E0,3.065205812E0
2.405102090E-1,9.382257462E0,-1.012163997E0,3.065205812E0
2.428921360E-1,9.378069878E0,-1.064806104E0,3.022135019E0
2.452740110E-1,9.387641907E0,-1.064806104E0,2.993421078E0
2.476559380E-1,9.373882294E0,-1.094118118E0,2.955734253E0
2.500378130E-1,9.344570160E0,-1.070189953E0,2.926422119E0
2.524197400E-1,9.344570160E0,-1.061216831E0,2.902493954E0
2.548016150E-1,9.315856934E0,-1.037288666E0,2.897708178E0
2.571835420E-1,9.320642471E0,-1.027717352E0,2.873780012E0
2.595654690E-1,9.296713829E0,-1.018744230E0,2.892922640E0
2.619473440E-1,9.301499367E0,-1.008574724E0,2.912065268E0
2.643292710E-1,9.315258980E0,-9.894321561E-1,2.950350285E0
2.667111460E-1,9.334401131E0,-9.888339639E-1,2.988635540E0
2.690930730E-1,9.348757744E0,-9.696913958E-1,3.050848961E0
2.714749480E-1,9.381659508E0,-9.445667267E-1,3.126821041E0
2.738568750E-1,9.382257462E0,-9.637092948E-1,3.156133175E0
2.762387500E-1,9.372686386E0,-9.828519225E-1,3.165704250E0
2.786206770E-1,9.358927727E0,-1.006780148E0,3.175275564E0
2.810025520E-1,9.325428009E0,-1.016949654E0,3.180061340E0
2.833844800E-1,9.306285858E0,-1.021735311E0,3.208775282E0
2.857663550E-1,9.291928291E0,-1.021735311E0,3.242274761E0
2.881482820E-1,9.326025963E0,-1.045065284E0,3.247060299E0
2.905301570E-1,9.306883812E0,-1.093519926E0,3.218944550E0
2.929120840E-1,9.269196510E0,-1.098903775E0,3.190230846E0
2.952939590E-1,9.254839897E0,-1.118046403E0,3.147160053E0
2.976758860E-1,9.254839897E0,-1.122832060E0,3.118446112E0
3.000578130E-1,9.235696793E0,-1.147358418E0,3.075375319E0
3.024396880E-1,9.206983566E0,-1.147956610E0,3.041875839E0
3.048216150E-1,9.211769104E0,-1.152742267E0,3.008376360E0
3.072034900E-1,9.211769104E0,-1.157527924E0,2.970091105E0
3.095854170E-1,9.183652878E0,-1.158126116E0,2.931805849E0
3.119672920E-1,9.183652878E0,-1.167697430E0,2.912663460E0
3.143492190E-1,9.198010445E0,-1.177268744E0,2.893520832E0
3.167310940E-1,9.188439369E0,-1.182054400E0,2.889333248E0
3.191130210E-1,9.178867340E0,-1.186840057E0,2.894119024E0
3.214948960E-1,9.183652878E0,-1.210768223E0,2.918047190E0
3.238768230E-1,9.184251785E0,-1.220339537E0,2.913261652E0
3.262586980E-1,9.184251785E0,-1.220339537E0,2.898904562E0
3.286406250E-1,9.193822861E0,-1.244267821E0,2.903690338E0
3.310225000E-1,9.208179474E0,-1.244267821E0,2.908475876E0
3.334044270E-1,9.227322578E0,-1.272383451E0,2.927618504E0
3.357863020E-1,9.227920532E0,-1.334596872E0,2.937788010E0
3.381682300E-1,9.224330902E0,-1.392024517E0,2.947359324E0
3.405501570E-1,9.189635277E0,-1.320239902E0,2.976073265E0
3.429320320E-1,9.189037323E0,-1.229312658E0,2.999403238E0
3.453139590E-1,9.202795982E0,-1.171884894E0,3.032304525E0
3.476958340E-1,9.197412491E0,-1.147956610E0,3.065804005E0
3.500777610E-1,9.230911255E0,-1.128215909E0,3.084946632E0
3.524596360E-1,9.240483284E0,-1.109073281E0,3.123231649E0
3.548415630E-1,9.240483284E0,-1.132403374E0,3.132802963E0
3.572234380E-1,9.254839897E0,-1.118046403E0,3.137588739E0
3.596053650E-1,9.273982048E0,-1.108475089E0,3.151945591E0
3.619872400E-1,9.273384094E0,-1.089332461E0,3.151945591E0
3.643691670E-1,9.282955170E0,-1.074975610E0,3.142374277E0
3.667510420E-1,9.292527199E0,-1.060618639E0,3.147160053E0
3.691329690E-1,9.282357216E0,-1.041476011E0,3.160918713E0
3.715148440E-1,9.273384094E0,-1.051047325E0,3.151347399E0
3.738967710E-1,9.306883812E0,-1.065404296E0,3.108874798E0
3.762786980E-1,9.330811501E0,-1.060020447E0,3.108276606E0
3.786605730E-1,9.315856934E0,-1.045663476E0,3.117847919E0
3.810425000E-1,9.297312737E0,-1.060618639E0,3.113660574E0
3.834243750E-1,9.297312737E0,-1.055832982E0,3.113062143E0
3.858063020E-1,9.311669350E0,-1.079761267E0,3.104089260E0
3.881881770E-1,9.321240425E0,-1.093519926E0,3.094517946E0
3.905701050E-1,9.316454887E0,-1.103689432E0,3.070589542E0
3.929519800E-1,9.321838379E0,-1.127617717E0,3.056232691E0
3.953339070E-1,9.345767021E0,-1.136590719E0,3.046661377E0
3.977157820E-1,9.336195946E0,-1.146162033E0,3.056232691E0
4.000977090E-1,9.336195946E0,-1.165304661E0,3.061018467E0
4.024795840E-1,9.336793900E0,-1.179661512E0,3.041875839E0
4.048615110E-1,9.351150513E0,-1.203589797E0,3.042474031E0
4.072434380E-1,9.355937004E0,-1.194018483E0,3.027518749E0
4.096253130E-1,9.351150513E0,-1.217946768E0,3.028116941E0
4.120072400E-1,9.360722542E0,-1.222732425E0,3.013760090E0
4.143891150E-1,9.365508080E0,-1.232303619E0,3.018545866E0
4.167710420E-1,9.341579437E0,-1.213161111E0,3.008974552E0
4.191529170E-1,9.322437286E0,-1.199402332E0,3.042474031E0
4.215348440E-1,9.312865257E0,-1.204187989E0,3.018545866E0
4.239167190E-1,9.303294182E0,-1.213759303E0,3.013760090E0
4.262986460E-1,9.298508644E0,-1.218544960E0,3.004188776E0
4.286805210E-1,9.303294182E0,-1.208973646E0,2.989831924E0
4.310624480E-1,9.317651749E0,-1.208973646E0,2.989831924E0
4.334443230E-1,9.308079720E0,-1.199402332E0,3.018545866E0
4.358262500E-1,9.274580956E0,-1.185045362E0,3.051447153E0
4.382081770E-1,9.274580956E0,-1.175474167E0,3.056232691E0
4.405900520E-1,9.284152031E0,-1.175474167E0,3.041875839E0
4.429719800E-1,9.273982048E0,-1.161117196E0,3.056232691E0
4.453538550E-1,9.259625435E0,-1.146760225E0,3.070589542E0
4.477357820E-1,9.269196510E0,-1.156331539E0,3.089732170E0
4.501176570E-1,9.250054359E0,-1.152144074E0,3.037090063E0
4.524995840E-1,9.254839897E0,-1.161715388E0,3.032304525E0
4.548814590E-1,9.245268822E0,-1.152144074E0,3.027518749E0
4.572633860E-1,9.145368576E0,-1.147956610E0,3.089732170E0
4.596452610E-1,9.111868858E0,-1.143769264E0,3.041875839E0
4.620271880E-1,9.125627518E0,-1.124626637E0,3.075375319E0
4.644090630E-1,9.206983566E0,-1.099501967E0,3.180659533E0
4.667909900E-1,9.306883812E0,-1.054636598E0,3.280559778E0
4.691728650E-1,9.363713264E0,-9.966106415E-1,3.342773199E0
4.715547920E-1,9.401400566E0,-9.481559992E-1,3.376272678E0
4.739366670E-1,9.410373688E0,-9.290133715E-1,3.399602890E0
4.763185940E-1,9.419944763E0,-8.859425783E-1,3.370888948E0
4.787004690E-1,9.424132347E0,-8.715856671E-1,3.337389469E0
4.810823960E-1,9.419346809E0,-8.715856671E-1,3.303889751E0
4.834643230E-1,9.433703423E0,-8.859425783E-1,3.265604734E0
4.858461980E-1,9.409774780E0,-8.769695163E-1,3.241676569E0
4.882281250E-1,9.381061554E0,-8.775677085E-1,3.203391314E0
4.906100000E-1,9.347561836E0,-8.781659007E-1,3.184248686E0
4.929919270E-1,9.342776299E0,-8.590233326E-1,3.179463148E0
4.953738020E-1,9.328418732E0,-8.685946465E-1,3.165106058E0
4.977557300E-1,9.319445610E0,-8.925228715E-1,3.155534744E0
5.001376050E-1,9.314660072E0,-8.835497499E-1,3.150749207E0
5.025195320E-1,9.290732384E0,-8.787640929E-1,3.165106058E0
5.049014590E-1,9.319445610E0,-9.020941257E-1,3.169891834E0
5.072833340E-1,9.319445610E0,-8.877372146E-1,3.203391314E0
5.096652090E-1,9.285946846E0,-8.835497499E-1,3.203391314E0
5.120471360E-1,9.275776863E0,-8.548358679E-1,3.222533941E0
5.144290630E-1,9.262018204E0,-8.739784956E-1,3.241676569E0
5.168109380E-1,9.247062683E0,-8.356932998E-1,3.241676569E0
5.191928650E-1,9.213563919E0,-8.123632669E-1,3.241676569E0
5.215747400E-1,9.203991890E0,-8.219345808E-1,3.241676569E0
5.239566670E-1,9.175278664E0,-8.177471161E-1,3.222533941E0
5.263385420E-1,9.160921097E0,-8.225327730E-1,3.212962627E0
5.287204690E-1,9.146564484E0,-8.177471161E-1,3.203391314E0
5.311023440E-1,9.136993408E0,-8.039883971E-1,3.212962627E0
5.334842710E-1,9.146564484E0,-8.225327730E-1,3.208176851E0
5.358661460E-1,9.151947975E0,-8.464609981E-1,3.212962627E0
5.382480730E-1,9.136993408E0,-8.231309652E-1,3.203391314E0
5.406299480E-1,9.113663673E0,-8.614161611E-1,3.193820000E0
5.430118750E-1,9.118449211E0,-8.757730722E-1,3.189034462E0
5.453937500E-1,9.104091644E0,-8.901300430E-1,3.189034462E0
5.477756770E-1,9.089735031E0,-8.853443861E-1,3.179463148E0
5.501576050E-1,9.075976372E0,-9.098708034E-1,3.165704250E0
5.525394800E-1,9.104690552E0,-9.379864931E-1,3.151347399E0
5.549214070E-1,9.095118523E0,-9.337990284E-1,3.136990547E0
5.573032820E-1,9.109476089E0,-9.523434043E-1,3.117847919E0
5.596852090E-1,9.100502968E0,-9.960124493E-1,3.103491068E0
5.620670840E-1,9.124430656E0,-1.004985452E0,3.108276606E0
5.644490110E-1,9.143573761E0,-1.004985452E0,3.089133978E0
5.668308860E-1,9.157930374E0,-1.009771109E0,3.089133978E0
5.692128130E-1,9.177073479E0,-1.028315544E0,3.093919754E0
5.715946880E-1,9.172286987E0,-1.023529887E0,3.113062143E0
5.739766150E-1,9.196813583E0,-1.032503009E0,3.136990547E0
5.763584900E-1,9.215357780E0,-1.027717352E0,3.151347399E0
5.787404170E-1,9.229715347E0,-1.032503009E0,3.175275564E0
5.811223440E-1,9.258428574E0,-1.036690354E0,3.199203968E0
5.835042190E-1,9.258428574E0,-1.007976532E0,3.227917671E0
5.858860940E-1,9.263215065E0,-9.984052777E-1,3.232703447E0
5.882680210E-1,9.268000603E0,-9.930213690E-1,3.247060299E0
5.906499480E-1,9.268000603E0,-9.882357717E-1,3.237488985E0
5.930318230E-1,9.281759262E0,-9.595218897E-1,3.227917671E0
5.954137500E-1,9.291330338E0,-9.547362328E-1,3.223132133E0
5.977956250E-1,9.286544800E0,-9.547362328E-1,3.213560820E0
6.001775520E-1,9.296115875E0,-9.499505758E-1,3.199203968E0
6.025594270E-1,9.296115875E0,-9.595218897E-1,3.184846878E0
6.049413550E-1,9.291330338E0,-9.601200819E-1,3.151347399E0
6.073232300E-1,9.281759262E0,-9.649057388E-1,3.127419233E0
6.097051570E-1,9.286544800E0,-9.696913958E-1,3.108276606E0
6.120870320E-1,9.276973724E0,-9.750752449E-1,3.084348440E0
6.144689590E-1,9.276973724E0,-9.750752449E-1,3.055634499E0
6.168508340E-1,9.253045082E0,-9.894321561E-1,3.046063185E0
6.192327610E-1,9.248857498E0,-9.942178130E-1,3.017349243E0
6.216146880E-1,9.244071960E0,-1.013958573E0,3.007778168E0
6.239965630E-1,9.229715347E0,-1.033101201E0,2.974278450E0
6.263784900E-1,9.206384659E0,-1.057029366E0,2.970091105E0
6.287603650E-1,9.211171150E0,-1.071386337E0,2.960519791E0
6.311422920E-1,9.220742226E0,-1.076171994E0,2.955734253E0
6.335241670E-1,9.197412491E0,-1.110269666E0,2.936591625E0
6.359060940E-1,9.197412491E0,-1.110269666E0,2.917448997E0
6.382879690E-1,9.197412491E0,-1.129412293E0,2.927020311E0
6.406698960E-1,9.197412491E0,-1.148554921E0,2.927020311E0
6.430517710E-1,9.193224907E0,-1.162911773E0,2.922234535E0
6.454336980E-1,9.193224907E0,-1.177268744E0,2.931805849E0
6.478155730E-1,9.178867340E0,-1.186840057E0,2.941975355E0
6.501975000E-1,9.169296265E0,-1.182054400E0,2.951546669E0
6.525793750E-1,9.169296265E0,-1.182054400E0,2.970689297E0
6.549613020E-1,9.174081802E0,-1.191625714E0,2.970689297E0
6.573431770E-1,9.160323143E0,-1.210768223E0,2.999403238E0
6.597251050E-1,9.179466248E0,-1.210170031E0,3.013760090E0
6.621069800E-1,9.188439369E0,-1.200598717E0,3.013760090E0
6.644889070E-1,9.184251785E0,-1.210170031E0,3.013760090E0
6.668708340E-1,9.188439369E0,-1.205384374E0,3.028116941E0
6.692527090E-1,9.188439369E0,-1.200598717E0,3.052045345E0
6.716346360E-1,9.178867340E0,-1.195813060E0,3.047259569E0
6.740165110E-1,9.179466248E0,-1.210170031E0,3.061616659E0
6.763984380E-1,9.183652878E0,-1.195813060E0,3.056830883E0
6.787803130E-1,9.188439369E0,-1.200598717E0,3.066402197E0
6.811622400E-1,9.193224907E0,-1.205384374E0,3.056830883E0
6.835441150E-1,9.217751503E0,-1.223928809E0,3.032902718E0
6.859260420E-1,9.217152596E0,-1.190429211E0,3.028116941E0
6.883079170E-1,9.217152596E0,-1.185643673E0,3.042474031E0
6.906898440E-1,9.236295700E0,-1.185643673E0,3.023331404E0
6.930717190E-1,9.255437851E0,-1.190429211E0,3.028116941E0
6.954536460E-1,9.274580956E0,-1.180259824E0,3.032304525E0
6.978355210E-1,9.288937569E0,-1.180259824E0,3.022733212E0
7.002174480E-1,9.279366493E0,-1.189831018E0,3.013161898E0
7.025993230E-1,9.303294182E0,-1.208973646E0,3.004188776E0
7.049812500E-1,9.312865257E0,-1.199402332E0,3.013760090E0
7.073631770E-1,9.303294182E0,-1.199402332E0,3.004188776E0
7.097450520E-1,9.308079720E0,-1.204187989E0,2.989831924E0
7.121269800E-1,9.322437286E0,-1.194616675E0,2.994019270E0
7.145088550E-1,9.317651749E0,-1.208973646E0,2.980260611E0
7.168907820E-1,9.317651749E0,-1.213759303E0,2.970689297E0
7.192726570E-1,9.308678627E0,-1.237687469E0,2.980260611E0
7.216545840E-1,9.308678627E0,-1.242473125E0,2.980260611E0
7.240364590E-1,9.289535522E0,-1.237687469E0,2.985046148E0
7.264183860E-1,9.294321060E0,-1.247258782E0,2.980260611E0
7.288002610E-1,9.279964447E0,-1.261615753E0,3.004188776E0
7.311821880E-1,9.265607834E0,-1.276570916E0,2.970689297E0
7.335640630E-1,9.251849174E0,-1.290927768E0,2.975475073E0
7.359459900E-1,9.256634712E0,-1.300499082E0,2.980260611E0
7.383279170E-1,9.270991325E0,-1.290927768E0,2.980260611E0
7.407097920E-1,9.256634712E0,-1.305284739E0,2.951546669E0
7.430917190E-1,9.237491608E0,-1.310070395E0,2.965903759E0
7.454735940E-1,9.227920532E0,-1.296311617E0,2.956332445E0
7.478555210E-1,9.227920532E0,-1.301097274E0,2.946761131E0
7.502373960E-1,9.203991890E0,-1.291526079E0,2.956332445E0
7.526193230E-1,9.199206352E0,-1.281954765E0,2.961117983E0
7.550011980E-1,9.189635277E0,-1.296311617E0,2.975475073E0
7.573831250E-1,9.189635277E0,-1.286740422E0,2.985046148E0
7.597650000E-1,9.189635277E0,-1.296311617E0,2.975475073E0
7.621469270E-1,9.199206352E0,-1.272383451E0,2.985046148E0
7.645288020E-1,9.189037323E0,-1.262812138E0,3.008974552E0
7.669107300E-1,9.189037323E0,-1.234098315E0,3.032902718E0
7.692926570E-1,9.208179474E0,-1.214955688E0,3.023331404E0
7.716745320E-1,9.217152596E0,-1.200000525E0,3.028116941E0
7.740564590E-1,9.217152596E0,-1.171286702E0,3.027518749E0
7.764383340E-1,9.221340179E0,-1.152144074E0,3.032304525E0
7.788202610E-1,9.230911255E0,-1.137787223E0,3.046661377E0
7.812021360E-1,9.240483284E0,-1.123430252E0,3.056232691E0
7.835840630E-1,9.240483284E0,-1.104287624E0,3.051447153E0
7.859659380E-1,9.263813019E0,-1.089332461E0,3.070589542E0
7.883478650E-1,9.273384094E0,-1.070189953E0,3.075375319E0
7.907297400E-1,9.287142754E0,-1.051047325E0,3.093919754E0
7.931116670E-1,9.277571678E0,-1.041476011E0,3.093919754E0
7.954935420E-1,9.277571678E0,-1.022333503E0,3.089133978E0
7.978754690E-1,9.277571678E0,-1.017547846E0,3.079562664E0
8.002573440E-1,9.268000603E0,-9.990034699E-1,3.074777126E0
8.026392710E-1,9.267401695E0,-9.750752449E-1,3.079562664E0
8.050211460E-1,9.253045082E0,-9.415757060E-1,3.065205812E0
8.074030730E-1,9.257830620E0,-9.655039310E-1,3.074777126E0
8.097849480E-1,9.257830620E0,-9.511470199E-1,3.074777126E0
8.121668750E-1,9.243474007E0,-9.607182741E-1,3.074777126E0
8.145488020E-1,9.243474007E0,-9.702895880E-1,3.065205812E0
8.169306770E-1,9.229117393E0,-9.661021233E-1,3.060420275E0
8.193126050E-1,9.229117393E0,-9.661021233E-1,3.060420275E0
8.216944800E-1,9.205188751E0,-9.708877802E-1,3.055634499E0
8.240764070E-1,9.191430092E0,-9.906286001E-1,3.026920557E0
8.264582820E-1,9.167501450E0,-1.000199914E0,3.031706333E0
8.288402090E-1,9.134002686E0,-9.768698215E-1,3.017349243E0
8.312220840E-1,9.105288506E0,-9.816554785E-1,2.988635540E0
8.336040110E-1,9.071788788E0,-9.774680734E-1,2.964707375E0
8.359858860E-1,9.057432175E0,-9.918249846E-1,2.969492912E0
8.383678130E-1,9.033503532E0,-1.011565804E0,2.955136061E0
8.407496880E-1,9.010173798E0,-1.035493970E0,2.950948477E0
8.431316150E-1,8.981459618E0,-1.045663476E0,2.941377163E0
8.455134900E-1,8.986245155E0,-1.040877819E0,2.950948477E0
8.478954170E-1,8.967103004E0,-1.036092162E0,2.946162939E0
8.502773440E-1,8.957531929E0,-1.031306505E0,2.970091105E0
8.526592190E-1,8.952746391E0,-1.031306505E0,2.994019270E0
8.550411460E-1,8.962317467E0,-1.045663476E0,3.013161898E0
8.574230210E-1,8.958129883E0,-1.074377418E0,3.027518749E0
8.598049480E-1,8.977272034E0,-1.107278705E0,3.032304525E0
8.621868230E-1,8.986844063E0,-1.092921734E0,3.051447153E0
8.645687500E-1,8.992227554E0,-1.111466169E0,3.080160856E0
8.669506250E-1,9.010771751E0,-1.111466169E0,3.094517946E0
8.693325520E-1,9.016156197E0,-1.144965649E0,3.090330362E0
8.717144270E-1,9.035298347E0,-1.140179992E0,3.084946632E0
8.740963550E-1,9.044869423E0,-1.163509965E0,3.080759048E0
8.764782300E-1,9.078967094E0,-1.187438250E0,3.080759048E0
8.788601570E-1,9.126823425E0,-1.205982566E0,3.075973511E0
8.812420320E-1,9.150752068E0,-1.219741344E0,3.056830883E0
8.836239590E-1,9.189037323E0,-1.262812138E0,3.042474031E0
8.860058340E-1,9.232706070E0,-1.271785259E0,3.028116941E0
8.883877610E-1,9.285347939E0,-1.299900889E0,3.004188776E0
8.907696880E-1,9.314062119E0,-1.323829174E0,2.994617462E0
8.931515630E-1,9.342776299E0,-1.337587833E0,2.966501951E0
8.955334900E-1,9.390632629E0,-1.351944804E0,2.956930637E0
8.979153650E-1,9.414560318E0,-1.356132269E0,2.928216696E0
9.002972920E-1,9.433703423E0,-1.341775298E0,2.884547710E0
9.026791670E-1,9.448060036E0,-1.341775298E0,2.860619545E0
9.050610940E-1,9.457631111E0,-1.327418327E0,2.836691141E0
9.074429690E-1,9.461818695E0,-1.313659668E0,2.788236618E0
9.098248960E-1,9.466604233E0,-1.304088354E0,2.769093990E0
9.122067710E-1,9.452247620E0,-1.294517040E0,2.721237659E0
9.145886980E-1,9.437292099E0,-1.275972724E0,2.692523718E0
9.169705730E-1,9.432506561E0,-1.247258782E0,2.654238462E0
9.193525000E-1,9.427123070E0,-1.195214868E0,2.648854733E0
9.217344270E-1,9.412766457E0,-1.180858016E0,2.639283419E0
9.241163020E-1,9.421739578E0,-1.161715388E0,2.605783939E0
9.264982300E-1,9.402596474E0,-1.138385415E0,2.581855536E0
9.288801050E-1,9.397810936E0,-1.124028444E0,2.567498684E0
9.312620320E-1,9.401998520E0,-1.104885817E0,2.548356056E0
9.336439070E-1,9.411569595E0,-1.100100160E0,2.514258385E0
9.360258340E-1,9.411569595E0,-1.081555843E0,2.471187592E0
9.384077090E-1,9.406186104E0,-1.062413216E0,2.442473650E0
9.407896360E-1,9.425328255E0,-1.052842021E0,2.432902336E0
9.431715110E-1,9.420542717E0,-1.024128079E0,2.418545485E0
9.455534380E-1,9.410971642E0,-1.024128079E0,2.408974171E0
9.479353130E-1,9.410971642E0,-1.009771109E0,2.404188633E0
9.503172400E-1,9.424730301E0,-9.906286001E-1,2.370688915E0
9.526991150E-1,9.443274498E0,-9.475577474E-1,2.331805706E0
9.550810420E-1,9.442676544E0,-8.955138922E-1,2.298306227E0
9.574629170E-1,9.466604233E0,-8.949156404E-1,2.288734913E0
9.598448440E-1,9.495318413E0,-8.757730722E-1,2.279163599E0
9.622267190E-1,9.513862610E0,-8.566305041E-1,2.278565407E0
9.646086460E-1,9.543174744E0,-8.464609981E-1,2.273779631E0
9.669905210E-1,9.585647583E0,-8.225327730E-1,2.278565407E0
9.693724480E-1,9.619745255E0,-8.410771489E-1,2.302493572E0
9.717543750E-1,9.643673897E0,-8.356932998E-1,2.316850424E0
9.741362500E-1,9.681360245E0,-8.303094506E-1,2.316850424E0
9.765181770E-1,9.724431038E0,-8.398807645E-1,2.331207514E0
9.789000520E-1,9.748957634E0,-8.823533654E-1,2.345564365E0
9.812819800E-1,9.796813965E0,-9.056833982E-1,2.359921217E0
9.836638550E-1,9.826126099E0,-9.385846853E-1,2.350948334E0
9.860457820E-1,9.845269203E0,-9.433703423E-1,2.350948334E0
9.884276570E-1,9.873982430E0,-9.475577474E-1,2.346162558E0
9.908095840E-1,9.902696609E0,-9.667003751E-1,2.317448616E0
9.931914590E-1,9.917053223E0,-9.954141974E-1,2.288734913E0
9.955733860E-1,9.945767403E0,-1.000199914E0,2.250449657E0
9.979552610E-1,9.988838196E0,-9.948160052E-1,2.188236237E0
1.000337188E0,1.000798035E1,-1.004387259E0,2.140379906E0
1.002719115E0,1.002712345E1,-1.013958573E0,2.116451740E0
1.005100990E0,1.003729248E1,-1.042672515E0,2.068595171E0
1.007482917E0,1.004686451E1,-1.080957651E0,2.025524378E0
1.009864792E0,1.007617569E1,-1.119242787E0,2.001596212E0
1.012246719E0,1.008096218E1,-1.152742267E0,1.987837434E0
1.014628594E0,1.009113121E1,-1.181456208E0,1.973480463E0
1.017010521E0,1.011087227E1,-1.233500123E0,1.959123492E0
1.019392396E0,1.010548782E1,-1.224527001E0,1.949552298E0
1.021774323E0,1.011984539E1,-1.228714466E0,1.968694806E0
1.024156198E0,1.011027431E1,-1.214357495E0,2.006979942E0
1.026538125E0,1.011027431E1,-1.209571838E0,2.040479422E0
1.028920000E0,1.010548782E1,-1.213759303E0,2.097907305E0
1.031301927E0,1.008694363E1,-1.218544960E0,2.150549412E0
1.033683802E0,1.006780148E1,-1.218544960E0,2.203191519E0
1.036065730E0,1.005344391E1,-1.232901812E0,2.236690998E0
1.038447657E0,1.002951622E1,-1.247258782E0,2.285145521E0
1.040829532E0,1.004925728E1,-1.256830096E0,2.309073925E0
1.043211459E0,1.001575756E1,-1.261615753E0,2.347358942E0
1.045593334E0,1.000139999E1,-1.280758262E0,2.366501570E0
1.047975261E0,9.982257843E0,-1.275972724E0,2.366501570E0
1.050357136E0,9.953543663E0,-1.252642632E0,2.361716032E0
1.052739063E0,9.929615974E0,-1.238883972E0,2.366501570E0
1.055120938E0,9.876974106E0,-1.234098315E0,2.366501570E0
1.057502865E0,9.833903313E0,-1.220339537E0,2.366501570E0
1.059884740E0,9.781260490E0,-1.220937729E0,2.371287346E0
1.062266667E0,9.704689980E0,-1.231107235E0,2.390429735E0
1.064648542E0,9.638289452E0,-1.250848055E0,2.404786825E0
1.067030469E0,9.576674461E0,-1.271187067E0,2.410170555E0
1.069412344E0,9.509077072E0,-1.310070395E0,2.419741869E0
1.071794271E0,9.457033157E0,-1.324427366E0,2.438884497E0
1.074176146E0,9.404989243E0,-1.377667665E0,2.453839540E0
1.076558073E0,9.329017639E0,-1.392622828E0,2.487339020E0
1.078940000E0,9.276374817E0,-1.402792215E0,2.492124796E0
1.081321875E0,9.233304024E0,-1.403390527E0,2.520838737E0
1.083703802E0,9.161520004E0,-1.375274777E0,2.525624275E0
1.086085677E0,9.156135559E0,-1.322632670E0,2.544766903E0
1.088467605E0,9.131608963E0,-1.246660590E0,2.558525562E0
1.090849480E0,9.111868858E0,-1.203589797E0,2.582453728E0
1.093231407E0,9.120841980E0,-1.141376376E0,2.581855536E0
1.095613282E0,9.135198593E0,-1.122233868E0,2.591426849E0
1.097995209E0,9.153742790E0,-1.073779106E0,2.586641312E0
1.100377084E0,9.172286987E0,-1.016351461E0,2.571686029E0
1.102759011E0,9.185447693E0,-9.445667267E-1,2.566900492E0
1.105140886E0,9.199805260E0,-9.206385016E-1,2.547159672E0
1.107522813E0,9.222537041E0,-8.488538265E-1,2.571087837E0
1.109904688E0,9.217751503E0,-8.057830334E-1,2.546561480E0
1.112286615E0,9.265008926E0,-7.818548083E-1,2.522633314E0
1.114668490E0,9.259625435E0,-7.339983582E-1,2.513062000E0
1.117050417E0,9.287740707E0,-6.909275651E-1,2.493321180E0
1.119432292E0,9.297312737E0,-6.664010882E-1,2.498106956E0
1.121814219E0,9.287740707E0,-6.759724021E-1,2.507678032E0
1.124196146E0,9.302098274E0,-6.855437160E-1,2.522035122E0
1.126578021E0,9.302098274E0,-6.855437160E-1,2.569891453E0
1.128959948E0,9.321240425E0,-6.945167780E-1,2.598605394E0
1.131341823E0,9.336195946E0,-7.088736892E-1,2.637488842E0
1.133723750E0,9.355338097E0,-7.034898400E-1,2.656631231E0
1.136105625E0,9.407979965E0,-7.316055298E-1,2.690130949E0
1.138487552E0,9.446265221E0,-7.166503668E-1,2.694318295E0
1.140869427E0,9.488738060E0,-6.975077987E-1,2.670390129E0
1.143251355E0,9.536594391E0,-6.777670383E-1,2.684746981E0
1.145633230E0,9.555737495E0,-6.681957245E-1,2.656033039E0
1.148015157E0,9.579665184E0,-6.580262184E-1,2.651247501E0
1.150397032E0,9.627521515E0,-6.574280262E-1,2.656033039E0
1.152778959E0,9.651450157E0,-6.813562512E-1,2.632104874E0
1.155160886E0,9.675378799E0,-6.813562512E-1,2.603390932E0
1.157542761E0,9.680164337E0,-6.861419082E-1,2.579462767E0
1.159924688E0,9.689735413E0,-6.861419082E-1,2.555534601E0
1.162306563E0,9.675976753E0,-7.244270444E-1,2.526820660E0
1.164688490E0,9.704689980E0,-7.339983582E-1,2.478964329E0
1.167070365E0,9.699904442E0,-7.627122402E-1,2.464607239E0
1.169452292E0,9.705288887E0,-7.866404653E-1,2.417349100E0
1.171834167E0,9.695717812E0,-8.159525394E-1,2.388635159E0
1.174216094E0,9.671789169E0,-8.207381964E-1,2.379063845E0
1.176597969E0,9.667601585E0,-8.398807645E-1,2.369492531E0
1.178979896E0,9.662816048E0,-8.638089895E-1,2.379063845E0
1.181361771E0,9.648459435E0,-8.829515576E-1,2.383849621E0
1.183743698E0,9.639486313E0,-9.308080077E-1,2.403590441E0
1.186125573E0,9.616155624E0,-9.649057388E-1,2.408375978E0
1.188507500E0,9.616155624E0,-9.834501147E-1,2.437089920E0
1.190889375E0,9.597611427E0,-1.026520967E0,2.452044964E0
1.193271302E0,9.583852768E0,-1.069591761E0,2.499901533E0
1.195653177E0,9.570094109E0,-1.093519926E0,2.519043922E0
1.198035105E0,9.565906525E0,-1.150947690E0,2.524427891E0
1.200417032E0,9.561120987E0,-1.179661512E0,2.538784742E0
1.202798907E0,9.537193298E0,-1.232303619E0,2.529213428E0
1.205180834E0,9.557532310E0,-1.261017561E0,2.533999205E0
1.207562709E0,9.543174744E0,-1.284945726E0,2.558525562E0
1.209944636E0,9.553344727E0,-1.313659668E0,2.548954248E0
1.212326511E0,9.577272415E0,-1.336989641E0,2.539382935E0
1.214708438E0,9.586843491E0,-1.336989641E0,2.525026083E0
1.217090313E0,9.610772133E0,-1.351346612E0,2.515454769E0
1.219472240E0,9.634700775E0,-1.379462242E0,2.510669231E0
1.221854115E0,9.644271851E0,-1.384846091E0,2.462812662E0
1.224236042E0,9.640084267E0,-1.403988719E0,2.438884497E0
1.226617917E0,9.664012909E0,-1.442273855E0,2.405983210E0
1.228999844E0,9.678967476E0,-1.470987678E0,2.386840582E0
1.231381719E0,9.674181938E0,-1.485344648E0,2.367697954E0
1.233763646E0,9.664610863E0,-1.470987678E0,2.334198475E0
1.236145521E0,9.650253296E0,-1.494915962E0,2.329412937E0
1.238527448E0,9.646066666E0,-1.514058471E0,2.329412937E0
1.240909375E0,9.626923561E0,-1.524227977E0,2.315055847E0
1.243291250E0,9.617352486E0,-1.529013634E0,2.291127682E0
1.245673177E0,9.588638306E0,-1.505683661E0,2.305484533E0
1.248055052E0,9.578469276E0,-1.481755376E0,2.310270309E0
1.250436980E0,9.564111710E0,-1.472184181E0,2.281556368E0
1.252818855E0,9.534799576E0,-1.444068432E0,2.281556368E0
1.255200782E0,9.519845009E0,-1.424925923E0,2.295913219E0
1.257582657E0,9.519845009E0,-1.415354609E0,2.281556368E0
1.259964584E0,9.495916367E0,-1.401595831E0,2.305484533E0
1.262346459E0,9.500701904E0,-1.382453322E0,2.309672117E0
1.264728386E0,9.486345291E0,-1.377667665E0,2.333600283E0
1.267110313E0,9.476176262E0,-1.358525038E0,2.338385820E0
1.269492188E0,9.490532875E0,-1.329213023E0,2.376671076E0
1.271874063E0,9.476176262E0,-1.315454245E0,2.386242390E0
1.274255990E0,9.461220741E0,-1.281954765E0,2.424527645E0
1.276637917E0,9.474979401E0,-1.243071318E0,2.433500528E0
1.279019792E0,9.455837250E0,-1.214955688E0,2.476571321E0
1.281401667E0,9.445667267E0,-1.166501045E0,2.519642353E0
1.283783594E0,9.436096191E0,-1.124028444E0,2.553141832E0
1.286165521E0,9.440283775E0,-1.094716311E0,2.590828657E0
1.288547396E0,9.435498238E0,-1.080359459E0,2.638685226E0
1.290929323E0,9.434899330E0,-1.022931695E0,2.672184706E0
1.293311198E0,9.439684868E0,-1.008574724E0,2.696112871E0
1.295693125E0,9.448657990E0,-9.601200819E-1,2.709871531E0
1.298075000E0,9.448657990E0,-9.457631707E-1,2.719442844E0
1.300456927E0,9.467801094E0,-9.409775138E-1,2.714657307E0
1.302838802E0,9.462417603E0,-9.361918569E-1,2.695514679E0
1.305220730E0,9.434301376E0,-9.463613629E-1,2.681157827E0
1.307602605E0,9.415159225E0,-9.463613629E-1,2.671586514E0
1.309984532E0,9.400801659E0,-9.565308690E-1,2.652443886E0
1.312366407E0,9.376873970E0,-9.762716293E-1,2.609971285E0
1.314748334E0,9.353543282E0,-9.906286001E-1,2.562114954E0
1.317130209E0,9.315258980E0,-9.912267923E-1,2.552543640E0
1.319512136E0,9.305686951E0,-1.024726272E0,2.538186550E0
1.321894011E0,9.277571678E0,-1.049252748E0,2.514258385E0
1.324275938E0,9.287142754E0,-1.068395257E0,2.519043922E0
1.326657865E0,9.259027481E0,-1.097109199E0,2.543570518E0
1.329039740E0,9.230313301E0,-1.106680512E0,2.557927370E0
1.331421667E0,9.225527763E0,-1.116251707E0,2.591426849E0
1.333803542E0,9.235098839E0,-1.116251707E0,2.624926329E0
1.336185469E0,9.221340179E0,-1.130010486E0,2.687139750E0
1.338567344E0,9.197412491E0,-1.154536963E0,2.711068153E0
1.340949271E0,9.211769104E0,-1.163509965E0,2.725425005E0
1.343331146E0,9.198010445E0,-1.177866936E0,2.734996319E0
1.345713073E0,9.178867340E0,-1.220937729E0,2.749951363E0
1.348094948E0,9.165108681E0,-1.235892892E0,2.730808735E0
1.350476875E0,9.155537605E0,-1.264606714E0,2.726023197E0
1.352858750E0,9.165707588E0,-1.293320656E0,2.716451883E0
1.355240677E0,9.161520004E0,-1.350748420E0,2.717050076E0
1.357622552E0,9.171091080E0,-1.388435364E0,2.717050076E0
1.360004480E0,9.176474571E0,-1.445863128E0,2.708076954E0
1.362386407E0,9.191430092E0,-1.488933921E0,2.703291416E0
1.364768282E0,9.210572243E0,-1.497906923E0,2.708076954E0
1.367150209E0,9.201001167E0,-1.465005636E0,2.712862730E0
1.369532084E0,9.196215630E0,-1.460219979E0,2.712862730E0
1.371914011E0,9.200403214E0,-1.421934843E0,2.712264538E0
1.374295886E0,9.199805260E0,-1.393221021E0,2.707478762E0
1.376677813E0,9.204590797E0,-1.374078393E0,2.712264538E0
1.379059688E0,9.204590797E0,-1.374078393E0,2.702693224E0
1.381441615E0,9.218947411E0,-1.364507079E0,2.721835852E0
1.383823490E0,9.204590797E0,-1.345364571E0,2.736192703E0
1.386205417E0,9.214161873E0,-1.359721422E0,2.731407166E0
1.388587292E0,9.199206352E0,-1.340578914E0,2.745764017E0
1.390969219E0,9.170493126E0,-1.311864972E0,2.779263496E0
1.393351094E0,9.156135559E0,-1.316650629E0,2.798406124E0
1.395733021E0,9.170493126E0,-1.321436286E0,2.779263496E0
1.398114896E0,9.161520004E0,-1.331007600E0,2.793620348E0
1.400496823E0,9.170493126E0,-1.331007600E0,2.788834810E0
1.402878750E0,9.170493126E0,-1.311864972E0,2.813361168E0
1.405260625E0,9.156135559E0,-1.302293777E0,2.827718258E0
1.407642552E0,9.160921097E0,-1.273579836E0,2.836691141E0
1.410024427E0,9.179466248E0,-1.268794179E0,2.836691141E0
1.412406355E0,9.189037323E0,-1.244866014E0,2.822334290E0
1.414788230E0,9.198608398E0,-1.239482164E0,2.836691141E0
1.417170157E0,9.217152596E0,-1.201196909E0,2.841476917E0
1.419552032E0,9.245866776E0,-1.214955688E0,2.855833769E0
1.421933959E0,9.236295700E0,-1.224527001E0,2.855833769E0
1.424315834E0,9.231510162E0,-1.219741344E0,2.879761934E0
1.426697761E0,9.231510162E0,-1.210170031E0,2.894119024E0
1.429079636E0,9.212367058E0,-1.201196909E0,2.898904562E0
1.431461563E0,9.207581520E0,-1.186840057E0,2.903690338E0
1.433843438E0,9.202795982E0,-1.177268744E0,2.912663460E0
1.436225365E0,9.207581520E0,-1.191625714E0,2.908475876E0
1.438607240E0,9.188439369E0,-1.182054400E0,2.937189817E0
1.440989167E0,9.188439369E0,-1.191625714E0,2.937189817E0
1.443371042E0,9.188439369E0,-1.201196909E0,2.922832966E0
1.445752969E0,9.174081802E0,-1.201196909E0,2.932404041E0
1.448134896E0,9.174679756E0,-1.215553880E0,2.956332445E0
1.450516771E0,9.179466248E0,-1.215553880E0,2.951546669E0
1.452898698E0,9.208179474E0,-1.219741344E0,2.941975355E0
1.455280573E0,9.208179474E0,-1.262812138E0,2.932404041E0
1.457662500E0,9.223134995E0,-1.281954765E0,2.908475876E0
1.460044375E0,9.237491608E0,-1.301097274E0,2.894119024E0
1.462426302E0,9.247062683E0,-1.315454245E0,2.894119024E0
1.464808177E0,9.261420250E0,-1.329811215E0,2.870789051E0
1.467190105E0,9.242277145E0,-1.305882931E0,2.889333248E0
1.469571980E0,9.213563919E0,-1.291526079E0,2.879761934E0
1.471953907E0,9.199206352E0,-1.282552958E0,2.870190859E0
1.474335782E0,9.184849739E0,-1.306481123E0,2.865405083E0
1.476717709E0,9.194420815E0,-1.311266780E0,2.856431961E0
1.479099584E0,9.195018768E0,-1.339980721E0,2.846860647E0
1.481481511E0,9.209376335E0,-1.363908887E0,2.822932482E0
1.483863438E0,9.238089561E0,-1.382453322E0,2.813361168E0
1.486245313E0,9.257232666E0,-1.406381488E0,2.798406124E0
1.488627240E0,9.247661591E0,-1.392024517E0,2.803191662E0
1.491009115E0,9.223732948E0,-1.397408366E0,2.813361168E0
1.493391042E0,9.204590797E0,-1.392622828E0,2.851646423E0
1.495772917E0,9.176474571E0,-1.392622828E0,2.870789051E0
1.498154844E0,9.166903496E0,-1.402194023E0,2.851646423E0
1.500536719E0,9.162117958E0,-1.416550994E0,2.837289333E0
1.502918646E0,9.171689034E0,-1.417149186E0,2.803191662E0
1.505300521E0,9.181260109E0,-1.397408366E0,2.788834810E0
1.507682448E0,9.186046600E0,-1.406979680E0,2.793620348E0
1.510064323E0,9.204590797E0,-1.392622828E0,2.803191662E0
1.512446250E0,9.214161873E0,-1.359123230E0,2.808575630E0
1.514828125E0,9.251849174E0,-1.344168067E0,2.822932482E0
1.517210052E0,9.266205788E0,-1.325025558E0,2.842075109E0
1.519591927E0,9.299705505E0,-1.310070395E0,2.831905603E0
1.521973855E0,9.333204269E0,-1.310070395E0,2.836691141E0
1.524355730E0,9.342776299E0,-1.323829174E0,2.855833769E0
1.526737657E0,9.366703987E0,-1.328614831E0,2.836691141E0
1.529119584E0,9.385847092E0,-1.347757339E0,2.837289333E0
1.531501459E0,9.395418167E0,-1.356730461E0,2.837289333E0
1.533883386E0,9.390632629E0,-1.366301775E0,2.837289333E0
1.536265261E0,9.396016121E0,-1.375872970E0,2.846860647E0
1.538647188E0,9.404989243E0,-1.361516118E0,2.837289333E0
1.541029063E0,9.415159225E0,-1.380658627E0,2.842075109E0
1.543410990E0,9.405587196E0,-1.404586911E0,2.822932482E0
1.545792865E0,9.405587196E0,-1.423729420E0,2.813361168E0
1.548174792E0,9.410971642E0,-1.438086390E0,2.822932482E0
1.550556667E0,9.406186104E0,-1.452443361E0,2.818146944E0
1.552938594E0,9.401400566E0,-1.476371527E0,2.813361168E0
1.555320469E0,9.387641907E0,-1.524227977E0,2.828316450E0
1.557702396E0,9.383454323E0,-1.576870084E0,2.823530674E0
1.560084271E0,9.402596474E0,-1.576870084E0,2.794218540E0
1.562466198E0,9.402596474E0,-1.552941918E0,2.760719061E0
1.564848073E0,9.378069878E0,-1.510469317E0,2.746362209E0
1.567230000E0,9.396614075E0,-1.496112347E0,2.717648268E0
1.569611927E0,9.396614075E0,-1.486541033E0,2.693720102E0
1.571993802E0,9.401400566E0,-1.491326690E0,2.674577475E0
1.574375730E0,9.406784058E0,-1.505683661E0,2.669791937E0
1.576757605E0,9.410971642E0,-1.496112347E0,2.674577475E0
1.579139532E0,9.421140671E0,-1.520040631E0,2.655434847E0
1.581521407E0,9.430712700E0,-1.515254974E0,2.650649309E0
1.583903334E0,9.434899330E0,-1.505683661E0,2.665006161E0
1.586285209E0,9.454640388E0,-1.529013634E0,2.679363251E0
1.588667136E0,9.436694145E0,-1.667797327E0,2.723032236E0
1.591049011E0,9.455238342E0,-1.586441398E0,2.688934565E0
1.593430938E0,9.464211464E0,-1.548156261E0,2.679363251E0
1.595812813E0,9.477970123E0,-1.485942841E0,2.669193745E0
1.598194740E0,9.501300812E0,-1.456630826E0,2.664407969E0
1.600576615E0,9.487542152E0,-1.471585870E0,2.683550596E0
1.602958542E0,9.483354568E0,-1.523629785E0,2.693720102E0
1.605340417E0,9.501898766E0,-1.475773335E0,2.693121910E0
1.607722344E0,9.515657425E0,-1.437488198E0,2.678765059E0
1.610104271E0,9.510273933E0,-1.375274777E0,2.692523718E0
1.612486146E0,9.500701904E0,-1.384846091E0,2.721835852E0
1.614868073E0,9.505488396E0,-1.380060434E0,2.697907448E0
1.617249948E0,9.514460564E0,-1.317847013E0,2.687737942E0
1.619631875E0,9.523433685E0,-1.269990563E0,2.687737942E0
1.622013750E0,9.513264656E0,-1.217946768E0,2.653640270E0
1.624395677E0,9.518050194E0,-1.189232826E0,2.644068956E0
1.626777552E0,9.507881165E0,-1.174875975E0,2.629712105E0
1.629159480E0,9.517452240E0,-1.174875975E0,2.615355253E0
1.631541355E0,9.507881165E0,-1.161117196E0,2.596212626E0
1.633923282E0,9.507881165E0,-1.165902853E0,2.581855536E0
1.636305157E0,9.498309135E0,-1.185045362E0,2.572284460E0
1.638687084E0,9.498309135E0,-1.165902853E0,2.543570518E0
1.641068959E0,9.489336014E0,-1.194616675E0,2.543570518E0
1.643450886E0,9.484550476E0,-1.218544960E0,2.524427891E0
1.645832761E0,9.489336014E0,-1.228116274E0,2.519642353E0
1.648214688E0,9.499505997E0,-1.256830096E0,2.501097918E0
1.650596563E0,9.494720459E0,-1.262213945E0,2.467598438E0
1.652978490E0,9.480362892E0,-1.281356573E0,2.458027124E0
1.655360417E0,9.480362892E0,-1.281356573E0,2.443670034E0
1.657742292E0,9.475577354E0,-1.286142230E0,2.429313183E0
1.660124219E0,9.480362892E0,-1.271785259E0,2.443670034E0
1.662506094E0,9.466006279E0,-1.262213945E0,2.434098721E0
1.664888021E0,9.470193863E0,-1.238285661E0,2.438286304E0
1.667269896E0,9.451051712E0,-1.234098315E0,2.428714991E0
1.669651823E0,9.455837250E0,-1.229312658E0,2.404786825E0
1.672033698E0,9.446265221E0,-1.205384374E0,2.400001049E0
1.674415625E0,9.441479683E0,-1.214955688E0,2.400001049E0
1.676797500E0,9.407979965E0,-1.201196909E0,2.404786825E0
1.679179427E0,9.379266739E0,-1.177268744E0,2.419143677E0
1.681561302E0,9.345767021E0,-1.177866936E0,2.400001049E0
1.683943230E0,9.311669350E0,-1.149751306E0,2.400001049E0
1.686325105E0,9.302098274E0,-1.149751306E0,2.390429735E0
1.688707032E0,9.282955170E0,-1.135394335E0,2.366501570E0
1.691088907E0,9.282955170E0,-1.135992527E0,2.361716032E0
1.693470834E0,9.273384094E0,-1.145563841E0,2.337787628E0
1.695852761E0,9.278169632E0,-1.126421213E0,2.352144718E0
1.698234636E0,9.292527199E0,-1.144965649E0,2.371287346E0
1.700616563E0,9.302098274E0,-1.159322619E0,2.390429735E0
1.702998438E0,9.321838379E0,-1.182652593E0,2.419143677E0
1.705380365E0,9.345767021E0,-1.220339537E0,2.452643156E0
1.707762240E0,9.327222824E0,-1.230509043E0,2.472383976E0
1.710144167E0,9.332008362E0,-1.258624673E0,2.491526604E0
1.712526042E0,9.341579437E0,-1.263410330E0,2.520240545E0
1.714907969E0,9.355937004E0,-1.272383451E0,2.539382935E0
1.717289844E0,9.366106033E0,-1.291526079E0,2.553740025E0
1.719671771E0,9.399605751E0,-1.305284739E0,2.553740025E0
1.722053646E0,9.380462646E0,-1.320239902E0,2.558525562E0
1.724435573E0,9.385847092E0,-1.363310695E0,2.563909531E0
1.726817448E0,9.404989243E0,-1.377069473E0,2.587837696E0
1.729199375E0,9.385847092E0,-1.377069473E0,2.583052158E0
1.731581250E0,9.367302895E0,-1.405783296E0,2.597409010E0
1.733963177E0,9.352945328E0,-1.392024517E0,2.602194548E0
1.736345052E0,9.338588715E0,-1.382453322E0,2.606980324E0
1.738726980E0,9.329017639E0,-1.392024517E0,2.592623234E0
1.741108907E0,9.324232101E0,-1.396810174E0,2.587837696E0
1.743490782E0,9.314062119E0,-1.378265858E0,2.583052158E0
1.745872709E0,9.305088997E0,-1.383051515E0,2.573480844E0
1.748254584E0,9.300303459E0,-1.397408366E0,2.559123755E0
1.750636511E0,9.290732384E0,-1.397408366E0,2.559123755E0
1.753018386E0,9.262018204E0,-1.417149186E0,2.554338217E0
1.755400313E0,9.220742226E0,-1.570289850E0,2.612364054E0
1.757782188E0,9.215357780E0,-1.527219057E0,2.578864574E0
1.760164115E0,9.214759827E0,-1.446461320E0,2.516052961E0
1.762545990E0,9.213563919E0,-1.365105271E0,2.501696110E0
1.764927917E0,9.208778381E0,-1.345962763E0,2.516052961E0
1.767309792E0,9.203991890E0,-1.341177106E0,2.516052961E0
1.769691719E0,9.208179474E0,-1.264606714E0,2.501097918E0
1.772073594E0,9.212367058E0,-1.216750264E0,2.505883455E0
1.774455521E0,9.202795982E0,-1.202393413E0,2.539382935E0
1.776837396E0,9.221340179E0,-1.149751306E0,2.548356056E0
1.779219323E0,9.196813583E0,-1.102493048E0,2.572284460E0
1.781601198E0,9.210572243E0,-1.054038405E0,2.624328136E0
1.783983125E0,9.233902931E0,-1.015154958E0,2.667398930E0
1.786365052E0,9.257232666E0,-9.529415965E-1,2.700898647E0
1.788746927E0,9.271589279E0,-9.188438654E-1,2.743371248E0
1.791128855E0,9.294919968E0,-8.901300430E-1,2.752942562E0
1.793510730E0,9.327820778E0,-8.464609981E-1,2.781656265E0
1.795892657E0,9.337391853E0,-8.081758618E-1,2.781058073E0
1.798274532E0,9.356534958E0,-8.081758618E-1,2.785843849E0
1.800656459E0,9.365508080E0,-7.938188910E-1,2.785843849E0
1.803038334E0,9.388837814E0,-7.357929349E-1,2.781058073E0
1.805420261E0,9.403194427E0,-7.166503668E-1,2.781058073E0
1.807802136E0,9.403194427E0,-7.022934556E-1,2.799602509E0
1.810184063E0,9.412766457E0,-7.070791125E-1,2.834298372E0
1.812565938E0,9.427123070E0,-7.064808607E-1,2.857628345E0
1.814947865E0,9.417551994E0,-7.256234884E-1,2.896511793E0
1.817329740E0,9.408578873E0,-7.495517135E-1,2.949153900E0
1.819711667E0,9.418149948E0,-7.585247755E-1,2.997010469E0
1.822093594E0,9.399007797E0,-7.728816867E-1,3.054438114E0
1.824475469E0,9.390034676E0,-8.111668825E-1,3.102294445E0
1.826857396E0,9.370891571E0,-8.159525394E-1,3.160320520E0
1.829239271E0,9.366703987E0,-8.398807645E-1,3.169891834E0
1.831621198E0,9.352347374E0,-8.350951076E-1,3.198605776E0
1.834003073E0,9.333204269E0,-8.303094506E-1,3.217748165E0
1.836385000E0,9.337990761E0,-8.303094506E-1,3.227319479E0
1.838766875E0,9.347561836E0,-8.494520187E-1,3.232105255E0
1.841148802E0,9.347561836E0,-8.494520187E-1,3.241676569E0
1.843530677E0,9.375677109E0,-8.249256015E-1,3.227319479E0
1.845912605E0,9.371489525E0,-8.440681696E-1,3.208176851E0
1.848294480E0,9.419346809E0,-8.440681696E-1,3.179463148E0
1.850676407E0,9.428917885E0,-8.482556343E-1,3.189034462E0
1.853058282E0,9.443274498E0,-8.434699774E-1,3.160320520E0
1.855440209E0,9.448060036E0,-8.482556343E-1,3.145963669E0
1.857822084E0,9.467203140E0,-8.673982024E-1,3.102892876E0
1.860204011E0,9.467203140E0,-8.865407705E-1,3.078964472E0
1.862585886E0,9.491130829E0,-9.152546525E-1,3.026322365E0
1.864967813E0,9.501300812E0,-9.439685345E-1,2.997608662E0
1.867349740E0,9.510871887E0,-9.631111026E-1,2.968894720E0
1.869731615E0,9.516255379E0,-1.001994491E0,2.916850805E0
1.872113490E0,9.511469841E0,-1.045065284E0,2.864208698E0
1.874495417E0,9.526425362E0,-1.059422255E0,2.830709219E0
1.876877344E0,9.531210899E0,-1.097707391E0,2.763111830E0
1.879259219E0,9.522237778E0,-1.136590719E0,2.706282377E0
1.881641146E0,9.546764374E0,-1.164706469E0,2.672782898E0
1.884023021E0,9.547362328E0,-1.213161111E0,2.634497643E0
1.886404948E0,9.547960281E0,-1.251446247E0,2.596212626E0
1.888786823E0,9.567103386E0,-1.261017561E0,2.568096876E0
1.891168750E0,9.571888924E0,-1.284945726E0,2.534597397E0
1.893550625E0,9.567103386E0,-1.299302697E0,2.520240545E0
1.895932552E0,9.562317848E0,-1.284945726E0,2.520240545E0
1.898314427E0,9.567103386E0,-1.270588875E0,2.505883455E0
1.900696355E0,9.562317848E0,-1.275374413E0,2.515454769E0
1.903078230E0,9.543174744E0,-1.280758262E0,2.510669231E0
1.905460157E0,9.533005714E0,-1.261615753E0,2.520240545E0
1.907842084E0,9.533005714E0,-1.261017561E0,2.544168711E0
1.910223959E0,9.518648148E0,-1.256830096E0,2.539382935E0
1.912605886E0,9.509077072E0,-1.280758262E0,2.558525562E0
1.914987761E0,9.494720459E0,-1.275972724E0,2.572882652E0
1.917369688E0,9.466006279E0,-1.285543919E0,2.592025042E0
1.919751563E0,9.442676544E0,-1.286142230E0,2.606382132E0
1.922133490E0,9.437891006E0,-1.295115232E0,2.635095835E0
1.924515365E0,9.404391289E0,-1.305284739E0,2.635095835E0
1.926897292E0,9.385248184E0,-1.295713425E0,2.639881611E0
1.929279167E0,9.346963882E0,-1.305882931E0,2.639881611E0
1.931661094E0,9.327820778E0,-1.305882931E0,2.659024239E0
1.934042969E0,9.294321060E0,-1.292124271E0,2.654238462E0
1.936424896E0,9.289535522E0,-1.306481123E0,2.649452925E0
1.938806771E0,9.261420250E0,-1.311266780E0,2.649452925E0
1.941188698E0,9.242277145E0,-1.311864972E0,2.649452925E0
1.943570573E0,9.223134995E0,-1.297508121E0,2.635095835E0
1.945952500E0,9.213563919E0,-1.307079315E0,2.639881611E0
1.948334427E0,9.213563919E0,-1.302891970E0,2.625524759E0
1.950716302E0,9.208778381E0,-1.312463164E0,2.615953445E0
1.953098177E0,9.189635277E0,-1.317248821E0,2.602194548E0
1.955480105E0,9.184849739E0,-1.317248821E0,2.592623234E0
1.957861980E0,9.208778381E0,-1.302891970E0,2.592025042E0
1.960243907E0,9.194420815E0,-1.307677627E0,2.592025042E0
1.962625834E0,9.203991890E0,-1.307677627E0,2.606382132E0
1.965007709E0,9.232706070E0,-1.321436286E0,2.596810818E0
1.967389636E0,9.247062683E0,-1.326221943E0,2.592025042E0
1.969771511E0,9.256634712E0,-1.307079315E0,2.601596355E0
1.972153438E0,9.270393372E0,-1.302293777E0,2.615953445E0
1.974535313E0,9.256634712E0,-1.316650629E0,2.630310297E0
1.976917240E0,9.265607834E0,-1.307079315E0,2.606382132E0
1.979299115E0,9.279964447E0,-1.306481123E0,2.635095835E0
1.981681042E0,9.289535522E0,-1.282552958E0,2.654238462E0
1.984062917E0,9.289535522E0,-1.287338614E0,2.673381090E0
1.986444844E0,9.289535522E0,-1.287338614E0,2.682952404E0
1.988826719E0,9.289535522E0,-1.272981644E0,2.716451883E0
1.991208646E0,9.303893089E0,-1.262812138E0,2.749951363E0
1.993590521E0,9.313464165E0,-1.262812138E0,2.749951363E0
1.995972448E0,9.323035240E0,-1.281954765E0,2.759522676E0
1.998354375E0,9.323035240E0,-1.257428288E0,2.778665304E0
2.000736250E0,9.332008362E0,-1.233500123E0,2.802593470E0
2.003118177E0,9.346364975E0,-1.214357495E0,2.802593470E0
2.005500052E0,9.355937004E0,-1.223928809E0,2.812762976E0
2.007881980E0,9.351150513E0,-1.223928809E0,2.817548752E0
2.010263855E0,9.379864693E0,-1.208973646E0,2.821736097E0
2.012645782E0,9.384052277E0,-1.180259824E0,2.826521635E0
2.015027657E0,9.407979965E0,-1.161117196E0,2.807379246E0
2.017409584E0,9.421739578E0,-1.141974568E0,2.797209740E0
2.019791459E0,9.431310654E0,-1.118046403E0,2.792423964E0
2.022173386E0,9.459425926E0,-1.088734269E0,2.772683144E0
2.024555261E0,9.478569031E0,-1.074377418E0,2.729612350E0
2.026937188E0,9.483354568E0,-1.060618639E0,2.710469961E0
2.029319063E0,9.482755661E0,-1.031904817E0,2.676970243E0
2.031700990E0,9.497113228E0,-1.017547846E0,2.662613392E0
2.034082865E0,9.506086349E0,-9.984052777E-1,2.648256540E0
2.036464792E0,9.506086349E0,-9.888339639E-1,2.605185747E0
2.038846667E0,9.525228500E0,-9.888339639E-1,2.604587555E0
2.041228594E0,9.510871887E0,-9.696913958E-1,2.580659151E0
2.043610469E0,9.491130829E0,-9.463613629E-1,2.566302299E0
2.045992396E0,9.481559753E0,-9.511470199E-1,2.571087837E0
2.048374323E0,9.486345291E0,-9.320043921E-1,2.590230465E0
2.050756198E0,9.471988678E0,-9.320043921E-1,2.604587555E0
2.053138125E0,9.462417603E0,-9.272187948E-1,2.623729944E0
2.055520000E0,9.457631111E0,-9.272187948E-1,2.647658348E0
2.057901927E0,9.452845573E0,-9.224331379E-1,2.690729141E0
2.060283802E0,9.443872452E0,-9.367900491E-1,2.709871531E0
2.062665730E0,9.424132347E0,-9.224331379E-1,2.709871531E0
2.065047605E0,9.414560318E0,-9.224331379E-1,2.733799934E0
2.067429532E0,9.419346809E0,-9.272187948E-1,2.729014158E0
2.069811407E0,9.404989243E0,-9.080761671E-1,2.738585472E0
2.072193334E0,9.395418167E0,-9.080761671E-1,2.724228621E0
2.074575209E0,9.400203705E0,-9.032905698E-1,2.733799934E0
2.076957136E0,9.385847092E0,-9.134600163E-1,2.719442844E0
2.079339011E0,9.381061554E0,-9.038887620E-1,2.690729141E0
2.081720938E0,9.361918449E0,-8.949156404E-1,2.666800737E0
2.084102813E0,9.357132912E0,-9.092726111E-1,2.638087034E0
2.086484740E0,9.352347374E0,-8.997012973E-1,2.604587555E0
2.088866615E0,9.329017639E0,-9.242277741E-1,2.590230465E0
2.091248542E0,9.333204269E0,-9.194421172E-1,2.542374134E0
2.093630469E0,9.314660072E0,-9.433703423E-1,2.537588358E0
2.096012344E0,9.305088997E0,-9.583254457E-1,2.504687071E0
2.098394271E0,9.305088997E0,-9.487541914E-1,2.499303341E0
2.100776146E0,9.290732384E0,-9.726824164E-1,2.485544443E0
2.103158073E0,9.296115875E0,-9.918249846E-1,2.490330219E0
2.105539948E0,9.291330338E0,-1.006181955E0,2.475973129E0
2.107921875E0,9.287142754E0,-1.039681435E0,2.471187592E0
2.110303750E0,9.301499367E0,-1.054038405E0,2.504687071E0
2.112685677E0,9.301499367E0,-1.082154036E0,2.500499725E0
2.115067552E0,9.311071396E0,-1.086939692E0,2.519642353E0
2.117449480E0,9.311669350E0,-1.130010486E0,2.533999205E0
2.119831355E0,9.326025963E0,-1.134796143E0,2.533999205E0
2.122213282E0,9.326025963E0,-1.129412293E0,2.562713146E0
2.124595157E0,9.331410408E0,-1.172483087E0,2.548356056E0
2.126977084E0,9.340981483E0,-1.191625714E0,2.567498684E0
2.129358959E0,9.336195946E0,-1.196411371E0,2.581855536E0
2.131740886E0,9.327222824E0,-1.205982566E0,2.596212626E0
2.134122761E0,9.336793900E0,-1.215553880E0,2.606382132E0
2.136504688E0,9.336793900E0,-1.229910851E0,2.611167669E0
2.138886615E0,9.346364975E0,-1.210170031E0,2.620140791E0
2.141268490E0,9.360123634E0,-1.195813060E0,2.600998163E0
2.143650417E0,9.374481201E0,-1.181456208E0,2.600998163E0
2.146032292E0,9.379266739E0,-1.186241865E0,2.591426849E0
2.148414219E0,9.364909172E0,-1.171884894E0,2.581855536E0
2.150796094E0,9.369695663E0,-1.172483087E0,2.548356056E0
2.153178021E0,9.350552559E0,-1.158126116E0,2.529213428E0
2.155559896E0,9.340383530E0,-1.130010486E0,2.505285263E0
2.157941823E0,9.349954605E0,-1.105484009E0,2.505285263E0
2.160323698E0,9.349356651E0,-1.091725349E0,2.495713949E0
2.162705625E0,9.344570160E0,-1.063011408E0,2.490330219E0
2.165087500E0,9.348757744E0,-1.048654556E0,2.461616278E0
2.167469427E0,9.363115311E0,-1.043868899E0,2.452044964E0
2.169851302E0,9.363115311E0,-1.019940615E0,2.452044964E0
2.172233230E0,9.382257462E0,-1.005583763E0,2.452044964E0
2.174615157E0,9.396614075E0,-1.000199914E0,2.466402054E0
2.176997032E0,9.406186104E0,-1.004985452E0,2.461616278E0
2.179378907E0,9.419944763E0,-1.000199914E0,2.485544443E0
2.181760834E0,9.429515839E0,-9.900303483E-1,2.509472847E0
2.184142709E0,9.424730301E0,-9.948160052E-1,2.547757864E0
2.186524636E0,9.430113792E0,-1.009172916E0,2.552543640E0
2.188906563E0,9.454042435E0,-1.003789067E0,2.586043119E0
2.191288438E0,9.458827972E0,-1.013360381E0,2.614757061E0
2.193670365E0,9.473184586E0,-1.022333503E0,2.638685226E0
2.196052240E0,9.463613510E0,-1.012762189E0,2.657827854E0
2.198434167E0,9.468399048E0,-1.036690354E0,2.686541557E0
2.200816042E0,9.473184586E0,-1.017547846E0,2.681756020E0
2.203197969E0,9.473184586E0,-1.031904817E0,2.696112871E0
2.205579844E0,9.477970123E0,-1.017547846E0,2.715255499E0
2.207961771E0,9.467801094E0,-9.888339639E-1,2.739183664E0
2.210343646E0,9.468399048E0,-1.003190875E0,2.729612350E0
2.212725573E0,9.463015556E0,-9.840483069E-1,2.729612350E0
2.215107448E0,9.477372169E0,-9.601200819E-1,2.738585472E0
2.217489375E0,9.482157707E0,-9.505487680E-1,2.733799934E0
2.219871250E0,9.481559753E0,-9.266205430E-1,2.738585472E0
2.222253177E0,9.467203140E0,-8.931210637E-1,2.743371248E0
2.224635105E0,9.461818695E0,-8.596215248E-1,2.729014158E0
2.227016980E0,9.466604233E0,-8.739784956E-1,2.719442844E0
2.229398907E0,9.452247620E0,-8.267202377E-1,2.704487801E0
2.231780782E0,9.461220741E0,-8.117650747E-1,2.714059114E0
2.234162709E0,9.446864128E0,-7.836494446E-1,2.690130949E0
2.236544584E0,9.437292099E0,-7.692924738E-1,2.690130949E0
2.238926511E0,9.422337532E0,-7.501499057E-1,2.690130949E0
2.241308386E0,9.398408890E0,-7.363911867E-1,2.685345173E0
2.243690313E0,9.393623352E0,-7.268198729E-1,2.675773859E0
2.246072188E0,9.379266739E0,-7.028916478E-1,2.675175667E0
2.248454115E0,9.349954605E0,-6.843472719E-1,2.660818815E0
2.250835990E0,9.335597992E0,-6.556333899E-1,2.665604353E0
2.253217917E0,9.311071396E0,-6.323033571E-1,2.636890650E0
2.255599792E0,9.301499367E0,-6.131607890E-1,2.627319336E0
2.257981719E0,9.268000603E0,-6.185446382E-1,2.598605394E0
2.260363594E0,9.229715347E0,-6.239284873E-1,2.560320139E0
2.262745521E0,9.205786705E0,-6.101697683E-1,2.531606436E0
2.265127396E0,9.201001167E0,-5.862415433E-1,2.502892494E0
2.267509323E0,9.167501450E0,-5.868397355E-1,2.455035925E0
2.269891250E0,9.157332420E0,-5.581258535E-1,2.431107759E0
2.272273125E0,9.128618240E0,-5.341976285E-1,2.416152716E0
2.274655052E0,9.109476089E0,-5.252245665E-1,2.392224550E0
2.277036927E0,9.090332985E0,-5.300102234E-1,2.373081923E0
2.279418855E0,9.075976372E0,-5.162515044E-1,2.363510609E0
2.281800730E0,9.046664238E0,-4.827519655E-1,2.368296146E0
2.284182657E0,9.027522087E0,-4.785645306E-1,2.353939295E0
2.286564532E0,9.032307625E0,-4.642075896E-1,2.368296146E0
2.288946459E0,9.037093163E0,-4.594219327E-1,2.373081923E0
2.291328334E0,9.037093163E0,-4.540380836E-1,2.401795626E0
2.293710261E0,9.046664238E0,-4.301098585E-1,2.449652195E0
2.296092136E0,9.069993973E0,-4.199403822E-1,2.507079840E0
2.298474063E0,9.127422333E0,-4.289134443E-1,2.540579557E0
2.300855938E0,9.166305542E0,-4.426721931E-1,2.607578516E0
2.303237865E0,9.214161873E0,-4.462614357E-1,2.655434847E0
2.305619740E0,9.281160355E0,-4.983053207E-1,2.708076954E0
2.308001667E0,9.348757744E0,-5.401797295E-1,2.751147747E0
2.310383542E0,9.425926208E0,-5.970092416E-1,2.775674343E0
2.312765469E0,9.507282257E0,-6.340979934E-1,2.794816732E0
2.315147396E0,9.599406242E0,-6.765705943E-1,2.804388046E0
2.317529271E0,9.685547829E0,-7.280163169E-1,2.819343328E0
2.319911198E0,9.786644936E0,-7.698906660E-1,2.785245657E0
2.322293073E0,9.878170013E0,-8.596215248E-1,2.761915445E0
2.324675000E0,9.960124016E0,-9.212366939E-1,2.737987280E0
2.327056875E0,1.003190899E1,-9.637092948E-1,2.700300455E0
2.329438802E0,1.009472084E1,-1.020538807E0,2.666800737E0
2.331820677E0,1.012821960E1,-1.058824062E0,2.595016241E0
2.334202605E0,1.019521904E1,-1.082154036E0,2.547159672E0
2.336584480E0,1.024367332E1,-1.110269666E0,2.480160713E0
2.338966407E0,1.029153061E1,-1.143769264E0,2.441875458E0
2.341348282E0,1.032024384E1,-1.167099237E0,2.389831543E0
2.343730209E0,1.035374355E1,-1.186241865E0,2.327618122E0
2.346112084E0,1.037348461E1,-1.205384374E0,2.265404940E0
2.348494011E0,1.038305569E1,-1.220339537E0,2.193620205E0
2.350875886E0,1.037827015E1,-1.244267821E0,2.131406784E0
2.353257813E0,1.037348461E1,-1.259222865E0,2.083550215E0
2.355639688E0,1.034955597E1,-1.268794179E0,2.016551256E0
2.358021615E0,1.031665516E1,-1.279561877E0,1.954337835E0
2.360403490E0,1.030708313E1,-1.308275819E0,1.897508383E0
2.362785417E0,1.024965572E1,-1.318445325E0,1.844866276E0
2.365167344E0,1.020718288E1,-1.329213023E0,1.801795483E0
2.367549219E0,1.014018440E1,-1.358525038E0,1.773081541E0
2.369931146E0,1.008335495E1,-1.359123230E0,1.744367719E0
2.372313021E0,9.992427826E0,-1.360319614E0,1.744367719E0
2.374694948E0,9.906285286E0,-1.322632670E0,1.773081541E0
2.377076823E0,9.819545746E0,-1.295115232E0,1.768295884E0
2.379458750E0,9.747760773E0,-1.233500123E0,1.787438512E0
2.381840625E0,9.661021233E0,-1.210768223E0,1.830509305E0
2.384222552E0,9.589237213E0,-1.149153113E0,1.872981906E0
2.386604427E0,9.525827408E0,-1.106082320E0,1.939980984E0
2.388986355E0,9.463015556E0,-1.049252748E0,2.006979942E0
2.391368230E0,9.391230583E0,-1.030708313E0,2.073979139E0
2.393750157E0,9.352945328E0,-9.876375198E-1,2.131406784E0
2.396132032E0,9.294919968E0,-9.116654396E-1,2.193022013E0
2.398513959E0,9.241679192E0,-8.644071817E-1,2.283949137E0
2.400895834E0,9.160323143E0,-8.171489239E-1,2.350948334E0
2.403277761E0,9.126225471E0,-7.597211599E-1,2.417349100E0
2.405659688E0,9.064012527E0,-7.172485590E-1,2.489133835E0
2.408041563E0,9.029914856E0,-6.598208547E-1,2.556132793E0
2.410423490E0,9.010173798E0,-6.071787477E-1,2.627319336E0
2.412805365E0,8.980861664E0,-5.347958803E-1,2.703889608E0
2.415187292E0,8.965906143E0,-4.773681164E-1,2.784647465E0
2.417569167E0,8.937192917E0,-4.438686073E-1,2.847458839E0
2.419951094E0,8.912666321E0,-3.768695593E-1,2.909672260E0
2.422332969E0,8.912068367E0,-3.194418252E-1,2.980858803E0
2.424714896E0,8.892327309E0,-2.715853751E-1,3.043072224E0
2.427096771E0,8.858229637E0,-2.189432681E-1,3.105285645E0
2.429478698E0,8.829515457E0,-1.663011760E-1,3.123830080E0
2.431860573E0,8.804988861E0,-1.381855011E-1,3.176471949E0
2.434242500E0,8.804988861E0,-1.046859920E-1,3.176471949E0
2.436624375E0,8.790034294E0,-8.075776696E-2,3.166900873E0
2.439006302E0,8.761320114E0,-4.307080805E-2,3.113660574E0
2.441388177E0,8.751151085E0,-2.452643216E-2,3.056232691E0
2.443770105E0,8.736195564E0,2.751746029E-2,2.974876642E0
2.446151980E0,8.712266922E0,5.084748194E-2,2.864806890E0
2.448533907E0,8.711668968E0,8.374879509E-2,2.748754978E0
2.450915782E0,8.697312355E0,1.070788130E-1,2.662613392E0
2.453297709E0,8.691927910E0,1.399801224E-1,2.605185747E0
2.455679636E0,8.696713448E0,1.351944804E-1,2.538186550E0
2.458061511E0,8.700901031E0,1.728814393E-1,2.480758905E0
2.460443438E0,8.729615211E0,1.734796464E-1,2.428116798E0
2.462825313E0,8.739186287E0,1.639083475E-1,2.432902336E0
2.465207240E0,8.744570732E0,1.399801224E-1,2.432902336E0
2.467589115E0,8.778069496E0,9.750752151E-2,2.432902336E0
2.469971042E0,8.816354752E0,9.810572863E-2,2.466402054E0
2.472352917E0,8.831310272E0,6.939185411E-2,2.514258385E0
2.474734844E0,8.874979019E0,-1.555334684E-2,2.586641312E0
2.477116719E0,8.909076691E0,-5.324030295E-2,2.687139750E0
2.479498646E0,8.938388824E0,-1.094716340E-1,2.797807932E0
2.481880521E0,9.001200676E0,-1.800599098E-1,2.903690338E0
2.484262448E0,9.025727272E0,-2.458625287E-1,3.038286448E0
2.486644375E0,9.083752632E0,-3.164508045E-1,3.177070379E0
2.489026250E0,9.136993408E0,-3.583251834E-1,3.311068296E0
2.491408125E0,9.214161873E0,-4.091726840E-1,3.464807272E0
2.493790052E0,9.267401695E0,-4.654040039E-1,3.589233875E0
2.496171980E0,9.344570160E0,-5.120640397E-1,3.675375462E0
2.498553855E0,9.368498802E0,-5.449653864E-1,3.762115479E0
2.500935730E0,9.416953087E0,-5.778666735E-1,3.833899975E0
2.503317657E0,9.469595909E0,-5.724828243E-1,3.881756544E0
2.505699532E0,9.498309135E0,-6.005984545E-1,3.896113396E0
2.508081459E0,9.522237778E0,-5.958128572E-1,3.881756544E0
2.510463386E0,9.541379929E0,-5.862415433E-1,3.881756544E0
2.512845261E0,9.541379929E0,-5.521438122E-1,3.876372576E0
2.515227188E0,9.540184021E0,-5.186443329E-1,3.852444410E0
2.517609063E0,9.545567513E0,-4.755735099E-1,3.809373617E0
2.519990990E0,9.525228500E0,-4.426721931E-1,3.785445452E0
2.522372865E0,9.534201622E0,-4.091726840E-1,3.765704632E0
2.524754792E0,9.534201622E0,-3.948157430E-1,3.727419376E0
2.527136667E0,9.549157143E0,-3.852444589E-1,3.684348583E0
2.529518594E0,9.548559189E0,-3.714857101E-1,3.655634880E0
2.531900469E0,9.563513756E0,-3.996013701E-1,3.646063566E0
2.534282396E0,9.616155624E0,-4.235295951E-1,3.598206997E0
2.536664271E0,9.649655342E0,-4.468596280E-1,3.583850145E0
2.539046198E0,9.664610863E0,-4.707878530E-1,3.574877024E0
2.541428073E0,9.650852203E0,-5.186443329E-1,3.560520172E0
2.543810000E0,9.655637741E0,-5.425725579E-1,3.546163082E0
2.546191927E0,9.622735977E0,-5.868397355E-1,3.546163082E0
2.548573802E0,9.594022751E0,-6.107679605E-1,3.537189960E0
2.550955730E0,9.566504478E0,-6.831508875E-1,3.527618885E0
2.553337605E0,9.576674461E0,-7.453642488E-1,3.485146284E0
2.555719532E0,9.591629982E0,-8.069794178E-1,3.494717360E0
2.558101407E0,9.615557671E0,-8.452646136E-1,3.485146284E0
2.560483334E0,9.616155624E0,-8.979067206E-1,3.480958700E0
2.562865209E0,9.622138023E0,-9.738788009E-1,3.519243956E0
2.565247136E0,9.622138023E0,-1.016949654E0,3.524627686E0
2.567629011E0,9.579665184E0,-1.036092162E0,3.548556089E0
2.570010938E0,9.545567513E0,-9.840483069E-1,3.548556089E0
2.572392813E0,9.546165466E0,-1.027119160E0,3.538984776E0
2.574774740E0,9.565906525E0,-1.084546804E0,3.495913982E0
2.577156615E0,9.561120987E0,-1.108475089E0,3.491726398E0
2.579538542E0,9.570692062E0,-1.103689432E0,3.491726398E0
2.581920417E0,9.551549911E0,-1.089332461E0,3.495913982E0
2.584302344E0,9.521639824E0,-1.051645517E0,3.491128206E0
2.586684219E0,9.488140106E0,-1.018146038E0,3.510270834E0
2.589066146E0,9.497711182E0,-1.008574724E0,3.476771355E0
2.591448021E0,9.458230019E0,-9.326026440E-1,3.461816072E0
2.593829948E0,9.415159225E0,-8.757730722E-1,3.452244759E0
2.596211875E0,9.381061554E0,-8.189435601E-1,3.447459221E0
2.598593750E0,9.351749420E0,-7.573283911E-1,3.413361549E0
2.600975677E0,9.317052841E0,-6.669993401E-1,3.413361549E0
2.603357552E0,9.292527199E0,-6.101697683E-1,3.374478102E0
2.605739480E0,9.244071960E0,-5.383850932E-1,3.336193085E0
2.608121355E0,9.205188751E0,-4.719842672E-1,3.326023579E0
2.610503282E0,9.166305542E0,-4.055834413E-1,3.326023579E0
2.612885157E0,9.151350021E0,-3.439682424E-1,3.277568817E0
2.615267084E0,9.136395454E0,-3.008974493E-1,3.258426189E0
2.617648959E0,9.097511292E0,-2.207378894E-1,3.229114056E0
2.620030886E0,9.058628082E0,-1.782652885E-1,3.200400352E0
2.622412761E0,9.014959335E0,-1.214357466E-1,3.162115097E0
2.624794688E0,9.000003815E0,-6.400800496E-2,3.156731367E0
2.627176563E0,8.952147484E0,-3.110669367E-2,3.147160053E0
2.629558490E0,8.903693199E0,2.991028316E-2,3.128017426E0
2.631940365E0,8.870193481E0,5.383851007E-2,3.128017426E0
2.634322292E0,8.821739197E0,8.195417374E-2,3.122633457E0
2.636704167E0,8.797810555E0,1.052841991E-1,3.108276606E0
2.639086094E0,8.778668404E0,1.196411327E-1,3.117847919E0
2.641468021E0,8.754739761E0,9.032905847E-2,3.117847919E0
2.643849896E0,8.706883430E0,9.511470050E-2,3.108276606E0
2.646231823E0,8.702097893E0,8.494520187E-2,3.089732170E0
2.648613698E0,8.697910309E0,6.101697683E-2,3.084946632E0
2.650995625E0,8.707481384E0,5.144568533E-2,3.075375319E0
2.653377500E0,8.688339233E0,4.187439755E-2,3.089732170E0
2.655759427E0,8.678768158E0,3.230310604E-2,3.065804005E0
2.658141302E0,8.693722725E0,1.316052489E-2,3.037090063E0
2.660523230E0,8.727820396E0,-4.366901144E-2,3.027518749E0
2.662905105E0,8.727820396E0,-8.195417374E-2,3.018545866E0
2.665287032E0,8.727820396E0,-7.716853172E-2,3.013760090E0
2.667668907E0,8.713463783E0,-5.862415582E-2,3.008974552E0
2.670050834E0,8.709276199E0,-1.016949639E-1,2.985046148E0
2.672432709E0,8.699705124E0,-1.304088384E-1,2.961117983E0
2.674814636E0,8.714659691E0,-1.591227055E-1,2.932404041E0
2.677196511E0,8.729017258E0,-1.686939895E-1,2.922832966E0
2.679578438E0,8.748159409E0,-1.878365725E-1,2.889931440E0
2.681960313E0,8.748159409E0,-2.165504545E-1,2.856431961E0
2.684342240E0,8.743373871E0,-2.165504545E-1,2.861217737E0
2.686724115E0,8.734400749E0,-2.261217386E-1,2.861217737E0
2.689106042E0,8.767900467E0,-2.500499785E-1,2.837289333E0
2.691487917E0,8.796614647E0,-2.781656384E-1,2.837289333E0
2.693869844E0,8.806783676E0,-3.164508045E-1,2.851646423E0
2.696251771E0,8.830712318E0,-3.445664644E-1,2.852244616E0
2.698633646E0,8.855237961E0,-3.726821244E-1,2.876172781E0
2.701015573E0,8.869595528E0,-4.061816335E-1,2.890529871E0
2.703397448E0,8.874979019E0,-4.342973232E-1,2.938386202E0
2.705779375E0,8.874979019E0,-4.295116663E-1,2.971885681E0
2.708161250E0,8.864809990E0,-4.007977843E-1,3.034099102E0
2.710543177E0,8.859425545E0,-3.337987661E-1,3.101098061E0
2.712925052E0,8.892925262E0,-3.284149170E-1,3.100499868E0
2.715306980E0,8.907880783E0,-3.714857101E-1,3.115455151E0
2.717688855E0,8.927022934E0,-3.708875179E-1,3.139383316E0
2.720070782E0,8.936594009E0,-3.996013701E-1,3.172882795E0
2.722452657E0,8.965308189E0,-3.655036688E-1,3.215953588E0
2.724834584E0,8.945567131E0,-3.415754437E-1,3.259024382E0
2.727216459E0,8.935996056E0,-2.937189937E-1,3.277568817E0
2.729598386E0,8.964112282E0,-2.650051117E-1,3.272783279E0
2.731980261E0,8.964112282E0,-2.410768867E-1,3.291925669E0
2.734362188E0,8.987442017E0,-2.309073806E-1,3.306282759E0
2.736744063E0,8.982656479E0,-2.069791555E-1,3.310470104E0
2.739125990E0,8.992227554E0,-1.974078715E-1,3.324826956E0
2.741507917E0,8.987442017E0,-2.021935135E-1,3.363112211E0
2.743889792E0,8.973084450E0,-1.830509305E-1,3.420539856E0
2.746271719E0,8.963513374E0,-1.824527234E-1,3.458825111E0
2.748653594E0,8.934800148E0,-1.878365725E-1,3.511467218E0
2.751035521E0,8.925228119E0,-1.680957973E-1,3.564109325E0
2.753417396E0,8.929415703E0,-1.393819153E-1,3.588037491E0
2.755799323E0,8.924630165E0,-1.202393398E-1,3.626322746E0
2.758181198E0,8.910273552E0,-1.154536903E-1,3.678964853E0
2.760563125E0,8.919844627E0,-8.195417374E-2,3.712464333E0
2.762945000E0,8.915059090E0,-7.657032460E-2,3.769891977E0
2.765326927E0,8.905488014E0,-9.092725813E-2,3.779463291E0
2.767708802E0,8.900702477E0,-8.614161611E-2,3.812962770E0
2.770090730E0,8.885746956E0,-5.742774159E-2,3.836891174E0
2.772472605E0,8.885746956E0,-6.699903309E-2,3.808177233E0
2.774854532E0,8.905488014E0,-1.004985496E-1,3.765106440E0
2.777236407E0,8.938986778E0,-1.052841991E-1,3.760320902E0
2.779618334E0,8.919844627E0,-1.100698411E-1,3.760320902E0
2.782000209E0,8.915059090E0,-1.004985496E-1,3.731606960E0
2.784382136E0,8.962915421E0,-1.387837082E-1,3.693321705E0
2.786764011E0,8.944371223E0,-1.818545163E-1,3.674179077E0
2.789145938E0,8.963513374E0,-2.057827413E-1,3.646063566E0
2.791527813E0,8.988039970E0,-2.440679073E-1,3.588635683E0
2.793909740E0,8.983852386E0,-2.919243574E-1,3.574278831E0
2.796291667E0,8.955139160E0,-3.164508045E-1,3.540779352E0
2.798673542E0,8.945567131E0,-3.260220885E-1,3.507279873E0
2.801055469E0,8.946166039E0,-3.738785386E-1,3.483949661E0
2.803437344E0,8.918049812E0,-3.936193287E-1,3.460021496E0
2.805819271E0,8.908478737E0,-4.271188378E-1,3.436093330E0
2.808201146E0,8.875576973E0,-4.707878530E-1,3.427120209E0
2.810583073E0,8.885149002E0,-4.941178858E-1,3.407977581E0
2.812964948E0,8.837292671E0,-4.851447940E-1,3.422334671E0
2.815346875E0,8.784649849E0,-4.331009090E-1,3.417548895E0
2.817728750E0,8.790632248E0,-5.383850932E-1,3.417548895E0
2.820110677E0,8.843872070E0,-6.340979934E-1,3.408575773E0
2.822492552E0,8.839685440E0,-6.723831892E-1,3.408575773E0
2.824874480E0,8.849854469E0,-7.339983582E-1,3.418745279E0
2.827256355E0,8.845666885E0,-7.866404653E-1,3.423531055E0
2.829638282E0,8.827122688E0,-8.536394835E-1,3.438486099E0
2.832020157E0,8.846863747E0,-9.158528447E-1,3.462414265E0
2.834402084E0,8.833105087E0,-9.493523836E-1,3.471985579E0
2.836784011E0,8.828319550E0,-9.780662656E-1,3.486940861E0
2.839165886E0,8.814560890E0,-1.016351461E0,3.496512175E0
2.841547813E0,8.800203323E0,-1.040279627E0,3.496512175E0
2.843929688E0,8.796015739E0,-1.073779106E0,3.477369547E0
2.846311615E0,8.815756798E0,-1.107278705E0,3.439682484E0
2.848693490E0,8.834898949E0,-1.135992527E0,3.444468260E0
2.851075417E0,8.825327873E0,-1.150349498E0,3.439682484E0
2.853457292E0,8.825327873E0,-1.126421213E0,3.420539856E0
2.855839219E0,8.849256516E0,-1.121635556E0,3.396611691E0
2.858221094E0,8.867800713E0,-1.116251707E0,3.387040377E0
2.860603021E0,8.906085968E0,-1.087537885E0,3.357728481E0
2.862984896E0,8.953344345E0,-1.063011408E0,3.343371391E0
2.865366823E0,8.977272034E0,-1.039083242E0,3.348157167E0
2.867748698E0,9.019744873E0,-1.033699393E0,3.338585854E0
2.870130625E0,9.076574326E0,-9.852447510E-1,3.366701365E0
2.872512500E0,9.105288506E0,-9.415757060E-1,3.404986620E0
2.874894427E0,9.078967094E0,-7.316055298E-1,3.475574970E0
2.877276302E0,9.169894218E0,-7.639086246E-1,3.485744476E0
2.879658230E0,9.256634712E0,-8.249256015E-1,3.500101328E0
2.882040105E0,9.333204269E0,-8.380861282E-1,3.552743435E0
2.884422032E0,9.395418167E0,-8.374879360E-1,3.600599766E0
2.886803907E0,9.471988678E0,-8.267202377E-1,3.662813187E0
2.889185834E0,9.524630547E0,-8.350951076E-1,3.748954773E0
2.891567709E0,9.587442398E0,-8.530412912E-1,3.844667673E0
2.893949636E0,9.668798447E0,-8.805587292E-1,3.955335855E0
2.896331563E0,9.726823807E0,-9.224331379E-1,4.051048756E0
2.898713438E0,9.798608780E0,-9.212366939E-1,4.175475597E0
2.901095365E0,9.851250648E0,-8.961120844E-1,4.271188259E0
2.903477240E0,9.888937950E0,-8.811569214E-1,4.405186653E0
2.905859167E0,9.932008743E0,-8.560323119E-1,4.485944271E0
2.908241042E0,9.974481583E0,-8.267202377E-1,4.576871395E0
2.910622969E0,1.000798035E1,-7.974081635E-1,4.648656368E0
2.913004844E0,1.004566765E1,-7.441678643E-1,4.686343193E0
2.915386771E0,1.007378292E1,-7.196413875E-1,4.724628448E0
2.917768646E0,1.010189915E1,-6.574280262E-1,4.700700283E0
2.920150573E0,1.013539886E1,-6.382854581E-1,4.685744762E0
2.922532448E0,1.013958549E1,-5.952146053E-1,4.642673969E0
2.924914375E0,1.014855862E1,-5.515456200E-1,4.570889473E0
2.927296250E0,1.016710377E1,-5.138586760E-1,4.503292084E0
2.929678177E0,1.016231823E1,-4.857429862E-1,4.407579422E0
2.932060105E0,1.017607689E1,-4.857429862E-1,4.359723091E0
2.934441980E0,1.016171932E1,-4.671986103E-1,4.287938118E0
2.936823855E0,1.014736271E1,-4.624129832E-1,4.254438877E0
2.939205782E0,1.013300610E1,-4.767699242E-1,4.249652863E0
2.941587709E0,1.009472084E1,-4.582255483E-1,4.259224415E0
2.943969584E0,1.006122112E1,-4.438686073E-1,4.292723656E0
2.946351459E0,1.001815033E1,-4.109672904E-1,4.335794449E0
2.948733386E0,9.965508461E0,-4.013960063E-1,4.421936035E0
2.951115313E0,9.926624298E0,-3.678964674E-1,4.522434711E0
2.953497188E0,9.879366875E0,-3.774677813E-1,4.627718925E0
2.955879115E0,9.845269203E0,-3.391826153E-1,4.728217602E0
2.958260990E0,9.802796364E0,-3.343969584E-1,4.833501816E0
2.960642917E0,9.763913155E0,-3.008974493E-1,4.934000492E0
2.963024792E0,9.716654778E0,-3.062812984E-1,5.000999451E0
2.965406719E0,9.677771568E0,-2.823530734E-1,5.068596363E0
2.967788594E0,9.644271851E0,-2.584248483E-1,5.091926575E0
2.970170521E0,9.620343208E0,-2.249253243E-1,5.149354458E0
2.972552396E0,9.586843491E0,-2.303091735E-1,5.187639713E0
2.974934323E0,9.567701340E0,-2.255235314E-1,5.216353416E0
2.977316198E0,9.548559189E0,-2.255235314E-1,5.249852657E0
2.979698125E0,9.519845009E0,-2.494517565E-1,5.260022163E0
2.982080000E0,9.504889488E0,-2.356930375E-1,5.264209747E0
2.984461927E0,9.486345291E0,-2.404786795E-1,5.269593716E0
2.986843855E0,9.491130829E0,-2.835494876E-1,5.283950806E0
2.989225730E0,9.501300812E0,-3.499503136E-1,5.288736343E0
2.991607657E0,9.482755661E0,-3.834498227E-1,5.284548759E0
2.993989532E0,9.497711182E0,-4.552344978E-1,5.289334297E0
2.996371459E0,9.498309135E0,-5.030909777E-1,5.299503803E0
2.998753334E0,9.537193298E0,-5.700899959E-1,5.323431969E0
3.001135261E0,9.562317848E0,-6.364908218E-1,5.367101192E0
3.003517136E0,9.567701340E0,-6.837490797E-1,5.434100151E0
3.005899063E0,9.577870369E0,-7.118647099E-1,5.539384365E0
3.008280938E0,9.625727654E0,-7.250252366E-1,5.615954876E0
3.010662865E0,9.665208817E0,-8.392825127E-1,5.731408596E0
3.013044740E0,9.719047546E0,-9.625129104E-1,5.832505226E0
3.015426667E0,9.739386559E0,-1.052243710E0,5.957530022E0
3.017808542E0,9.759127617E0,-1.128215909E0,6.067600250E0
3.020190469E0,9.778867722E0,-1.184447169E0,6.159125328E0
3.022572344E0,9.789037704E0,-1.226919770E0,6.269793510E0
3.024954271E0,9.784850121E0,-1.293320656E0,6.366104603E0
3.027336146E0,9.814162254E0,-1.345364571E0,6.433103561E0
3.029718073E0,9.795019150E0,-1.316650629E0,6.504888535E0
3.032099948E0,9.770493507E0,-1.235294700E0,6.561717987E0
3.034481875E0,9.809376717E0,-1.339980721E0,6.557530403E0
3.036863802E0,9.844670296E0,-1.468594909E0,6.562914371E0
3.039245677E0,9.859625816E0,-1.559522152E0,6.582654953E0
3.041627605E0,9.883553505E0,-1.578066587E0,6.558726788E0
3.044009480E0,9.941579819E0,-1.601994753E0,6.491727829E0
3.046391407E0,1.000379372E1,-1.625923038E0,6.352943897E0
3.048773282E0,1.009352398E1,-1.563709617E0,6.145965099E0
3.051155209E0,1.020598698E1,-1.410568953E0,5.863013744E0
3.053537084E0,1.037109184E1,-1.214955688E0,5.478965759E0
3.055919011E0,1.058824062E1,-1.003789067E0,5.104488850E0
3.058300886E0,1.084487057E1,-8.309076428E-1,4.715056896E0
3.060682813E0,1.111047363E1,-7.004988194E-1,4.326223373E0
3.063051407E0,1.138564873E1,-5.754738450E-1,3.937987804E0
3.065446615E0,1.168056393E1,-4.630111754E-1,3.577867985E0
3.067828490E0,1.197607708E1,-3.469592929E-1,3.203391314E0
3.070197136E0,1.223689461E1,-2.267199457E-1,2.781058073E0
3.072592292E0,1.249831104E1,-1.016949639E-1,2.382653236E0
3.074974219E0,1.274417305E1,5.682953820E-2,1.975275040E0
3.077342865E0,1.298704529E1,1.674975902E-1,1.571486235E0
3.079738021E0,1.320538998E1,2.877369225E-1,1.164108157E0
3.082119896E0,1.338544941E1,3.978067636E-1,7.950153351E-1
3.084488542E0,1.351765347E1,5.030909777E-1,4.725824594E-1
3.086883750E0,1.360738373E1,6.035895348E-1,1.950150430E-1
3.089265625E0,1.366840076E1,6.891329288E-1,2.991028363E-3
3.091634271E0,1.363849068E1,7.794619799E-1,-8.374879509E-2
3.094029427E0,1.359003639E1,8.315058947E-1,-2.632104978E-2
3.096411355E0,1.347159195E1,7.740781307E-1,1.555334777E-1
3.098793230E0,1.329631710E1,6.538388133E-1,4.677968323E-1
3.101175157E0,1.304626751E1,3.996013701E-1,8.955138922E-1
3.103557032E0,1.277707481E1,1.022931710E-1,1.328016520E0
3.105938959E0,1.251745319E1,-1.758724600E-1,1.684547186E0
3.108320834E0,1.222792149E1,-3.643072546E-1,1.982453585E0
3.110702761E0,1.193420315E1,-5.288137794E-1,2.174477577E0
3.113084636E0,1.162433243E1,-6.807580590E-1,2.237887383E0
3.115466563E0,1.126241779E1,-7.902296782E-1,2.224128723E0
3.117848438E0,1.087717342E1,-9.188438654E-1,2.115255117E0
3.120217084E0,1.043330479E1,-1.019940615E0,1.957927108E0
3.122612240E0,1.002831936E1,-1.125823021E0,1.724626899E0
3.124994167E0,9.632308006E0,-1.202991605E0,1.413560033E0
3.127362813E0,9.240483284E0,-1.275972724E0,1.088734269E0
3.129757969E0,8.910871506E0,-1.309472203E0,7.585247755E-1
3.132139844E0,8.590831757E0,-1.290927768E0,4.522434771E-1
3.134508490E0,8.312665939E0,-1.299900889E0,1.459621787E-1
3.136903698E0,8.026124954E0,-1.308874011E0,-1.268195957E-1
3.139285573E0,7.767700672E0,-1.289133191E0,-3.804588020E-1
3.141654219E0,7.576872826E0,-1.316052437E0,-6.388836503E-1
3.144049375E0,7.351947784E0,-1.305284739E0,-8.111668825E-1
3.146431302E0,7.116852760E0,-1.274776220E0,-9.738788009E-1
3.148799896E0,6.925426960E0,-1.253839016E0,-1.122233868E0
3.151195105E0,6.748956203E0,-1.256231904E0,-1.227517962E0
3.153576980E0,6.581458569E0,-1.239482164E0,-1.356132269E0
3.155945625E0,6.432505608E0,-1.198804140E0,-1.471585870E0
3.158340782E0,6.341578007E0,-1.166501045E0,-1.576870084E0
3.160722709E0,6.302694798E0,-1.115055323E0,-1.672582984E0
3.163104584E0,6.292525291E0,-1.082154036E0,-1.759322882E0
3.165486511E0,6.326025009E0,-1.072582722E0,-1.817348838E0
3.167868386E0,6.402595043E0,-1.071386337E0,-1.836491346E0
3.170250313E0,6.497709751E0,-1.060618639E0,-1.783849239E0
3.172632188E0,6.636493683E0,-1.039681435E0,-1.712064624E0
3.175014115E0,6.812964439E0,-1.023529887E0,-1.635494232E0
3.177396042E0,7.018148899E0,-9.966106415E-1,-1.472782373E0
3.179777917E0,7.256833076E0,-9.451649189E-1,-1.281954765E0
3.182159792E0,7.509873867E0,-8.835497499E-1,-1.013958573E0
3.184541719E0,7.762316704E0,-7.986045480E-1,-7.274180651E-1
3.186923594E0,8.024331093E0,-7.226324677E-1,-4.211367965E-1
3.189305521E0,8.319844246E0,-6.460621357E-1,-1.010967568E-1
3.191687448E0,8.583054543E0,-5.796613097E-1,2.380858511E-1
3.194069323E0,8.892925262E0,-5.168496966E-1,5.922235847E-1
3.196451250E0,9.212965012E0,-4.785645306E-1,9.266205430E-1
3.198819844E0,9.513862610E0,-4.498506486E-1,1.232901812E0
3.201215052E0,9.824930191E0,-4.163511395E-1,1.509871125E0
3.203596927E0,1.013539886E1,-3.972085714E-1,1.783251047E0
3.205965573E0,1.044108200E1,-3.978067636E-1,1.983649969E0
3.208360730E0,1.070967579E1,-4.229314029E-1,2.175075769E0
3.210742657E0,1.095793152E1,-4.384847581E-1,2.328216314E0
3.213111250E0,1.119242764E1,-4.594219327E-1,2.428714991E0
3.215506459E0,1.144128132E1,-4.899304509E-1,2.476571321E0
3.217888334E0,1.163749313E1,-5.258227587E-1,2.505285263E0
3.220256980E0,1.181994534E1,-5.772684813E-1,2.471785784E0
3.222652136E0,1.196830082E1,-5.898307562E-1,2.457428932E0
3.225034063E0,1.209751320E1,-6.131607890E-1,2.380858421E0
3.227402709E0,1.221655560E1,-6.167500615E-1,2.309073925E0
3.229797865E0,1.226441288E1,-6.263213158E-1,2.237289190E0
3.232179740E0,1.230269718E1,-6.023930907E-1,2.140978098E0
3.234561667E0,1.235474110E1,-5.832505226E-1,2.040479422E0
3.236943594E0,1.235414314E1,-5.401797295E-1,1.916052699E0
3.239325469E0,1.232542896E1,-5.120640397E-1,1.800599098E0
3.241707396E0,1.229133129E1,-4.701896608E-1,1.670788407E0
3.244089271E0,1.219083309E1,-4.815555513E-1,1.555932879E0
3.246471198E0,1.205204964E1,-4.594219327E-1,1.469791293E0
3.248853073E0,1.193240833E1,-4.612165689E-1,1.307079315E0
3.251235000E0,1.183729362E1,-4.917250574E-1,1.135394335E0
3.253616875E0,1.167936707E1,-5.180460811E-1,1.015753269E0
3.255998802E0,1.148375416E1,-5.539384484E-1,9.206385016E-1
3.258380677E0,1.130728340E1,-5.856433511E-1,8.344969153E-1
3.260762605E0,1.106441212E1,-6.693921089E-1,8.207381964E-1
3.263144480E0,1.082632637E1,-7.345965505E-1,7.639086246E-1
3.265526407E0,1.057807064E1,-7.950153351E-1,7.022934556E-1
3.267908282E0,1.035374355E1,-8.500502706E-1,6.598208547E-1
3.270290209E0,1.012522888E1,-9.194421172E-1,6.215356588E-1
3.272672084E0,9.916455269E0,-1.017547846E0,6.035895348E-1
3.275054011E0,9.697511673E0,-1.096511006E0,5.988038778E-1
3.277422657E0,9.506684303E0,-1.189232826E0,5.946164131E-1
3.279817813E0,9.340383530E0,-1.286740422E0,5.515456200E-1
3.282199688E0,9.169894218E0,-1.398604870E0,5.676971674E-1
3.284581615E0,9.032307625E0,-1.495514154E0,5.575276613E-1
3.286963542E0,8.856434822E0,-1.593021631E0,5.730810165E-1
3.289345417E0,8.666205406E0,-1.671386600E0,5.832505226E-1
3.291714063E0,8.499904633E0,-1.759921074E0,5.790630579E-1
3.294109219E0,8.342576027E0,-1.842473388E0,5.940182209E-1
3.296491146E0,8.237890244E0,-1.891526341E0,6.041877270E-1
3.298873021E0,8.100302696E0,-1.945963025E0,6.041877270E-1
3.301254948E0,7.991429329E0,-2.027917147E0,6.478567123E-1
3.303636823E0,7.896314621E0,-2.076371908E0,6.915257573E-1
3.306018750E0,7.767700672E0,-2.091925144E0,7.633104324E-1
3.308400625E0,7.633702278E0,-2.054836512E0,8.159525394E-1
3.310782552E0,7.561917782E0,-2.050648928E0,8.638089895E-1
3.313164427E0,7.532605648E0,-1.989033818E0,8.973084688E-1
3.315546355E0,7.484150887E0,-1.945963025E0,9.637092948E-1
3.317928230E0,7.446464062E0,-1.950748682E0,1.059422255E0
3.320310157E0,7.421937466E0,-1.898106575E0,1.126421213E0
3.322692032E0,7.420741081E0,-1.816750646E0,1.173679471E0
3.325073959E0,7.411170006E0,-1.792224169E0,1.264606714E0
3.327455834E0,7.415955544E0,-1.777269006E0,1.412961721E0
3.329837761E0,7.476972580E0,-1.661217093E0,1.460219979E0
3.332219636E0,7.518846989E0,-1.526620865E0,1.526620865E0
3.334601563E0,7.540980339E0,-1.406381488E0,1.593021631E0
3.336983490E0,7.569096088E0,-1.295713425E0,1.707877159E0
3.339365365E0,7.582256794E0,-1.199402332E0,1.827518344E0
3.341747292E0,7.643871784E0,-1.136590719E0,1.936989903E0
3.344129167E0,7.719245911E0,-1.039681435E0,2.022533417E0
3.346511094E0,7.843074322E0,-1.013958573E0,2.056032896E0
3.348892969E0,7.947760582E0,-9.601200819E-1,2.103291035E0
3.351274896E0,8.070990562E0,-8.919246197E-1,2.132004976E0
3.353656771E0,8.161917686E0,-8.763712645E-1,2.203191519E0
3.356038698E0,8.246863365E0,-8.033902049E-1,2.274976015E0
3.358420573E0,8.307880402E0,-6.975077987E-1,2.336591244E0
3.360802500E0,8.392825127E0,-5.862415433E-1,2.388635159E0
3.363184375E0,8.478966713E0,-5.222335458E-1,2.474178553E0
3.365566302E0,8.555537224E0,-5.114658475E-1,2.579462767E0
3.367948177E0,8.584251404E0,-5.341976285E-1,2.660818815E0
3.370330105E0,8.602795601E0,-4.671986103E-1,2.742174864E0
3.372711980E0,8.563912392E0,-4.139583111E-1,2.876770973E0
3.375093907E0,8.482556343E0,-3.619144261E-1,2.962314367E0
3.377475782E0,8.409575462E0,-3.008974493E-1,2.971885681E0
3.379857709E0,8.285148621E0,-2.733799815E-1,2.957528830E0
3.382239636E0,8.179863930E0,-2.506481707E-1,2.991028309E0
3.384621511E0,8.022536278E0,-2.620140910E-1,3.019742250E0
3.387003438E0,7.855038643E0,-2.679961324E-1,3.053241730E0
3.389385313E0,7.717451096E0,-3.607180119E-1,3.039483070E0
3.391767240E0,7.584051132E0,-3.954139352E-1,3.020938635E0
3.394149115E0,7.460222721E0,-3.876372576E-1,2.977867842E0
3.396531042E0,7.312466145E0,-4.277170599E-1,2.920439959E0
3.398912917E0,7.149754047E0,-4.821537733E-1,2.873181820E0
3.401294844E0,6.967899323E0,-4.366901219E-1,2.810968399E0
3.403676719E0,6.833901405E0,-4.331009090E-1,2.830111027E0
3.406058646E0,6.762714863E0,-4.582255483E-1,2.810968399E0
3.408440521E0,6.701099873E0,-4.971089065E-1,2.758326292E0
3.410822448E0,6.629913330E0,-5.700899959E-1,2.782852650E0
3.413204323E0,6.588038921E0,-6.664010882E-1,2.749353170E0
3.415586250E0,6.483951092E0,-7.776673436E-1,2.716451883E0
3.417968125E0,6.432505608E0,-8.877372146E-1,2.702693224E0
3.420350052E0,6.318846226E0,-9.750752449E-1,2.732005358E0
3.422731927E0,6.200999737E0,-1.095912814E0,2.732603550E0
3.425113855E0,6.162714481E0,-1.134796143E0,2.699702263E0
3.427495730E0,6.071787357E0,-1.140778184E0,2.647060156E0
3.429877657E0,5.995217323E0,-1.165902853E0,2.565704107E0
3.432259532E0,5.943771362E0,-1.238285661E0,2.441875458E0
3.434641459E0,5.887540340E0,-1.335195065E0,2.370090723E0
3.437023334E0,5.855237007E0,-1.479362607E0,2.246262312E0
3.439405261E0,5.813362598E0,-1.594816327E0,2.189432621E0
3.441787136E0,5.766702652E0,-1.686341763E0,2.194816589E0
3.444169063E0,5.757131100E0,-1.705484390E0,2.223530531E0
3.446550938E0,5.785845280E0,-1.724626899E0,2.209173441E0
3.448932865E0,5.857629776E0,-1.723430514E0,2.228316069E0
3.451314792E0,5.915057659E0,-1.713261008E0,2.266601324E0
3.453696667E0,5.947958946E0,-1.683350682E0,2.271386862E0
3.456078594E0,6.000600815E0,-1.678565025E0,2.247458696E0
3.458460469E0,6.000600815E0,-1.678565025E0,2.180459738E0
3.460842396E0,6.044270039E0,-1.722234130E0,2.142174482E0
3.463224271E0,6.077769279E0,-1.755135417E0,2.099103689E0
3.465606198E0,6.144768715E0,-1.778465390E0,2.079961061E0
3.467988073E0,6.251249313E0,-1.825125456E0,2.061416626E0
3.470370000E0,6.409175396E0,-1.866401672E0,2.042274237E0
3.472751875E0,6.567101955E0,-1.883749604E0,2.070987940E0
3.475133802E0,6.757331371E0,-1.804786444E0,2.146960020E0
3.477515677E0,6.971488953E0,-1.753939033E0,2.313859463E0
3.479897605E0,7.192226887E0,-1.794018745E0,2.529213428E0
3.482279480E0,7.374679565E0,-1.832902193E0,2.888735056E0
3.484661407E0,7.542177200E0,-1.858624935E0,3.223730326E0
3.487043282E0,7.695915699E0,-1.893320918E0,3.606581926E0
3.489425209E0,8.045268059E0,-1.910668850E0,4.143172264E0
3.491793855E0,8.413763046E0,-1.932802439E0,4.707878590E0
3.494189011E0,8.758927345E0,-1.979462504E0,5.172684193E0
3.496570938E0,9.108279228E0,-1.973480463E0,5.665606022E0
3.498939532E0,9.419944763E0,-2.078166485E0,6.038886070E0
3.501334740E0,9.704092026E0,-2.197807550E0,6.432505608E0
3.503716615E0,1.006780148E1,-2.297708035E0,6.638288021E0
3.506085261E0,1.037049294E1,-2.383849621E0,7.025925636E0
3.508480417E0,1.083410263E1,-2.383849621E0,6.992425919E0
3.510862344E0,1.117388344E1,-2.460419893E0,7.159923553E0
3.513230938E0,1.139521980E1,-2.566900492E0,7.328019142E0
3.515626146E0,1.163091278E1,-2.755933523E0,7.261020184E0
3.518008021E0,1.181456184E1,-2.907877684E0,7.228118896E0
3.520376667E0,1.205444241E1,-3.005983353E0,7.142575741E0
3.522771823E0,1.219741344E1,-2.974876642E0,7.237690449E0
3.525153750E0,1.247079372E1,-3.043670416E0,7.295117855E0
3.527522396E0,1.266580868E1,-3.013161898E0,7.242475986E0
3.529917552E0,1.285125256E1,-2.905484915E0,7.338188648E0
3.532299427E0,1.300738430E1,-2.697309256E0,7.442276478E0
3.534668073E0,1.304686546E1,-2.337189436E0,7.679764271E0
3.537063230E0,1.313839054E1,-1.957927108E0,7.826324463E0
3.539445157E0,1.332682610E1,-1.697109461E0,8.045268059E0
3.541813750E0,1.348235893E1,-1.518245935E0,7.972286701E0
3.544208959E0,1.376770306E1,-1.383051515E0,7.603193760E0
3.546590886E0,1.397707558E1,-1.343569875E0,7.358527660E0
3.548959480E0,1.422832203E1,-1.083350420E0,7.270591736E0
3.551354688E0,1.439761353E1,-8.482556343E-1,7.135396957E0
3.553736563E0,1.470389557E1,-4.851447940E-1,7.180860519E0
3.556105209E0,1.491805267E1,-3.966103494E-1,7.256833076E0
3.558500365E0,1.529970837E1,-2.961117923E-1,7.448258877E0
3.560882292E0,1.567897034E1,1.076770201E-2,7.829315662E0
3.563250886E0,1.593619919E1,1.393819153E-1,8.230711937E0
3.565646094E0,1.628555107E1,1.405783296E-1,8.604590416E0
3.568027969E0,1.675334740E1,1.950150430E-1,8.929415703E0
3.570396615E0,1.712124443E1,2.333002090E-1,9.187242508E0
3.572791771E0,1.749751472E1,3.720839322E-1,9.434899330E0
3.575173698E0,1.782712746E1,3.822534084E-1,9.789635658E0
3.577542292E0,1.814417648E1,2.679961324E-1,1.011505985E1
3.579937500E0,1.833201218E1,1.423729509E-1,1.045065308E1
3.582319375E0,1.835414696E1,-9.930214286E-2,1.088315582E1
3.584688021E0,1.830928040E1,-3.696911037E-1,1.132941723E1
3.587083177E0,1.823749542E1,-8.045865893E-1,1.168116188E1
3.589465105E0,1.809452438E1,-1.259222865E0,1.188993549E1
3.591833750E0,1.787498283E1,-1.701895118E0,1.181037426E1
3.594228907E0,1.764467430E1,-2.082952023E0,1.156331539E1
3.596610782E0,1.738445473E1,-2.422134638E0,1.120140076E1
3.598979427E0,1.712902069E1,-2.684746981E0,1.085324574E1
3.601374584E0,1.689811325E1,-2.985046148E0,1.056191921E1
3.603756511E0,1.666122437E1,-3.232703447E0,1.030528927E1
3.606125157E0,1.640100479E1,-3.466003656E0,1.005763149E1
3.608520313E0,1.616770363E1,-3.627519131E0,9.799804688E0
3.610902240E0,1.593021679E1,-3.745365620E0,9.599406242E0
3.613270834E0,1.572084522E1,-3.830310822E0,9.388837814E0
3.615666042E0,1.552523136E1,-3.862015724E0,9.121439934E0
3.618047917E0,1.533799362E1,-3.822534084E0,8.810373306E0
3.620416563E0,1.520339680E1,-3.772883177E0,8.441280365E0
3.622811719E0,1.506341648E1,-3.690330744E0,8.072187424E0
3.625193646E0,1.492762375E1,-3.564707518E0,7.683951855E0
3.627562240E0,1.480200100E1,-3.424727440E0,7.305287361E0
3.629957448E0,1.471406460E1,-3.259622574E0,6.978667259E0
3.632339323E0,1.460698605E1,-3.090330362E0,6.695117950E0
3.634707969E0,1.448554993E1,-2.944368362E0,6.479165554E0
3.637103125E0,1.437368584E1,-2.764308453E0,6.311069489E0
3.639485052E0,1.425224972E1,-2.541177750E0,6.186044693E0
3.641853646E0,1.410269833E1,-2.428714991E0,6.055635929E0
3.644248855E0,1.399681568E1,-2.440080881E0,5.926423550E0
3.646630730E0,1.385863018E1,-2.446661234E0,5.940780640E0
3.649012657E0,1.366241932E1,-2.381456852E0,5.974279881E0
3.651394584E0,1.344168091E1,-2.335993052E0,5.955137253E0
3.653776459E0,1.320658684E1,-2.228914261E0,5.931209087E0
3.656145105E0,1.299541950E1,-2.135594130E0,5.901896954E0
3.658540261E0,1.275972652E1,-2.043470621E0,5.753541946E0
3.660922188E0,1.252941799E1,-1.956132531E0,5.499304771E0
3.663290782E0,1.229551888E1,-1.965105653E0,5.203192711E0
3.665685990E0,1.202752304E1,-1.979462504E0,4.795814991E0
3.668067865E0,1.178824043E1,-1.946561217E0,4.216751575E0
3.670436511E0,1.151426220E1,-1.889731646E0,3.747160196E0
3.672831667E0,1.129412270E1,-1.884945989E0,3.182454109E0
3.675213594E0,1.106441212E1,-1.889133453E0,2.755933523E0
3.677582188E0,1.088853931E1,-1.980060697E0,2.206182480E0
3.679977396E0,1.063789082E1,-1.889133453E0,1.775474429E0
3.682359271E0,1.043150997E1,-1.840678811E0,1.348355532E0
3.684727917E0,1.016770172E1,-1.749153376E0,1.109073281E0
3.687123073E0,9.923035622E0,-1.670788407E0,8.602197170E-1
3.689505000E0,9.721440315E0,-1.603191137E0,4.905286431E-1
3.691873646E0,9.496515274E0,-1.587039590E0,3.134597540E-1
3.694268802E0,9.271589279E0,-1.599601984E0,1.848455518E-1
3.696650677E0,9.022137642E0,-1.479362607E0,-5.024927482E-2
3.699019323E0,8.884550095E0,-1.572682738E0,-2.506481707E-1
3.701414480E0,8.663214684E0,-1.465603828E0,-3.415754437E-1
3.703796407E0,8.490931511E0,-1.405783296E0,-4.618147612E-1
3.706165052E0,8.548956871E0,-1.492523074E0,-7.058826685E-1
3.708560209E0,8.545966148E0,-1.674975872E0,-9.541380405E-1
3.710942136E0,8.483154297E0,-1.648654819E0,-1.255633712E0
3.713310730E0,8.482556343E0,-1.611566067E0,-1.571486235E0
3.715705938E0,8.593822479E0,-1.785045743E0,-1.973480463E0
3.718087813E0,8.637491226E0,-1.886142492E0,-2.308475733E0
3.720456459E0,8.708678246E0,-1.834696770E0,-2.676970243E0
3.722851615E0,8.785248756E0,-1.907079697E0,-3.002992392E0
3.725233542E0,8.919246674E0,-1.959721804E0,-3.361915827E0
3.727602136E0,9.086744308E0,-2.012363911E0,-3.773481369E0
3.729997344E0,9.283554077E0,-2.107478619E0,-4.156930923E0
3.732379219E0,9.514460564E0,-2.316850424E0,-4.481158733E0
3.734747865E0,9.858428955E0,-2.763710260E0,-4.814957142E0
3.737143021E0,1.032861900E1,-3.401397467E0,-5.157131195E0
3.739524948E0,1.071266651E1,-4.029513359E0,-5.422734261E0
3.741893542E0,1.099980545E1,-4.524229527E0,-5.531009674E0
3.744288750E0,1.118046379E1,-4.923232555E0,-5.476572990E0
3.746670625E0,1.134676456E1,-5.266004562E0,-5.446662426E0
3.749039271E0,1.151725388E1,-5.602794170E0,-5.368297577E0
3.751434427E0,1.168714428E1,-5.854040623E0,-5.266602516E0
3.753816355E0,1.181874943E1,-6.028716564E0,-5.112864017E0
3.756185000E0,1.195872974E1,-6.175277233E0,-5.015954494E0
3.758580157E0,1.208375454E1,-6.259624004E0,-4.915455818E0
3.760962084E0,1.220877934E1,-6.319444656E0,-4.738387108E0
3.763330677E0,1.225603771E1,-6.260820389E0,-4.508676052E0
3.765725886E0,1.227936745E1,-6.148955822E0,-4.317848682E0
3.768107761E0,1.220578861E1,-5.967101574E0,-4.088735580E0
3.770489688E0,1.208435249E1,-5.752345562E0,-3.892524242E0
3.772871563E0,1.189472103E1,-5.443073273E0,-3.731606960E0
3.775253490E0,1.159801102E1,-4.991427898E0,-3.613760471E0
3.777635365E0,1.121994495E1,-4.441078663E0,-3.553341627E0
3.780017292E0,1.079761219E1,-3.795016766E0,-3.565903902E0
3.782399167E0,1.038425159E1,-3.135794163E0,-3.611367464E0
3.784767813E0,1.001994514E1,-2.575275421E0,-3.685544968E0
3.787162969E0,9.665806770E0,-2.082353830E0,-3.749552965E0
3.789544896E0,9.317052841E0,-1.636690736E0,-3.775275946E0
3.791913490E0,8.940183640E0,-1.268195987E0,-3.800400496E0
3.794308698E0,8.593224525E0,-9.278169870E-1,-3.821337700E0
3.796690573E0,8.201997757E0,-6.071787477E-1,-3.769293785E0
3.799059219E0,7.788039684E0,-2.805584669E-1,-3.593421459E0
3.801454375E0,7.360322475E0,2.392822644E-3,-3.364906788E0
3.803836302E0,6.879963398E0,2.422732860E-1,-3.111865759E0
3.806204948E0,6.462415695E0,4.151547253E-1,-2.930609465E0
3.808600105E0,6.035895348E0,5.120640397E-1,-2.738585472E0
3.810982032E0,5.672784328E0,5.419743061E-1,-2.589632273E0
3.813350625E0,5.358128071E0,5.060819983E-1,-2.450250387E0
3.815745834E0,5.105685234E0,4.319044948E-1,-2.315654039E0
3.818127709E0,4.871787071E0,3.535395563E-1,-2.171486616E0
3.820496355E0,4.652843475E0,2.901297510E-1,-1.984846354E0
3.822891511E0,4.511667252E0,1.274178028E-1,-1.768295884E0
3.825273438E0,4.384847641E0,-4.486542568E-2,-1.493719578E0
3.827642032E0,4.286143780E0,-2.177468538E-1,-1.445264935E0
3.830037240E0,4.255036831E0,-4.390829504E-1,-1.659422517E0
3.832419115E0,4.372883320E0,-7.645068169E-1,-1.960319996E0
3.834801042E0,4.572684288E0,-1.180259824E0,-2.417947292E0
3.837182917E0,4.892724037E0,-1.691127419E0,-2.947957516E0
3.839564844E0,5.203791142E0,-2.143969059E0,-3.376870871E0
3.841933490E0,5.446064472E0,-2.524427891E0,-3.658027649E0
3.844328646E0,5.653641701E0,-2.761915445E0,-3.781257868E0
3.846710521E0,5.837889194E0,-2.975475073E0,-3.771088600E0
3.849079167E0,5.988038540E0,-3.183650494E0,-3.712464333E0
3.851474375E0,6.123831272E0,-3.391826153E0,-3.597010612E0
3.853856250E0,6.274579048E0,-3.576073408E0,-3.400201082E0
3.856224896E0,6.424130440E0,-3.702294827E0,-3.165106058E0
3.858620052E0,6.611369133E0,-3.780061483E0,-2.934797049E0
3.861001927E0,6.803991318E0,-3.882354736E0,-2.666202545E0
3.863370573E0,7.082156658E0,-4.007379532E0,-2.421536446E0
3.865765782E0,7.395018578E0,-4.107878208E0,-2.076970100E0
3.868147657E0,7.730013371E0,-4.183850288E0,-1.718046665E0
3.870516302E0,8.007580757E0,-4.192823410E0,-1.229312658E0
3.872911459E0,8.328219414E0,-4.182055950E0,-7.076773047E-1
3.875293386E0,8.643473625E0,-4.133002758E0,-1.621137410E-1
3.877661980E0,8.934201241E0,-4.012763500E0,3.349951804E-1
3.880057188E0,9.190233231E0,-3.806980848E0,7.459624410E-1
3.882439063E0,9.535996437E0,-3.509672642E0,1.174875975E0
3.884807709E0,9.944570541E0,-3.207578659E0,1.566102386E0
3.887202865E0,1.046740246E1,-2.913261652E0,1.895115495E0
3.889584792E0,1.099561787E1,-2.638685226E0,2.132603168E0
3.891953438E0,1.149392319E1,-2.350350142E0,2.226521492E0
3.894348594E0,1.193958664E1,-1.996810555E0,2.239083767E0
3.896730469E0,1.230748367E1,-1.552941918E0,2.198405743E0
3.899099115E0,1.263649654E1,-1.018744230E0,2.209771633E0
3.901494271E0,1.293260860E1,-4.989035130E-1,2.173879385E0
3.903876198E0,1.318026543E1,9.571290575E-3,2.075175524E0
3.906244844E0,1.342852020E1,4.797609448E-1,1.910070658E0
3.908640000E0,1.360080433E1,8.781659007E-1,1.697707653E0
3.911021927E0,1.368335629E1,1.169492126E0,1.479960799E0
3.913390521E0,1.368574905E1,1.374078393E0,1.273579836E0
3.915785730E0,1.362712479E1,1.482353687E0,1.138983607E0
3.918167605E0,1.352782249E1,1.433300734E0,1.057627559E0
3.920536250E0,1.340399456E1,1.360319614E0,1.058225870E0
3.922931407E0,1.324307728E1,1.234098315E0,1.063609719E0
3.925313334E0,1.302532959E1,1.040877819E0,1.117448211E0
3.927695209E0,1.278365517E1,8.338986635E-1,1.271785259E0
3.930077136E0,1.251446247E1,5.347958803E-1,1.527219057E0
3.932459011E0,1.227876949E1,2.374876440E-1,1.744965911E0
3.934840938E0,1.207717419E1,-5.982056633E-2,2.023729801E0
3.937222813E0,1.194676495E1,-3.804588020E-1,2.279163599E0
3.939604740E0,1.188814068E1,-6.765705943E-1,2.496312141E0
3.941986615E0,1.180917835E1,-9.014959335E-1,2.688336134E0
3.944368542E0,1.181755257E1,-1.191625714E0,2.910868645E0
3.946750417E0,1.187737370E1,-1.414756417E0,3.098107100E0
3.949132344E0,1.198923779E1,-1.622931957E0,3.290729284E0
3.951514271E0,1.210170078E1,-1.841277003E0,3.473780155E0
3.953896146E0,1.225185013E1,-2.021337032E0,3.488735437E0
3.956264792E0,1.238345528E1,-2.286940336E0,3.633501291E0
3.958659948E0,1.238405323E1,-2.358126640E0,3.676572084E0
3.961041875E0,1.233380413E1,-2.544766903E0,3.773481369E0
3.963410469E0,1.229312611E1,-2.773879766E0,3.903890133E0
3.965805677E0,1.221416283E1,-2.956332445E0,4.005585194E0
3.968187552E0,1.217169094E1,-3.043072224E0,4.010969162E0
3.970569480E0,1.220578861E1,-3.104687452E0,4.006183147E0
3.972951355E0,1.239661598E1,-3.059821844E0,4.010969162E0
3.975333282E0,1.262991619E1,-3.029313564E0,3.842274904E0
3.977715157E0,1.285185051E1,-2.797807932E0,3.659224033E0
3.980097084E0,1.309950733E1,-2.657229662E0,3.442673683E0
3.982478959E0,1.345843124E1,-2.734996319E0,3.351746321E0
3.984860886E0,1.378385448E1,-2.822932482E0,3.357130051E0
3.987242761E0,1.412363529E1,-2.779861689E0,3.466601849E0
3.989624688E0,1.449093437E1,-2.737389088E0,3.571287870E0
3.991993334E0,1.491685677E1,-2.803191662E0,3.815355778E0
3.994388490E0,1.544866085E1,-2.897109985E0,4.117449760E0
3.996770365E0,1.588774395E1,-2.809772015E0,4.327419758E0
3.999139011E0,1.634178162E1,-2.813959360E0,4.484747887E0
4.001534167E0,1.681436539E1,-2.764906645E0,4.541577339E0
4.003916094E0,1.733600044E1,-2.870190859E0,4.479363918E0
4.006284740E0,1.769073677E1,-2.947359324E0,4.426722050E0
4.008679896E0,1.804427528E1,-2.948555708E0,4.378865242E0
4.011061823E0,1.834397697E1,-2.816352367E0,4.444668293E0
4.013430417E0,1.863290977E1,-2.985644341E0,4.368695736E0
4.015825625E0,1.897388649E1,-3.172284603E0,4.498506546E0
4.018207500E0,1.935793495E1,-3.334996462E0,4.585246563E0
4.020576146E0,1.960439682E1,-3.122035265E0,4.636692047E0
4.022971302E0,1.985085678E1,-2.922832966E0,4.712066174E0
4.025353230E0,2.010030746E1,-2.981456995E0,4.855635166E0
4.027721823E0,2.031984901E1,-2.968296528E0,5.085944653E0
4.030117032E0,2.054298019E1,-2.840878725E0,5.319244862E0
4.032498907E0,2.066979980E1,-2.618346214E0,5.414359570E0
4.034867552E0,2.073021889E1,-2.469991207E0,5.322235584E0
4.037262709E0,2.070449638E1,-2.298904419E0,5.197210789E0
4.039644636E0,2.060938072E1,-1.875972986E0,4.960321426E0
4.042026511E0,2.050170517E1,-1.633699656E0,4.762913704E0
4.044408438E0,2.035574150E1,-1.430309772E0,4.599603176E0
4.046790313E0,2.024746704E1,-1.127019525E0,4.353740692E0
4.049172240E0,2.006022835E1,-1.024128079E0,4.281956196E0
4.051554115E0,1.985923195E1,-1.018146038E0,4.004388809E0
4.053936042E0,1.951825523E1,-9.134600163E-1,3.683152199E0
4.056317917E0,1.910788536E1,-9.858429432E-1,3.497110367E0
4.058699844E0,1.855633926E1,-7.926225066E-1,3.056232691E0
4.061081771E0,1.797069550E1,-5.958128572E-1,2.600399971E0
4.063450365E0,1.741496277E1,-5.078766346E-1,2.136192322E0
4.065845573E0,1.678744507E1,-4.073780477E-1,1.594816327E0
4.068227448E0,1.605883026E1,-2.309073806E-1,1.188036442E0
4.070596094E0,1.532184124E1,-1.160518974E-1,8.003991842E-1
4.073025209E0,1.456032562E1,-4.007977992E-2,4.648058116E-1
4.075373125E0,1.377906895E1,1.268195957E-1,1.968096644E-1
4.077802240E0,1.300798225E1,3.373879790E-1,-3.349951655E-2
4.080136927E0,1.224586773E1,5.341976285E-1,-6.699903309E-2
4.082518855E0,1.148315620E1,8.189435601E-1,4.725824669E-2
4.084887500E0,1.077248764E1,1.150947690E0,2.135594189E-1
4.087282657E0,1.010967541E1,1.503290772E0,4.139583111E-1
4.089664584E0,9.461818695E0,1.722234130E0,5.862415433E-1
4.092033177E0,8.837292671E0,2.088934183E0,7.429714203E-1
4.094428386E0,8.298309326E0,2.408974171E0,9.816554785E-1
4.096810261E0,7.887341499E0,2.449054003E0,1.369292736E0
4.099178907E0,7.465008259E0,2.718844652E0,1.766501307E0
4.101574063E0,7.131209850E0,3.084946632E0,2.075773716E0
4.103955990E0,6.899106026E0,3.322434187E0,2.252244234E0
4.106324636E0,6.757929325E0,3.178864956E0,2.568695068E0
4.108719792E0,6.683752060E0,3.388236761E0,2.563311338E0
4.111101719E0,6.677769661E0,3.492922783E0,2.428714991E0
4.113470313E0,6.640082836E0,3.472583771E0,2.328216314E0
4.115865521E0,6.628716946E0,3.614358664E0,1.968694806E0
4.118247396E0,6.543771744E0,3.468396425E0,1.581057549E0
4.120616042E0,6.485745907E0,3.503690481E0,1.054636598E0
4.123011198E0,6.375077724E0,3.528815269E0,5.276173949E-1
4.125393125E0,6.221338749E0,3.562912941E0,-4.187439568E-3
4.127761719E0,6.019743443E0,3.596412420E0,-4.683950245E-1
4.130156927E0,5.742774487E0,3.539582968E0,-7.507480979E-1
4.132538802E0,5.399404526E0,3.482753277E0,-9.080761671E-1
4.134907448E0,4.999803066E0,3.287140131E0,-9.690931439E-1
4.137302605E0,4.601995945E0,2.986242771E0,-9.529415965E-1
4.139684532E0,4.195216179E0,2.590230465E0,-7.974081635E-1
4.142053125E0,3.740580082E0,2.190030813E0,-5.802595019E-1
4.144448334E0,3.352942705E0,1.813759565E0,-3.284149170E-1
4.146830209E0,3.042474031E0,1.380658627E0,-1.489532143E-1
4.149198855E0,2.775076151E0,8.482556343E-1,-3.649054468E-2
4.151594011E0,2.556730986E0,2.673979402E-1,2.392822690E-2
4.153975938E0,2.375474691E0,-1.842473447E-1,-6.939185411E-2
4.156344584E0,2.226521492E0,-6.329016089E-1,-4.504488707E-1
4.158739740E0,2.078764677E0,-1.104287624E0,-8.506484628E-1
4.161121667E0,1.876571178E0,-1.491326690E0,-1.370489120E0
4.163490261E0,1.712662816E0,-1.835893154E0,-1.929213285E0
4.165885469E0,1.558325768E0,-2.250449657E0,-2.468196630E0
4.168267344E0,1.413560033E0,-2.579462767E0,-2.993421078E0
4.170635990E0,1.278365493E0,-2.923431158E0,-3.546761274E0
4.173031146E0,1.171884894E0,-3.285345554E0,-4.058227062E0
4.175413073E0,1.045663476E0,-3.580859184E0,-4.568496704E0
4.177781667E0,9.290133715E-1,-3.923032761E0,-4.993222713E0
4.180176875E0,8.183453679E-1,-4.280161381E0,-5.317450047E0
4.182558750E0,6.921239495E-1,-4.597808838E0,-5.569294930E0
4.184927396E0,5.563312769E-1,-4.901099205E0,-5.721239090E0
4.187322552E0,5.066801906E-1,-5.208576679E0,-5.843871117E0
4.189704480E0,4.713860750E-1,-5.491528034E0,-5.947958946E0
4.192073073E0,4.977070987E-1,-5.726024628E0,-6.061617851E0
4.194468282E0,5.766702294E-1,-5.935396671E0,-6.108876228E0
4.196850157E0,6.460621357E-1,-6.159125328E0,-6.131608009E0
4.199218802E0,7.292127013E-1,-6.364310265E0,-6.126224041E0
4.201613959E0,8.787640929E-1,-6.496513367E0,-6.159125328E0
4.203995886E0,9.996016622E-1,-6.634100914E0,-6.226124287E0
4.206364532E0,1.110269666E0,-6.729215622E0,-6.374479294E0
4.208759688E0,1.215553880E0,-6.762116909E0,-6.518048763E0
4.211141615E0,1.277169108E0,-6.734001160E0,-6.709474564E0
4.213523490E0,1.357926846E0,-6.667002201E0,-6.882356167E0
4.215905417E0,1.370489120E0,-6.552744865E0,-7.026523590E0
4.218287292E0,1.302293777E0,-6.387042046E0,-7.204190731E0
4.220669219E0,1.242473125E0,-6.197410583E0,-7.358527660E0
4.223051094E0,1.163509965E0,-5.964110374E0,-7.541578770E0
4.225433021E0,1.108475089E0,-5.707480431E0,-7.700701237E0
4.227814896E0,1.086341500E0,-5.431109428E0,-7.821538925E0
4.230196823E0,1.144367456E0,-5.081757069E0,-7.885547161E0
4.232578698E0,1.202393413E0,-4.688735962E0,-7.858627796E0
4.234947344E0,1.332203984E0,-4.290330887E0,-7.817351341E0
4.237342500E0,1.450648785E0,-3.757329702E0,-7.657032490E0
4.239724427E0,1.636690736E0,-3.228515863E0,-7.411170006E0
4.242093021E0,1.831705689E0,-2.623131752E0,-7.193423271E0
4.244488230E0,2.048854351E0,-1.902294040E0,-6.861418724E0
4.246870105E0,2.303091764E0,-1.079761267E0,-6.439683914E0
4.249238750E0,2.562114954E0,-2.530409992E-1,-6.084349632E0
4.251633907E0,2.884547710E0,5.455635786E-1,-5.676373482E0
4.254015834E0,3.311068296E0,1.327418327E0,-5.101497650E0
4.256384480E0,3.828516245E0,2.134995937E0,-4.477569580E0
4.258779636E0,4.451846600E0,2.948555708E0,-3.677170277E0
4.261161563E0,5.136193752E0,3.883551121E0,-2.513660192E0
4.263530157E0,5.910272121E0,4.889732838E0,-8.243274093E-1
4.265925365E0,6.738786697E0,5.800201893E0,8.668000102E-1
4.268307240E0,7.453044415E0,6.629913330E0,2.734398127E0
4.270675886E0,8.117053032E0,7.198806763E0,4.450650215E0
4.273071042E0,8.764909744E0,7.527820110E0,5.717649937E0
4.275452969E0,9.338588715E0,7.513463020E0,6.478567123E0
4.277821563E0,9.820143700E0,7.256833076E0,6.805187702E0
4.280216771E0,1.013240719E1,6.595815659E0,6.678368092E0
4.282598646E0,1.037288570E1,5.504688263E0,5.964708805E0
4.284967292E0,1.048534870E1,4.238885403E0,4.883152962E0
4.287362448E0,1.058764172E1,3.063411236E0,3.758526087E0
4.289744375E0,1.068395329E1,2.041675806E0,2.766701221E0
4.292112969E0,1.079342461E1,1.125823021E0,1.933400750E0
4.294508177E0,1.091545868E1,3.678964674E-1,1.151545882E0
4.296890052E0,1.104168034E1,-3.266202807E-1,4.450650215E-1
4.299258698E0,1.109432220E1,-8.500502706E-1,-1.411765367E-1
4.301653855E0,1.125763226E1,-1.429711580E0,-7.471588850E-1
4.304035782E0,1.141974640E1,-1.908874273E0,-1.304686546E0
4.306404375E0,1.156630611E1,-2.272583246E0,-1.753939033E0
4.308799584E0,1.191506004E1,-2.720041037E0,-2.278565407E0
4.311181511E0,1.214237881E1,-3.020938635E0,-2.626721144E0
4.313550105E0,1.229731369E1,-3.240479946E0,-2.904288530E0
4.315945313E0,1.245703506E1,-3.445066452E0,-3.119044304E0
4.318327188E0,1.252523041E1,-3.549752474E0,-3.137588739E0
4.320695834E0,1.257787228E1,-3.586841106E0,-3.046661377E0
4.323090990E0,1.261974621E1,-3.446861029E0,-2.860619545E0
4.325472917E0,1.276092339E1,-3.229114056E0,-2.583650351E0
4.327854792E0,1.295474148E1,-2.958127022E0,-2.273779631E0
4.330236719E0,1.320538998E1,-2.704487801E0,-1.911267042E0
4.332618594E0,1.346560955E1,-2.408375978E0,-1.534397483E0
4.334987240E0,1.370608807E1,-2.093121529E0,-1.109671474E0
4.337382396E0,1.398126316E1,-1.883151412E0,-6.897311211E-1
4.339764323E0,1.426182079E1,-1.667199135E0,-2.644068897E-1
4.342132969E0,1.455733490E1,-1.570888042E0,2.470589429E-1
4.344528125E0,1.483849144E1,-1.503290772E0,7.016952634E-1
4.346910000E0,1.497189140E1,-1.408176184E0,1.323230863E0
4.349278646E0,1.501436424E1,-1.338186026E0,1.888535261E0
4.351673802E0,1.513879108E1,-1.301097274E0,2.477169752E0
4.354055730E0,1.522074509E1,-1.283151150E0,2.970091105E0
4.356424375E0,1.526919937E1,-1.328614831E0,3.372683525E0
4.358819532E0,1.534098434E1,-1.322632670E0,3.544966698E0
4.361201459E0,1.538405514E1,-1.335793257E0,3.626322746E0
4.363570052E0,1.545165253E1,-1.392622828E0,3.664607763E0
4.365965261E0,1.548515129E1,-1.387238979E0,3.645465374E0
4.368347136E0,1.556650734E1,-1.410568953E0,3.602394581E0
4.370715782E0,1.555753422E1,-1.491924882E0,3.521636724E0
4.373110938E0,1.554497242E1,-1.650449395E0,3.436093330E0
4.375492865E0,1.550728512E1,-1.704287887E0,3.426522017E0
4.377874740E0,1.547498226E1,-1.790429592E0,3.474976778E0
4.380256667E0,1.544327736E1,-1.947757602E0,3.580859184E0
4.382638542E0,1.547677708E1,-1.971685886E0,3.547957659E0
4.385020469E0,1.546182156E1,-1.918445587E0,3.614358664E0
4.387402344E0,1.550070477E1,-1.946561217E0,3.657429457E0
4.389784271E0,1.554437447E1,-2.008176327E0,3.715455294E0
4.392166146E0,1.556890011E1,-2.074577332E0,3.815953970E0
4.394548073E0,1.556411457E1,-2.055434704E0,3.811168194E0
4.396929948E0,1.565982819E1,-2.078166485E0,3.772883177E0
4.399311875E0,1.582732582E1,-2.143370867E0,3.705883980E0
4.401693750E0,1.607737541E1,-2.284547329E0,3.596412420E0
4.404075677E0,1.628914070E1,-2.401795626E0,3.587439299E0
4.406457552E0,1.650569153E1,-2.556730986E0,3.664607763E0
4.408839480E0,1.668754578E1,-2.578266382E0,3.760320902E0
4.411221407E0,1.688196182E1,-2.423331022E0,3.840480328E0
4.413603282E0,1.709133339E1,-2.367697954E0,3.921238184E0
4.415985209E0,1.727019691E1,-2.562114954E0,3.912863255E0
4.418367084E0,1.743889236E1,-2.626721144E0,3.961317778E0
4.420749011E0,1.758784485E1,-2.711068153E0,3.908077478E0
4.423130886E0,1.776192284E1,-2.930011272E0,3.885345697E0
4.425512813E0,1.791745567E1,-3.162115097E0,3.991826296E0
4.427894688E0,1.806820297E1,-3.427718401E0,4.093521118E0
4.430276615E0,1.816630936E1,-3.641277790E0,4.109074593E0
4.432658490E0,1.825005913E1,-3.899104595E0,3.995415688E0
4.435040417E0,1.836730576E1,-4.185046673E0,3.958326817E0
4.437422292E0,1.846062660E1,-4.448257446E0,3.752544165E0
4.439804219E0,1.853600121E1,-4.725226402E0,3.533600807E0
4.442172865E0,1.852882195E1,-4.965705395E0,3.266801119E0
4.444568021E0,1.839602089E1,-5.160121918E0,3.000001431E0
4.446949896E0,1.818784523E1,-5.340181828E0,2.765504837E0
4.449318542E0,1.791566086E1,-5.395814896E0,2.675175667E0
4.451713698E0,1.758664894E1,-5.408975601E0,2.675773859E0
4.454095625E0,1.716969872E1,-5.351547718E0,2.666202545E0
4.456477552E0,1.675813293E1,-5.294120312E0,2.670988321E0
4.458859427E0,1.630349731E1,-5.213362217E0,2.575275421E0
4.461241355E0,1.583869171E1,-5.128417015E0,2.407777786E0
4.463609948E0,1.535115337E1,-5.115854740E0,2.078166485E0
4.466005157E0,1.484806252E1,-5.060820103E0,1.733600020E0
4.468387032E0,1.433599854E1,-5.000401020E0,1.383649707E0
4.470755677E0,1.381974697E1,-5.031507969E0,1.030110121E0
4.473150834E0,1.328854084E1,-4.972285271E0,6.951149702E-1
4.475532761E0,1.274716473E1,-4.893920422E0,3.499503136E-1
4.477901355E0,1.220040417E1,-4.724628448E0,-6.640082598E-2
4.480296563E0,1.169312572E1,-4.708476543E0,-5.114658475E-1
4.482678438E0,1.116191959E1,-4.609772682E0,-6.795616150E-1
4.485047084E0,1.064267731E1,-4.328616142E0,-6.658028960E-1
4.487442240E0,1.020120144E1,-4.141975880E0,-5.659025311E-1
4.489824167E0,9.774680138E0,-3.988237143E0,-3.936193287E-1
4.492192813E0,9.400801659E0,-3.895515203E0,-3.122633696E-1
4.494587969E0,8.993423462E0,-3.780061483E0,-2.261217386E-1
4.496969844E0,8.618349075E0,-3.511467218E0,-9.810572863E-2
4.499338490E0,8.252246857E0,-3.299702406E0,-1.734796353E-2
4.501733698E0,7.945965767E0,-3.212364435E0,-7.776673418E-3
4.504115573E0,7.635497093E0,-3.196212769E0,4.965107143E-2
4.506484219E0,7.295117855E0,-3.175873756E0,7.896314561E-2
4.508879375E0,6.951747894E0,-3.212962627E0,8.434699476E-2
4.511261302E0,6.583253384E0,-3.140579700E0,1.513460279E-1
4.513629896E0,6.204588890E0,-3.029911757E0,1.603191197E-1
4.516025105E0,5.878567219E0,-2.961716175E0,1.794617027E-1
4.518406980E0,5.557928562E0,-2.879163742E0,1.316052526E-1
4.520775625E0,5.216951370E0,-2.705684185E0,8.793623000E-2
4.523170782E0,4.962115765E0,-2.617748022E0,1.214357466E-1
4.525552709E0,4.693521500E0,-2.525026083E0,1.549352705E-1
4.527921302E0,4.386641979E0,-2.360519648E0,1.974078715E-1
4.530316511E0,4.072584152E0,-2.020140409E0,1.674975902E-1
4.532698386E0,3.835096598E0,-1.764108539E0,2.859423161E-1
4.535067032E0,3.568296671E0,-1.398604870E0,3.038884699E-1
4.537462188E0,3.358326674E0,-9.367900491E-1,3.302095234E-1
4.539844115E0,3.178266764E0,-5.850451589E-1,4.055834413E-1
4.542212761E0,2.982653379E0,-1.848455518E-1,4.516452849E-1
4.544607917E0,2.858824968E0,2.440679073E-1,4.689932466E-1
4.546989844E0,2.724228621E0,7.112665176E-1,4.959124923E-1
4.549358438E0,2.639283419E0,1.073779106E0,5.712863803E-1
4.551753646E0,2.520838737E0,1.488933921E0,6.604190469E-1
4.554135521E0,2.431705952E0,1.785045743E0,7.980063558E-1
4.556504167E0,2.355733871E0,2.215155602E0,9.110672474E-1
4.558899323E0,2.318047047E0,2.611765862E0,1.076770186E0
4.561281250E0,2.306680918E0,2.803191662E0,1.137787223E0
4.563649844E0,2.246262312E0,3.080759048E0,1.170090318E0
4.566045052E0,2.229512453E0,3.309871912E0,1.150349498E0
4.568426927E0,2.237289190E0,3.481556892E0,1.067797065E0
4.570795573E0,2.264208317E0,3.619742393E0,9.667003751E-1
4.573190730E0,2.287538528E0,3.714857101E0,8.177471161E-1
4.575572657E0,2.329412937E0,3.752544165E0,5.539384484E-1
4.577941250E0,2.362912416E0,3.746562004E0,2.811566591E-1
4.580336459E0,2.386840582E0,3.716651678E0,-2.991028316E-2
4.582718334E0,2.439482689E0,3.668197155E0,-3.170489967E-1
4.585100261E0,2.477767944E0,3.658027649E0,-6.047859192E-1
4.587482188E0,2.583650351E0,3.566502094E0,-1.001994491E0
4.589864063E0,2.684746981E0,3.474976778E0,-1.403390527E0
4.592232709E0,2.790629387E0,3.349951744E0,-1.838884234E0
4.594627865E0,2.896511793E0,3.262613773E0,-2.279163599E0
4.597009792E0,3.031706333E0,3.123830080E0,-2.752344131E0
4.599378386E0,3.146561861E0,3.041277647E0,-3.236292601E0
4.601773594E0,3.238087177E0,2.953939438E0,-3.714857101E0
4.604155469E0,3.323630571E0,2.929413080E0,-4.155734539E0
4.606524115E0,3.372085333E0,2.846262455E0,-4.614558697E0
4.608919271E0,3.430111170E0,2.767897606E0,-5.084149837E0
4.611301198E0,3.454637766E0,2.679961443E0,-5.504688263E0
4.613669792E0,3.503690481E0,2.511267424E0,-5.968297958E0
4.616065000E0,3.528217077E0,2.400001049E0,-6.366104603E0
4.618446875E0,3.539582968E0,2.235494614E0,-6.776473522E0
4.620815521E0,3.694518089E0,1.962712765E0,-7.216155052E0
4.623210677E0,3.802195072E0,1.694716692E0,-7.555337429E0
4.625592605E0,3.689134359E0,1.515254974E0,-7.740781307E0
4.627961250E0,3.604787350E0,1.341775298E0,-7.950751305E0
4.630356407E0,3.583251953E0,1.110867858E0,-8.179265976E0
4.632738282E0,3.576073408E0,8.703892231E-1,-8.470592499E0
4.635106927E0,3.601796389E0,6.783652306E-1,-8.737990379E0
4.637502136E0,3.637090445E0,5.000999570E-1,-9.014959335E0
4.639884011E0,3.614956856E0,3.224328458E-1,-9.166903496E0
4.642252657E0,3.559323788E0,1.639083475E-1,-9.233304024E0
4.644647813E0,3.503092289E0,2.452643216E-2,-9.270991325E0
4.647029740E0,3.500699520E0,-1.764706671E-1,-9.269794464E0
4.649398334E0,3.560520172E0,-4.097708762E-1,-9.254839897E0
4.651793542E0,3.686741590E0,-6.185446382E-1,-9.157930374E0
4.654175417E0,3.852444410E0,-8.979067206E-1,-8.955737114E0
4.656544063E0,4.085146427E0,-1.156929731E0,-8.620143890E0
4.658939219E0,4.332205296E0,-1.462612867E0,-8.158329010E0
4.661321146E0,4.607379913E0,-1.710868239E0,-7.583453178E0
4.663689792E0,4.950151920E0,-1.966302037E0,-6.878168583E0
4.666084948E0,5.297709465E0,-2.236092806E0,-6.024528980E0
4.668466823E0,5.707480431E0,-2.490330219E0,-5.138586521E0
4.670835469E0,6.150152206E0,-2.729612350E0,-4.213162422E0
4.673230677E0,6.597609997E0,-2.935395241E0,-3.068196774E0
4.675612552E0,6.973283291E0,-3.092125177E0,-1.765304923E0
4.677981198E0,7.405786037E0,-3.196212769E0,-3.948157430E-1
4.680376355E0,7.899903774E0,-3.293720484E0,1.065404296E0
4.682758282E0,8.437690735E0,-3.383451223E0,3.153740168E0
4.685126875E0,9.052646637E0,-3.473181963E0,6.083751678E0
4.687522084E0,9.772886276E0,-3.582055569E0,8.804390907E0
4.689903959E0,1.044945621E1,-3.753740549E0,1.037527943E1
4.692272605E0,1.097228813E1,-3.890131474E0,1.061456108E1
4.694667761E0,1.129711437E1,-3.943969965E0,9.753145218E0
4.697049688E0,1.141974640E1,-3.964308977E0,8.105088234E0
4.699418282E0,1.140778160E1,-3.834498405E0,6.145965099E0
4.701813490E0,1.127976608E1,-3.629313707E0,4.368695736E0
4.704195365E0,1.117687416E1,-3.454637766E0,3.026920557E0
4.706564011E0,1.114576817E1,-3.320639610E0,2.102094650E0
4.708959167E0,1.113918781E1,-3.195016384E0,1.445264935E0
4.711341094E0,1.117567825E1,-3.072982550E0,8.943174481E-1
4.713709740E0,1.121695423E1,-2.916850805E0,4.091726840E-1
4.716104896E0,1.130548859E1,-2.773879766E0,-3.649054468E-2
4.718486823E0,1.137069321E1,-2.632104874E0,-4.725824594E-1
4.720855417E0,1.141615677E1,-2.441875458E0,-8.811569214E-1
4.723250625E0,1.145204926E1,-2.266601324E0,-1.269990563E0
4.725632500E0,1.149811077E1,-2.124826431E0,-1.648654819E0
4.728001146E0,1.162074280E1,-1.995614052E0,-1.893919110E0
4.730396302E0,1.174337578E1,-1.875374794E0,-2.009372711E0
4.732778230E0,1.194796181E1,-1.695913076E0,-2.020140409E0
4.735146823E0,1.212443256E1,-1.693520188E0,-1.862214208E0
4.737542032E0,1.233858967E1,-1.579861164E0,-1.695314884E0
4.739923907E0,1.265264797E1,-1.445264935E0,-1.255633712E0
4.742292552E0,1.295294762E1,-1.314856052E0,-6.197410822E-1
4.744687709E0,1.326281738E1,-1.184447169E0,5.503492057E-2
4.747069636E0,1.367857075E1,-1.123430252E0,8.638089895E-1
4.749438230E0,1.402194023E1,-1.048654556E0,1.773081541E0
4.751833438E0,1.439103317E1,-1.025922656E0,2.734996319E0
4.754215313E0,1.475952816E1,-1.036690354E0,3.672982693E0
4.756583959E0,1.515374565E1,-1.119242787E0,4.593023300E0
4.758979115E0,1.552762413E1,-1.192223907E0,5.478965759E0
4.761361042E0,1.582971859E1,-1.223330617E0,6.355337143E0
4.763729688E0,1.606900024E1,-1.226321578E0,7.173682213E0
4.766124844E0,1.631426430E1,-1.288534999E0,7.600203037E0
4.768506771E0,1.652543068E1,-1.375872970E0,7.897511005E0
4.770875365E0,1.663729668E1,-1.555932879E0,7.979465485E0
4.773270573E0,1.671147346E1,-1.794616938E0,7.894520283E0
4.775652448E0,1.671386528E1,-2.030309916E0,7.579265594E0
4.778021094E0,1.652004814E1,-2.259422779E0,7.125227451E0
4.780416250E0,1.620598984E1,-2.469991207E0,6.647859573E0
4.782798177E0,1.580519199E1,-2.538784742E0,6.184250355E0
4.785180052E0,1.543789387E1,-2.635095835E0,5.801398277E0
4.787561980E0,1.517528152E1,-2.687139750E0,5.529214859E0
4.789943855E0,1.491266918E1,-2.743969440E0,5.276174068E0
4.792325782E0,1.455374527E1,-2.724826813E0,5.007579803E0
4.794707709E0,1.421336651E1,-2.620140791E0,4.749154568E0
4.797089584E0,1.403211021E1,-2.651247501E0,4.615156651E0
4.799471459E0,1.395075417E1,-2.709871531E0,4.515256405E0
4.801853386E0,1.398006630E1,-2.757728100E0,4.491328239E0
4.804235313E0,1.404347610E1,-2.790031195E0,4.524827480E0
4.806617188E0,1.414935875E1,-2.899502754E0,4.558925152E0
4.808999115E0,1.424566936E1,-2.974876642E0,4.549354076E0
4.811380990E0,1.434736443E1,-3.098705292E0,4.449453831E0
4.813762917E0,1.444905949E1,-3.279961586E0,4.239483356E0
4.816144792E0,1.451426411E1,-3.561716557E0,4.049253941E0
4.818526719E0,1.461177158E1,-3.775874138E0,4.055236340E0
4.820908594E0,1.474756432E1,-3.970290899E0,4.165904045E0
4.823290521E0,1.489891052E1,-4.220939159E0,4.401597023E0
4.825672396E0,1.505683613E1,-4.689932346E0,4.868197441E0
4.828041042E0,1.525544071E1,-4.880760193E0,5.486742496E0
4.830436198E0,1.553599930E1,-5.157729149E0,6.028716564E0
4.832818125E0,1.583330727E1,-5.224130154E0,6.503093719E0
4.835186771E0,1.622991753E1,-5.193621635E0,7.033702374E0
4.837581927E0,1.667797470E1,-5.038087845E0,7.450053215E0
4.839963855E0,1.710090446E1,-4.807778835E0,7.663612843E0
4.842332448E0,1.752862167E1,-4.520640373E0,7.743174076E0
4.844727657E0,1.786242104E1,-4.025924206E0,7.511070251E0
4.847109532E0,1.814238167E1,-3.432504177E0,7.014559746E0
4.849478177E0,1.837089539E1,-2.924627542E0,6.681957245E0
4.851873334E0,1.857129478E1,-2.426920414E0,6.272186279E0
4.854255261E0,1.876630974E1,-1.962712765E0,5.958128452E0
4.856623855E0,1.885723686E1,-1.542174220E0,5.635695457E0
4.859019063E0,1.894457436E1,-1.197607756E0,5.514259815E0
4.861400938E0,1.902652931E1,-8.440681696E-1,5.335396290E0
4.863769584E0,1.912403679E1,-5.910272002E-1,5.080560684E0
4.866164740E0,1.917368698E1,-3.092723191E-1,4.839483738E0
4.868546667E0,1.912822342E1,-9.990034252E-2,4.733003139E0
4.870915313E0,1.905404663E1,1.328016520E-1,4.602594376E0
4.873310469E0,1.892184258E1,4.265206456E-1,4.299902439E0
4.875692344E0,1.872323990E1,6.819544435E-1,4.074378967E0
4.878060990E0,1.847139359E1,9.457631707E-1,3.823730469E0
4.880456198E0,1.817647934E1,1.222732425E0,3.525824070E0
4.882838073E0,1.787797356E1,1.466800332E0,3.184846878E0
4.885206719E0,1.756929970E1,1.692323804E0,2.925823927E0
4.887601875E0,1.728515244E1,1.868794441E0,2.565704107E0
4.889983802E0,1.703450394E1,2.021935225E0,2.201396942E0
4.892352396E0,1.670788383E1,2.160120726E0,1.822732687E0
4.894747605E0,1.633400536E1,2.288136721E0,1.487139225E0
4.897129480E0,1.586800289E1,2.440080881E0,1.213759303E0
4.899498125E0,1.530628872E1,2.694916487E0,8.973084688E-1
4.901893282E0,1.475534058E1,2.807379246E0,5.330012441E-1
4.904275209E0,1.418225956E1,2.766103029E0,2.991028428E-1
4.906643855E0,1.364507103E1,2.893520832E0,9.810572863E-2
4.909039011E0,1.303430271E1,2.824727058E0,8.434699476E-2
4.911420886E0,1.236371422E1,2.961117983E0,1.704886109E-1
4.913789532E0,1.169910812E1,2.964108944E0,3.050848842E-1
4.916184740E0,1.097767162E1,2.995215654E0,3.870390654E-1
4.918566615E0,1.022752190E1,2.987439156E0,4.546363056E-1
4.920935261E0,9.525827408E0,2.885145903E0,6.287141442E-1
4.923330417E0,8.863613129E0,2.734398127E0,8.069794178E-1
4.925712344E0,8.266604424E0,2.690729141E0,9.463613629E-1
4.928080938E0,7.661220074E0,2.617149830E0,1.019342422E0
4.930476146E0,7.077969551E0,2.563311338E0,1.019940615E0
4.932858021E0,6.549155712E0,2.457428932E0,1.121635556E0
4.935226667E0,6.052644730E0,2.376072884E0,1.155733347E0
4.937621823E0,5.605186939E0,2.228316069E0,1.247856975E0
4.940003750E0,5.196612358E0,2.071586132E0,1.368694544E0
4.942372396E0,4.868795872E0,1.848455548E0,1.499103427E0
4.944767552E0,4.540380955E0,1.725823283E0,1.542772412E0
4.947149427E0,4.135993958E0,1.606182218E0,1.596610904E0
4.949518073E0,3.769891977E0,1.368694544E0,1.703689694E0
4.951913282E0,3.427120209E0,1.235892892E0,1.709671736E0
4.954295157E0,3.108874798E0,1.069591761E0,1.614557028E0
4.956663802E0,2.723032236E0,9.361918569E-1,1.591227055E0
4.959058959E0,2.332403898E0,8.171489239E-1,1.554138303E0
4.961440886E0,1.908276081E0,7.501499057E-1,1.478166223E0
4.963809480E0,1.501496196E0,7.316055298E-1,1.540977836E0
4.966204688E0,1.144965649E0,6.089733839E-1,1.622931957E0
4.968586563E0,8.452646136E-1,4.666004181E-1,1.638485312E0
