"Time (s)","Gyroscope x (rad/s)","Gyroscope y (rad/s)","Gyroscope z (rad/s)"
3.037276100E-2,1.568350345E-1,4.077405483E-2,-2.260134928E-2
3.275468800E-2,1.542389393E-1,4.917320609E-2,-2.382304333E-2
3.513656300E-2,1.517955512E-1,5.650337040E-2,-2.275406010E-2
3.751849000E-2,1.430909634E-1,6.734590977E-2,-2.275406010E-2
3.990036500E-2,1.317902952E-1,7.696675509E-2,-2.031067200E-2
4.228229200E-2,1.218640283E-1,8.536590636E-2,-2.046338283E-2
4.466416700E-2,1.119377613E-1,9.513945878E-2,-2.168507688E-2
4.704609400E-2,1.032331884E-1,9.987352788E-2,-2.168507688E-2
4.942796900E-2,9.330692142E-2,1.035386100E-1,-1.924168877E-2
5.180989600E-2,8.704573661E-2,1.046075895E-1,-1.817270555E-2
5.419182300E-2,8.093725890E-2,1.046075895E-1,-1.572931744E-2
5.657369800E-2,7.971556485E-2,9.987352788E-2,-1.191152167E-2
5.895562500E-2,7.727217674E-2,9.743013978E-2,-1.191152167E-2
6.133750000E-2,7.849387079E-2,9.254335612E-2,-8.246437646E-3
6.371942700E-2,7.849387079E-2,8.765657991E-2,-7.024743594E-3
6.610130200E-2,7.727217674E-2,8.154810965E-2,-7.024743594E-3
6.848323000E-2,7.742489129E-2,7.925742865E-2,-4.581354558E-3
7.086510500E-2,7.742489129E-2,7.559234649E-2,-4.581354558E-3
7.324703200E-2,7.620319724E-2,7.070557028E-2,-3.359660041E-3
7.562890700E-2,7.375980914E-2,6.459710002E-2,-9.162708884E-4
7.801083400E-2,7.253811508E-2,5.986303091E-2,1.527118147E-3
8.039270900E-2,7.131642103E-2,5.131116882E-2,2.748812549E-3
8.277463600E-2,7.009471953E-2,4.398100078E-2,4.581354442E-4
8.515656300E-2,6.765133142E-2,3.680354729E-2,1.679830020E-3
8.753843800E-2,6.658235192E-2,2.702999115E-2,1.679830020E-3
8.992036500E-2,6.398624927E-2,2.214321308E-2,1.679830020E-3
9.230224000E-2,6.276455522E-2,1.481304597E-2,-7.635590737E-4
9.468416700E-2,6.032116711E-2,9.926267900E-3,-1.985253533E-3
9.706604200E-2,5.925218388E-2,3.970507067E-3,4.581354442E-4
9.944796900E-2,5.665608495E-2,-2.137965523E-3,-7.635590737E-4
1.018298440E-1,5.176930502E-2,-3.359660041E-3,4.581354442E-4
1.042117710E-1,5.054761097E-2,-7.024743594E-3,1.679830020E-3
1.065936460E-1,4.810422286E-2,-9.468132630E-3,1.679830020E-3
1.089755730E-1,4.810422286E-2,-1.191152167E-2,1.679830020E-3
1.113574480E-1,4.688252881E-2,-1.435491070E-2,2.901524538E-3
1.137393750E-1,4.810422286E-2,-1.557660475E-2,4.123218823E-3
1.161212500E-1,4.810422286E-2,-1.786728203E-2,6.566607859E-3
1.185031770E-1,4.825693369E-2,-1.786728203E-2,9.009997360E-3
1.208851050E-1,4.566083103E-2,-1.786728203E-2,1.023169141E-2
1.232669800E-1,4.581354558E-2,-2.031067200E-2,1.145338640E-2
1.256489070E-1,4.443913698E-2,-1.908897609E-2,1.267508045E-2
1.280307820E-1,4.443913698E-2,-1.908897609E-2,1.389677543E-2
1.304127090E-1,4.321744293E-2,-1.542389300E-2,1.267508045E-2
1.327945840E-1,4.581354558E-2,-2.153236605E-2,1.389677543E-2
1.351765110E-1,4.581354558E-2,-2.275406010E-2,1.389677543E-2
1.375583860E-1,4.703523964E-2,-2.397575416E-2,1.023169141E-2
1.399403130E-1,5.070032179E-2,-2.519745007E-2,9.162709117E-3
1.423221880E-1,4.947862774E-2,-2.764083818E-2,7.941014133E-3
1.447041150E-1,5.314370990E-2,-2.641914412E-2,7.941014133E-3
1.470859900E-1,5.558710173E-2,-2.275406010E-2,7.941014133E-3
1.494679170E-1,6.062658876E-2,-2.153236605E-2,6.719320081E-3
1.518497920E-1,6.062658876E-2,-1.664558798E-2,6.719320081E-3
1.542317190E-1,6.795676053E-2,-1.420219894E-2,6.719320081E-3
1.566135940E-1,7.299624383E-2,-9.315420873E-3,6.719320081E-3
1.589955210E-1,7.543963939E-2,-5.650337320E-3,6.719320081E-3
1.613774480E-1,7.910472155E-2,-1.985253533E-3,7.941014133E-3
1.637593230E-1,8.276980370E-2,4.581354442E-4,9.162709117E-3
1.661412500E-1,8.399149776E-2,2.901524538E-3,1.038440317E-2
1.685231250E-1,8.536590636E-2,1.679830020E-3,1.282779220E-2
1.709050520E-1,8.903098851E-2,5.344913341E-3,1.404948719E-2
1.732869270E-1,8.780929446E-2,7.788302377E-3,1.649287529E-2
1.756688550E-1,8.903098851E-2,9.009997360E-3,1.649287529E-2
1.780507300E-1,9.025268257E-2,1.145338640E-2,1.649287529E-2
1.804326570E-1,8.903098851E-2,9.009997360E-3,1.649287529E-2
1.828145320E-1,8.780929446E-2,1.145338640E-2,1.649287529E-2
1.851964590E-1,8.780929446E-2,1.145338640E-2,2.015795931E-2
1.875783340E-1,8.399149776E-2,1.511846948E-2,1.527118124E-2
1.899602610E-1,7.895200700E-2,2.229592577E-2,1.267508045E-2
1.923421880E-1,7.895200700E-2,2.840439789E-2,1.267508045E-2
1.947240630E-1,7.146912813E-2,3.680354729E-2,1.145338640E-2
1.971059380E-1,6.520794332E-2,4.275930673E-2,7.788302377E-3
1.994878650E-1,5.894676223E-2,5.131116882E-2,5.192201585E-3
2.018697920E-1,5.268557742E-2,5.848862603E-2,5.192201585E-3
2.042516670E-1,4.642439261E-2,6.688777357E-2,1.527118147E-3
2.066335940E-1,3.894151375E-2,7.543963939E-2,-1.068982761E-3
2.090154690E-1,3.527642787E-2,8.017370105E-2,-3.512371797E-3
2.113973960E-1,3.023693897E-2,8.628217876E-2,-3.512371797E-3
2.137792710E-1,2.397575416E-2,9.223793447E-2,-4.734066315E-3
2.161611980E-1,2.015795931E-2,9.712471068E-2,-5.955760833E-3
2.185430730E-1,1.771457121E-2,1.018587798E-1,-9.773556143E-3
2.209250000E-1,1.389677543E-2,1.067455560E-1,-1.466033421E-2
2.233068750E-1,1.389677543E-2,1.079672500E-1,-1.832541823E-2
2.256888020E-1,1.389677543E-2,1.102579311E-1,-1.954711229E-2
2.280707300E-1,1.267508045E-2,1.151447073E-1,-2.199050039E-2
2.304526050E-1,1.130067464E-2,1.163664013E-1,-2.321219631E-2
2.328345320E-1,1.007897966E-2,1.188097894E-1,-2.825168520E-2
2.352164070E-1,7.482878864E-3,1.235438585E-1,-3.191677108E-2
2.375983340E-1,5.039489828E-3,1.308740228E-1,-3.191677108E-2
2.399802090E-1,-2.443389036E-3,1.343863904E-1,-3.558185324E-2
2.423621360E-1,-8.704573847E-3,1.368297935E-1,-3.924693540E-2
2.447440110E-1,-1.618745178E-2,1.391204596E-1,-4.184303805E-2
2.471259380E-1,-1.863084175E-2,1.354553849E-1,-4.428642616E-2
2.495078130E-1,-2.229592577E-2,1.305686086E-1,-4.428642616E-2
2.518897400E-1,-2.718270384E-2,1.244601309E-1,-4.550812021E-2
2.542716150E-1,-2.840439789E-2,1.160609797E-1,-4.917320609E-2
2.566535420E-1,-2.473931387E-2,1.050657257E-1,-5.024218559E-2
2.590354690E-1,-1.969982497E-2,9.544488788E-2,-4.902049154E-2
2.614173440E-1,-1.466033421E-2,8.460234851E-2,-5.024218559E-2
2.637992710E-1,-4.734066315E-3,7.482878864E-2,-5.268557742E-2
2.661811460E-1,1.527118147E-3,6.765133142E-2,-5.253286287E-2
2.685630730E-1,1.145338640E-2,6.398624927E-2,-5.375456065E-2
2.709449480E-1,1.771457121E-2,6.169557199E-2,-5.131116882E-2
2.733268750E-1,2.015795931E-2,6.169557199E-2,-5.131116882E-2
2.757087500E-1,2.886253223E-2,6.291726977E-2,-5.008947477E-2
2.780906770E-1,3.130592033E-2,6.658235192E-2,-4.764608666E-2
2.804725520E-1,3.756710514E-2,6.658235192E-2,-4.627167806E-2
2.828544800E-1,4.001049697E-2,6.902574003E-2,-4.382828996E-2
2.852363550E-1,3.741439432E-2,7.513421029E-2,-4.398100078E-2
2.876182820E-1,3.741439432E-2,8.124268800E-2,-4.275930673E-2
2.900001570E-1,3.619270027E-2,8.964183182E-2,-4.275930673E-2
2.923820840E-1,3.619270027E-2,9.697200358E-2,-4.153761268E-2
2.947639590E-1,3.619270027E-2,9.819369763E-2,-4.153761268E-2
2.971458860E-1,3.497100621E-2,1.006370857E-1,-3.909422457E-2
2.995278130E-1,3.619270027E-2,1.018587798E-1,-4.031591862E-2
3.019096880E-1,3.741439432E-2,1.043021679E-1,-3.909422457E-2
3.042916150E-1,3.863608837E-2,1.018587798E-1,-3.542914242E-2
3.066734900E-1,3.985778242E-2,9.819369763E-2,-3.542914242E-2
3.090554170E-1,4.245388508E-2,9.468132257E-2,-3.420744836E-2
3.114372920E-1,4.367557913E-2,8.857285231E-2,-3.283303976E-2
3.138192190E-1,4.611896724E-2,8.368607610E-2,-3.161134571E-2
3.162010940E-1,4.749337584E-2,7.773031294E-2,-2.916795574E-2
3.185830210E-1,5.115845799E-2,7.162184268E-2,-2.794626169E-2
3.209648960E-1,5.253286287E-2,6.566607952E-2,-2.550287358E-2
3.233468230E-1,5.375456065E-2,6.077930331E-2,-2.305948362E-2
3.257286980E-1,5.512896553E-2,5.344913527E-2,-2.046338283E-2
3.281106250E-1,5.512896553E-2,4.871506989E-2,-1.924168877E-2
3.304925000E-1,5.512896553E-2,4.382828996E-2,-1.557660475E-2
3.328744270E-1,5.268557742E-2,3.894151375E-2,-1.191152167E-2
3.352563020E-1,5.283828825E-2,3.298575059E-2,-9.468132630E-3
3.376382300E-1,4.917320609E-2,2.443389036E-2,-3.359660041E-3
3.400201570E-1,4.428642616E-2,1.725643501E-2,1.527118147E-3
3.424020320E-1,3.939964995E-2,1.114796288E-2,2.901524538E-3
3.447839590E-1,3.313846514E-2,8.704573847E-3,2.748812549E-3
3.471658340E-1,2.687728032E-2,4.886778072E-3,3.054236295E-4
3.495477610E-1,2.321219631E-2,3.665083554E-3,-2.137965523E-3
3.519296360E-1,2.199050039E-2,4.886778072E-3,-5.803049076E-3
3.543115630E-1,2.076880634E-2,6.108472589E-3,-7.024743594E-3
3.566934380E-1,1.817270555E-2,6.108472589E-3,-4.581354558E-3
3.590753650E-1,1.695101149E-2,7.330167107E-3,-3.359660041E-3
3.614572400E-1,1.450762246E-2,7.330167107E-3,-4.581354558E-3
3.638391670E-1,1.206423342E-2,1.099525020E-2,1.527118147E-3
3.662210420E-1,1.084253844E-2,1.221694518E-2,2.748812549E-3
3.686029690E-1,8.399149403E-3,1.221694518E-2,5.192201585E-3
3.709848440E-1,8.399149403E-3,1.588202827E-2,5.192201585E-3
3.733667710E-1,9.468132630E-3,1.817270555E-2,3.970507067E-3
3.757486980E-1,9.620844387E-3,1.588202827E-2,5.192201585E-3
3.781305730E-1,9.620844387E-3,1.466033421E-2,1.007897966E-2
3.805125000E-1,9.620844387E-3,1.466033421E-2,8.857285604E-3
3.828943750E-1,9.620844387E-3,1.710372418E-2,7.635590620E-3
3.852763020E-1,1.206423342E-2,1.954711229E-2,6.413896102E-3
3.876581770E-1,1.450762246E-2,1.832541823E-2,8.857285604E-3
3.900401050E-1,1.695101149E-2,1.954711229E-2,5.192201585E-3
3.924219800E-1,1.695101149E-2,2.076880634E-2,5.192201585E-3
3.948039070E-1,2.076880634E-2,2.076880634E-2,6.413896102E-3
3.971857820E-1,2.199050039E-2,1.832541823E-2,7.635590620E-3
3.995677090E-1,2.321219631E-2,1.954711229E-2,7.635590620E-3
4.019495840E-1,2.565558441E-2,2.076880634E-2,6.413896102E-3
4.043315110E-1,2.687728032E-2,2.199050039E-2,6.413896102E-3
4.067134380E-1,2.809897438E-2,2.076880634E-2,6.413896102E-3
4.090953130E-1,3.191677108E-2,2.076880634E-2,7.635590620E-3
4.114772400E-1,3.313846514E-2,2.687728032E-2,6.413896102E-3
4.138591150E-1,3.436015919E-2,2.687728032E-2,6.413896102E-3
4.162410420E-1,3.680354729E-2,3.054236248E-2,7.635590620E-3
4.186229170E-1,3.924693540E-2,3.542914242E-2,6.413896102E-3
4.210048440E-1,4.046862945E-2,4.138490185E-2,6.413896102E-3
4.233867190E-1,4.413371533E-2,4.749337584E-2,6.413896102E-3
4.257686460E-1,4.535540938E-2,5.482354015E-2,3.970507067E-3
4.281505210E-1,4.657710344E-2,5.726693198E-2,2.748812549E-3
4.305324480E-1,5.024218559E-2,5.848862603E-2,1.527118147E-3
4.329143230E-1,5.390727147E-2,6.093201414E-2,3.054236295E-4
4.352962500E-1,5.757235363E-2,6.215370819E-2,-9.162708884E-4
4.376781770E-1,6.139015034E-2,6.459710002E-2,-2.137965523E-3
4.400600520E-1,6.383354217E-2,6.581879407E-2,-4.581354558E-3
4.424419800E-1,6.749862432E-2,6.459710002E-2,-5.803049076E-3
4.448238550E-1,6.994201243E-2,6.215370819E-2,-8.246437646E-3
4.472057820E-1,7.253811508E-2,5.848862603E-2,-8.246437646E-3
4.495876570E-1,7.498150319E-2,5.253286287E-2,-1.068982668E-2
4.519695840E-1,8.002099395E-2,4.764608666E-2,-1.191152167E-2
4.543514590E-1,8.368607610E-2,3.558185324E-2,-1.298050396E-2
4.567333860E-1,8.506047726E-2,2.580829710E-2,-1.664558798E-2
4.591152610E-1,8.872556686E-2,1.725643501E-2,-1.908897609E-2
4.614971880E-1,9.132166207E-2,3.970507067E-3,-2.153236605E-2
4.638790630E-1,9.009996802E-2,-4.581354558E-3,-2.031067200E-2
4.662609900E-1,8.643488586E-2,-5.650337320E-3,-1.542389300E-2
4.686428650E-1,8.399149776E-2,3.054236295E-4,-1.053711493E-2
4.710247920E-1,8.017370105E-2,1.252236869E-2,-5.650337320E-3
4.734066670E-1,7.391251624E-2,2.580829710E-2,-3.206948051E-3
4.757885940E-1,7.146912813E-2,3.665083647E-2,-1.985253533E-3
4.781704690E-1,6.887302548E-2,5.008947477E-2,-2.137965523E-3
4.805523960E-1,6.383354217E-2,5.848862603E-2,-9.162708884E-4
4.829343230E-1,6.016845629E-2,6.459710002E-2,-9.162708884E-4
4.853161980E-1,5.757235363E-2,6.459710002E-2,1.527118147E-3
4.876981250E-1,5.390727147E-2,6.215370819E-2,1.527118147E-3
4.900800000E-1,5.024218559E-2,5.848862603E-2,2.748812549E-3
4.924619270E-1,4.779879749E-2,5.238015205E-2,3.054236295E-4
4.948438020E-1,4.413371533E-2,4.627167806E-2,-2.137965523E-3
4.972257300E-1,4.031591862E-2,4.016320780E-2,-2.137965523E-3
4.996076050E-1,3.542914242E-2,3.527642787E-2,-2.137965523E-3
5.019895320E-1,3.054236248E-2,3.161134571E-2,-9.162708884E-4
5.043714590E-1,2.550287358E-2,2.916795574E-2,-5.803049076E-3
5.067533340E-1,2.061609551E-2,2.794626169E-2,-5.803049076E-3
5.091352090E-1,1.435491070E-2,2.672456764E-2,-7.024743594E-3
5.115171360E-1,1.068982668E-2,2.794626169E-2,-8.399149403E-3
5.138990630E-1,4.428642802E-3,3.023693897E-2,-9.620844387E-3
5.162809380E-1,7.635590737E-4,3.145863488E-2,-9.620844387E-3
5.186628650E-1,-1.832541777E-3,3.634541109E-2,-1.084253844E-2
5.210447400E-1,-5.497625098E-3,3.512371704E-2,-8.399149403E-3
5.234266670E-1,-9.162709117E-3,3.741439432E-2,-9.620844387E-3
5.258085420E-1,-1.175880991E-2,3.497100621E-2,-9.620844387E-3
5.281904690E-1,-1.298050396E-2,3.497100621E-2,-9.620844387E-3
5.305723440E-1,-1.420219894E-2,3.374931216E-2,-1.084253844E-2
5.329542710E-1,-1.542389300E-2,3.252761811E-2,-1.084253844E-2
5.353361460E-1,-1.664558798E-2,3.130592033E-2,-9.620844387E-3
5.377180730E-1,-1.908897609E-2,2.886253223E-2,-1.084253844E-2
5.400999480E-1,-2.031067200E-2,2.535016090E-2,-7.177455351E-3
5.424818750E-1,-2.153236605E-2,2.290677279E-2,-4.734066315E-3
5.448637500E-1,-2.275406010E-2,1.924168877E-2,-3.512371797E-3
5.472456770E-1,-2.397575416E-2,1.679829881E-2,-3.512371797E-3
5.496276050E-1,-2.397575416E-2,1.557660475E-2,-2.290677279E-3
5.520094800E-1,-2.519745007E-2,9.468132630E-3,1.527118147E-4
5.543914070E-1,-2.504473738E-2,3.512371797E-3,1.527118147E-4
5.567732820E-1,-3.008422814E-2,-5.039489828E-3,1.527118147E-4
5.591552090E-1,-3.115320951E-2,-1.236965694E-2,2.748812549E-3
5.615370840E-1,-3.359659761E-2,-2.199050039E-2,5.192201585E-3
5.639190110E-1,-3.603998944E-2,-3.176405653E-2,5.192201585E-3
5.663008860E-1,-3.848337755E-2,-3.894151375E-2,6.413896102E-3
5.686828130E-1,-4.092676565E-2,-4.749337584E-2,8.857285604E-3
5.710646880E-1,-4.214845970E-2,-5.726693198E-2,1.007897966E-2
5.734466150E-1,-4.337015375E-2,-6.200099736E-2,8.857285604E-3
5.758284900E-1,-4.581354558E-2,-7.055285573E-2,8.857285604E-3
5.782104170E-1,-4.566083103E-2,-7.299624383E-2,1.252236869E-2
5.805923440E-1,-4.825693369E-2,-7.543963939E-2,1.007897966E-2
5.829742190E-1,-4.947862774E-2,-7.543963939E-2,7.635590620E-3
5.853560940E-1,-5.192201585E-2,-7.299624383E-2,1.130067464E-2
5.877380210E-1,-5.192201585E-2,-7.055285573E-2,1.130067464E-2
5.901199480E-1,-5.451811850E-2,-6.337540597E-2,6.413896102E-3
5.925018230E-1,-5.573981255E-2,-6.093201414E-2,5.192201585E-3
5.948837500E-1,-5.955760926E-2,-5.497625470E-2,2.748812549E-3
5.972656250E-1,-6.200099736E-2,-5.253286287E-2,3.054236295E-4
5.996475520E-1,-6.200099736E-2,-4.764608666E-2,1.527118147E-3
6.020294270E-1,-6.704048812E-2,-4.398100078E-2,-1.068982761E-3
6.044113550E-1,-6.826218218E-2,-4.169032723E-2,-2.290677279E-3
6.067932300E-1,-6.826218218E-2,-3.802524135E-2,-2.290677279E-3
6.091751570E-1,-7.085828483E-2,-3.558185324E-2,-1.068982761E-3
6.115570320E-1,-7.207997888E-2,-3.558185324E-2,-1.068982761E-3
6.139389590E-1,-7.207997888E-2,-3.558185324E-2,-1.068982761E-3
6.163208340E-1,-7.207997888E-2,-3.802524135E-2,-4.734066315E-3
6.187027610E-1,-7.207997888E-2,-4.046862945E-2,-2.290677279E-3
6.210846880E-1,-6.948387623E-2,-4.169032723E-2,-2.290677279E-3
6.234665630E-1,-6.948387623E-2,-4.657710344E-2,-2.290677279E-3
6.258484900E-1,-6.826218218E-2,-5.253286287E-2,-3.512371797E-3
6.282303650E-1,-6.688777357E-2,-5.497625470E-2,3.054236295E-4
6.306122920E-1,-6.444438547E-2,-6.337540597E-2,-9.162708884E-4
6.329941670E-1,-6.184828654E-2,-6.826218218E-2,1.527118147E-3
6.353760940E-1,-6.062658876E-2,-7.314895838E-2,3.970507067E-3
6.377579690E-1,-5.940489471E-2,-7.910472155E-2,3.970507067E-3
6.401398960E-1,-5.940489471E-2,-8.643488586E-2,3.970507067E-3
6.425217710E-1,-5.680879578E-2,-9.376505762E-2,3.970507067E-3
6.449036980E-1,-5.680879578E-2,-9.849911928E-2,6.566607859E-3
6.472855730E-1,-5.299099907E-2,-1.021642014E-1,6.566607859E-3
6.496675000E-1,-5.421269313E-2,-1.082726792E-1,5.344913341E-3
6.520493750E-1,-5.421269313E-2,-1.119377613E-1,7.788302377E-3
6.544313020E-1,-5.176930502E-2,-1.119377613E-1,5.344913341E-3
6.568131770E-1,-5.054761097E-2,-1.130067408E-1,6.566607859E-3
6.591951050E-1,-5.054761097E-2,-1.117850468E-1,6.566607859E-3
6.615769800E-1,-4.795150831E-2,-1.130067408E-1,5.344913341E-3
6.639589070E-1,-4.795150831E-2,-1.130067408E-1,5.344913341E-3
6.663408340E-1,-4.550812021E-2,-1.105633527E-1,4.123218823E-3
6.687227090E-1,-4.306473210E-2,-1.068982705E-1,5.344913341E-3
6.711046360E-1,-4.184303805E-2,-1.068982705E-1,4.123218823E-3
6.734865110E-1,-4.184303805E-2,-1.021642014E-1,5.344913341E-3
6.758684380E-1,-3.939964995E-2,-9.605573118E-2,2.901524538E-3
6.782503130E-1,-4.077405483E-2,-9.361234307E-2,2.901524538E-3
6.806322400E-1,-3.955236077E-2,-9.116895497E-2,-7.635590737E-4
6.830141150E-1,-3.573456407E-2,-8.750387281E-2,4.581354442E-4
6.853960420E-1,-3.573456407E-2,-8.628217876E-2,4.581354442E-4
6.877779170E-1,-3.588727489E-2,-8.506047726E-2,-1.985253533E-3
6.901598440E-1,-3.329117596E-2,-8.276980370E-2,-3.206948051E-3
6.925417190E-1,-3.084778599E-2,-8.154810965E-2,-3.206948051E-3
6.949236460E-1,-2.962609194E-2,-8.032641560E-2,-4.428642802E-3
6.973055210E-1,-2.962609194E-2,-8.032641560E-2,-4.428642802E-3
6.996874480E-1,-2.840439789E-2,-7.910472155E-2,-6.872031838E-3
7.020693230E-1,-2.718270384E-2,-7.910472155E-2,-4.428642802E-3
7.044512500E-1,-2.473931387E-2,-8.139539510E-2,-3.206948051E-3
7.068331770E-1,-2.351761982E-2,-8.261708915E-2,-4.428642802E-3
7.092150520E-1,-2.214321308E-2,-8.506047726E-2,-4.428642802E-3
7.115969800E-1,-2.092151903E-2,-8.506047726E-2,-5.650337320E-3
7.139788550E-1,-1.969982497E-2,-8.506047726E-2,-6.872031838E-3
7.163607820E-1,-1.847812906E-2,-8.750387281E-2,-5.650337320E-3
7.187426570E-1,-1.466033421E-2,-8.994726092E-2,-5.650337320E-3
7.211245840E-1,-1.603474095E-2,-8.872556686E-2,-4.428642802E-3
7.235064590E-1,-1.221694518E-2,-9.101624042E-2,-3.206948051E-3
7.258883860E-1,-9.773556143E-3,-9.101624042E-2,-1.985253533E-3
7.282702610E-1,-8.551862091E-3,-9.223793447E-2,-7.635590737E-4
7.306521880E-1,-5.955760833E-3,-8.979454637E-2,1.679830020E-3
7.330340630E-1,-4.734066315E-3,-8.857285231E-2,4.581354442E-4
7.354159900E-1,-1.068982761E-3,-8.857285231E-2,2.901524538E-3
7.377979170E-1,3.970507067E-3,-8.857285231E-2,5.497625098E-3
7.401797920E-1,5.192201585E-3,-8.857285231E-2,6.719320081E-3
7.425617190E-1,6.413896102E-3,-8.612946421E-2,7.941014133E-3
7.449435940E-1,8.857285604E-3,-8.597674966E-2,1.038440317E-2
7.473255210E-1,1.389677543E-2,-8.597674966E-2,1.404948719E-2
7.497073960E-1,1.634016447E-2,-8.597674966E-2,1.527118124E-2
7.520893230E-1,1.634016447E-2,-8.719844371E-2,1.527118124E-2
7.544711980E-1,2.015795931E-2,-8.597674966E-2,1.771457121E-2
7.568531250E-1,2.260134928E-2,-8.719844371E-2,2.015795931E-2
7.592350000E-1,2.382304333E-2,-8.597674966E-2,2.137965336E-2
7.616169270E-1,2.626643144E-2,-8.582404256E-2,2.504473738E-2
7.639988020E-1,2.886253223E-2,-8.704573661E-2,2.626643144E-2
7.663807300E-1,3.008422814E-2,-8.704573661E-2,2.748812735E-2
7.687626570E-1,3.374931216E-2,-8.460234851E-2,2.764083818E-2
7.711445320E-1,3.374931216E-2,-8.460234851E-2,2.886253223E-2
7.735264590E-1,3.374931216E-2,-8.460234851E-2,3.008422814E-2
7.759083340E-1,3.497100621E-2,-8.460234851E-2,3.130592033E-2
7.782902610E-1,3.497100621E-2,-8.460234851E-2,3.130592033E-2
7.806721360E-1,3.374931216E-2,-8.582404256E-2,2.886253223E-2
7.830540630E-1,3.374931216E-2,-8.826743066E-2,2.641914412E-2
7.854359380E-1,3.252761811E-2,-9.071081877E-2,2.764083818E-2
7.878178650E-1,3.130592033E-2,-9.681928903E-2,2.764083818E-2
7.901997400E-1,2.764083818E-2,-1.004843712E-1,2.641914412E-2
7.925816670E-1,2.397575416E-2,-1.088835225E-1,2.397575416E-2
7.949635420E-1,2.153236605E-2,-1.125486046E-1,2.275406010E-2
7.973454690E-1,1.786728203E-2,-1.223221645E-1,2.153236605E-2
7.997273440E-1,1.160609815E-2,-1.296523362E-1,1.786728203E-2
8.021092710E-1,7.941014133E-3,-1.418692768E-1,1.542389300E-2
8.044911460E-1,1.832541777E-3,-1.514901221E-1,1.542389300E-2
8.068730730E-1,-6.108472589E-4,-1.624853760E-1,1.298050396E-2
8.092549480E-1,-4.275931045E-3,-1.759240031E-1,1.175880991E-2
8.116368750E-1,-9.162709117E-3,-1.867665499E-1,1.175880991E-2
8.140188020E-1,-1.527118124E-2,-2.002051920E-1,9.315420873E-3
8.164006770E-1,-1.649287529E-2,-2.086043358E-1,1.175880991E-2
8.187826050E-1,-2.015795931E-2,-2.159345001E-1,9.315420873E-3
8.211644800E-1,-2.626643144E-2,-2.244863659E-1,8.093725890E-3
8.235464070E-1,-2.886253223E-2,-2.281514555E-1,9.315420873E-3
8.259282820E-1,-2.993151546E-2,-2.330382317E-1,1.053711493E-2
8.283102090E-1,-3.252761811E-2,-2.391466945E-1,9.468132630E-3
8.306920840E-1,-3.374931216E-2,-2.415900975E-1,8.093725890E-3
8.330740110E-1,-3.497100621E-2,-2.487675399E-1,7.024743594E-3
8.354558860E-1,-3.237490356E-2,-2.536543310E-1,5.803049076E-3
8.378378130E-1,-3.115320951E-2,-2.573194206E-1,4.581354558E-3
8.402196880E-1,-2.993151546E-2,-2.646495700E-1,3.359660041E-3
8.426016150E-1,-2.855710872E-2,-2.693836391E-1,9.162708884E-4
8.449834900E-1,-2.611372061E-2,-2.754921019E-1,2.137965523E-3
8.473654170E-1,-2.489202656E-2,-2.803788781E-1,9.162708884E-4
8.497473440E-1,-2.229592577E-2,-2.851129472E-1,-3.054236295E-4
8.521292190E-1,-1.985253580E-2,-2.899997234E-1,-3.054236295E-4
8.545111460E-1,-1.618745178E-2,-2.924431264E-1,-2.748812549E-3
8.568930210E-1,-1.603474095E-2,-2.985515893E-1,-2.596100792E-3
8.592749480E-1,-1.603474095E-2,-2.997733057E-1,-3.817795310E-3
8.616568230E-1,-1.236965694E-2,-3.022166789E-1,-7.482878864E-3
8.640387500E-1,-1.114796288E-2,-3.057290614E-1,-8.704573847E-3
8.664206250E-1,-9.926267900E-3,-3.106158376E-1,-8.704573847E-3
8.688025520E-1,-7.330167107E-3,-3.130592108E-1,-9.926267900E-3
8.711844270E-1,-9.926267900E-3,-3.167243004E-1,-1.236965694E-2
8.735663550E-1,-1.099525020E-2,-3.240544796E-1,-1.481304597E-2
8.759482300E-1,-8.551862091E-3,-3.287885487E-1,-1.359135192E-2
8.783301570E-1,-9.773556143E-3,-3.361186981E-1,-1.481304597E-2
8.807120320E-1,-8.551862091E-3,-3.458922505E-1,-1.603474095E-2
8.830939590E-1,-8.399149403E-3,-3.542914093E-1,-1.603474095E-2
8.854758340E-1,-7.177455351E-3,-3.640649617E-1,-1.710372418E-2
8.878577610E-1,-5.955760833E-3,-3.700207174E-1,-1.710372418E-2
8.902396880E-1,-3.359660041E-3,-3.797942698E-1,-1.710372418E-2
8.926215630E-1,4.581354442E-4,-3.906368315E-1,-1.588202827E-2
8.950034900E-1,5.497625098E-3,-3.979669809E-1,-1.710372418E-2
8.973853650E-1,1.038440317E-2,-4.051444530E-1,-1.572931744E-2
8.997672920E-1,1.664558798E-2,-4.112529159E-1,-1.328592747E-2
9.021491670E-1,2.168507688E-2,-4.147652984E-1,-1.328592747E-2
9.045310940E-1,2.916795574E-2,-4.196520746E-1,-1.206423342E-2
9.069129690E-1,3.405473381E-2,-4.207210541E-1,-9.620844387E-3
9.092948960E-1,3.787253052E-2,-4.207210541E-1,-9.468132630E-3
9.116767710E-1,4.153761268E-2,-4.207210541E-1,-8.246437646E-3
9.140586980E-1,4.398100078E-2,-4.194993675E-1,-7.024743594E-3
9.164405730E-1,4.902049154E-2,-4.158342779E-1,-7.024743594E-3
9.188225000E-1,5.268557742E-2,-4.109475017E-1,-8.246437646E-3
9.212044270E-1,5.390727147E-2,-4.072824121E-1,-4.581354558E-3
9.235863020E-1,5.390727147E-2,-3.988832533E-1,-5.803049076E-3
9.259682300E-1,5.497625470E-2,-3.891097009E-1,-5.955760833E-3
9.283501050E-1,5.253286287E-2,-3.807105422E-1,-7.177455351E-3
9.307320320E-1,4.993676394E-2,-3.721587062E-1,-8.399149403E-3
9.331139070E-1,5.115845799E-2,-3.600944579E-1,-7.177455351E-3
9.354958340E-1,4.734066129E-2,-3.527642787E-1,-7.177455351E-3
9.378777090E-1,4.489727318E-2,-3.443651497E-1,-8.551862091E-3
9.402596360E-1,4.352286831E-2,-3.370349705E-1,-8.551862091E-3
9.426415110E-1,3.985778242E-2,-3.274141252E-1,-8.551862091E-3
9.450234380E-1,3.603998944E-2,-3.213056624E-1,-9.773556143E-3
9.474053130E-1,3.237490356E-2,-3.116848171E-1,-7.330167107E-3
9.497872400E-1,3.100049868E-2,-3.031329513E-1,-9.926267900E-3
9.521691150E-1,2.718270384E-2,-2.959555089E-1,-1.114796288E-2
9.545510420E-1,2.596100792E-2,-2.910687327E-1,-1.114796288E-2
9.569329170E-1,2.092151903E-2,-2.861819267E-1,-1.236965694E-2
9.593148440E-1,1.847812906E-2,-2.826695740E-1,-1.359135192E-2
9.616967190E-1,1.343864016E-2,-2.777827978E-1,-1.603474095E-2
9.640786460E-1,8.399149403E-3,-2.718270421E-1,-1.985253580E-2
9.664605210E-1,4.734066315E-3,-2.681619525E-1,-1.985253580E-2
9.688424480E-1,9.162708884E-4,-2.620534599E-1,-2.107422985E-2
9.712243750E-1,-1.527118147E-3,-2.548760176E-1,-2.473931387E-2
9.736062500E-1,-4.123218823E-3,-2.452551723E-1,-2.611372061E-2
9.759881770E-1,-5.344913341E-3,-2.354816198E-1,-2.733541466E-2
9.783700520E-1,-7.941014133E-3,-2.270824611E-1,-2.733541466E-2
9.807519800E-1,-8.093725890E-3,-2.124221325E-1,-2.855710872E-2
9.831338550E-1,-9.315420873E-3,-1.979145110E-1,-2.993151546E-2
9.855157820E-1,-8.246437646E-3,-1.870719790E-1,-3.115320951E-2
9.878976570E-1,-7.024743594E-3,-1.687465608E-1,-2.993151546E-2
9.902795840E-1,-8.399149403E-3,-1.542389393E-1,-3.481829539E-2
9.926614590E-1,-8.399149403E-3,-1.372879148E-1,-3.497100621E-2
9.950433860E-1,-7.330167107E-3,-1.227803007E-1,-3.863608837E-2
9.974252610E-1,-6.108472589E-3,-1.033858955E-1,-3.985778242E-2
9.998071880E-1,-3.817795310E-3,-9.116895497E-2,-3.985778242E-2
1.002189115E0,-1.527118147E-4,-7.910472155E-2,-4.245388508E-2
1.004570990E0,4.734066315E-3,-6.322269142E-2,-4.245388508E-2
1.006952917E0,9.620844387E-3,-5.115845799E-2,-4.001049697E-2
1.009334792E0,1.450762246E-2,-3.894151375E-2,-3.878879920E-2
1.011716719E0,1.817270555E-2,-2.916795574E-2,-3.634541109E-2
1.014098594E0,2.321219631E-2,-2.061609551E-2,-3.145863488E-2
1.016480521E0,2.687728032E-2,-1.099525020E-2,-2.535016090E-2
1.018862396E0,3.054236248E-2,-2.443389036E-3,-1.801999472E-2
1.021244323E0,3.558185324E-2,3.665083554E-3,-1.313321572E-2
1.023626198E0,3.924693540E-2,8.551862091E-3,-9.468132630E-3
1.026008125E0,4.306473210E-2,1.236965694E-2,-4.581354558E-3
1.028390000E0,4.428642616E-2,1.832541823E-2,3.054236295E-4
1.030771927E0,4.550812021E-2,2.687728032E-2,2.748812549E-3
1.033153802E0,4.535540938E-2,3.298575059E-2,5.192201585E-3
1.035535730E0,4.657710344E-2,3.909422457E-2,7.635590620E-3
1.037917657E0,4.657710344E-2,5.008947477E-2,1.618745178E-2
1.040299532E0,4.795150831E-2,5.482354015E-2,1.985253580E-2
1.042681459E0,5.039490014E-2,6.581879407E-2,2.596100792E-2
1.045063334E0,5.405998230E-2,7.437065244E-2,3.206948191E-2
1.047445261E0,6.016845629E-2,8.170082420E-2,3.817795217E-2
1.049827136E0,6.520794332E-2,9.025268257E-2,4.184303805E-2
1.052209063E0,7.269082218E-2,9.758284688E-2,4.932591692E-2
1.054590938E0,8.002099395E-2,1.061347127E-1,5.176930502E-2
1.056972865E0,8.612946421E-2,1.146865711E-1,5.543438718E-2
1.059354740E0,9.620844573E-2,1.172826737E-1,6.032116711E-2
1.061736667E0,1.010952219E-1,1.221694499E-1,6.398624927E-2
1.064118542E0,1.085781008E-1,1.270562261E-1,6.765133142E-2
1.066500469E0,1.159082651E-1,1.270562261E-1,6.887302548E-2
1.068882344E0,1.197260618E-1,1.294996142E-1,7.009471953E-2
1.071264271E0,1.258345395E-1,1.294996142E-1,7.024743408E-2
1.073646146E0,1.270562261E-1,1.294996142E-1,7.146912813E-2
1.076028073E0,1.296523362E-1,1.247655526E-1,7.146912813E-2
1.078410000E0,1.296523362E-1,1.211004704E-1,7.269082218E-2
1.080791875E0,1.259872466E-1,1.162136942E-1,7.146912813E-2
1.083173802E0,1.247655526E-1,1.076618284E-1,6.902574003E-2
1.085555677E0,1.223221645E-1,9.926267713E-2,6.780404598E-2
1.087937605E0,1.174353883E-1,9.193251282E-2,6.536065787E-2
1.090319480E0,1.162136942E-1,8.460234851E-2,6.413896382E-2
1.092701407E0,1.137702987E-1,7.482878864E-2,6.291726977E-2
1.095083282E0,1.149920002E-1,7.009471953E-2,6.291726977E-2
1.097465209E0,1.125486046E-1,6.276455522E-2,6.291726977E-2
1.099847084E0,1.113269106E-1,5.665608495E-2,6.291726977E-2
1.102229011E0,1.101052165E-1,5.299099907E-2,6.413896382E-2
1.104610886E0,1.088835225E-1,4.703523964E-2,6.551336497E-2
1.106992813E0,1.090362370E-1,3.970507160E-2,6.429167092E-2
1.109374688E0,1.078145429E-1,3.481829539E-2,6.429167092E-2
1.111756615E0,1.039967462E-1,2.870982140E-2,6.551336497E-2
1.114138490E0,1.041494608E-1,1.908897609E-2,6.551336497E-2
1.116520417E0,1.029277667E-1,1.420219894E-2,6.429167092E-2
1.118902292E0,1.004843712E-1,6.872031838E-3,6.429167092E-2
1.121284219E0,9.926267713E-2,7.635590737E-4,6.429167092E-2
1.123666146E0,9.804098308E-2,-4.123218823E-3,6.184828654E-2
1.126048021E0,9.315420687E-2,-1.007897966E-2,6.429167092E-2
1.128429948E0,9.055810422E-2,-1.130067464E-2,6.306997687E-2
1.130811823E0,8.933641016E-2,-1.007897966E-2,6.551336497E-2
1.133193750E0,8.567132801E-2,-6.566607859E-3,6.551336497E-2
1.135575625E0,8.185353130E-2,-1.679830020E-3,6.551336497E-2
1.137957552E0,8.063183725E-2,7.941014133E-3,6.673506647E-2
1.140339427E0,7.925742865E-2,1.893626526E-2,6.536065787E-2
1.142721355E0,7.299624383E-2,2.977880463E-2,6.413896382E-2
1.145103230E0,7.055285573E-2,3.939964995E-2,6.169557199E-2
1.147485157E0,6.795676053E-2,5.283828825E-2,5.925218388E-2
1.149867032E0,6.413896382E-2,6.612421572E-2,5.665608495E-2
1.152248959E0,6.154286116E-2,7.574506104E-2,5.299099907E-2
1.154630886E0,5.650337040E-2,9.147437662E-2,4.917320609E-2
1.157012761E0,5.146388337E-2,1.010952219E-1,4.795150831E-2
1.159394688E0,4.886778072E-2,1.133121699E-1,4.306473210E-2
1.161776563E0,4.260659590E-2,1.229330078E-1,4.046862945E-2
1.164158490E0,3.649812192E-2,1.288887709E-1,3.680354729E-2
1.166540365E0,3.390202299E-2,1.374406368E-1,3.436015919E-2
1.168922292E0,2.886253223E-2,1.421747059E-1,3.191677108E-2
1.171304167E0,2.260134928E-2,1.421747059E-1,2.809897438E-2
1.173686094E0,2.015795931E-2,1.444653720E-1,2.565558441E-2
1.176067969E0,1.771457121E-2,1.469087601E-1,2.321219631E-2
1.178449896E0,1.267508045E-2,1.481304616E-1,2.076880634E-2
1.180831771E0,7.635590620E-3,1.505738497E-1,1.832541823E-2
1.183213698E0,6.413896102E-3,1.469087601E-1,1.588202827E-2
1.185595573E0,6.413896102E-3,1.467560530E-1,1.343864016E-2
1.187977500E0,5.192201585E-3,1.455343664E-1,1.099525020E-2
1.190359375E0,6.413896102E-3,1.491994411E-1,1.099525020E-2
1.192741302E0,7.635590620E-3,1.491994411E-1,9.773556143E-3
1.195123177E0,1.130067464E-2,1.528645307E-1,8.551862091E-3
1.197505105E0,1.496575773E-2,1.577513069E-1,8.551862091E-3
1.199887032E0,2.000524849E-2,1.626380831E-1,8.551862091E-3
1.202268907E0,2.733541466E-2,1.675248593E-1,9.773556143E-3
1.204650834E0,3.359659761E-2,1.748550236E-1,1.221694518E-2
1.207032709E0,4.214845970E-2,1.821851879E-1,1.588202827E-2
1.209414636E0,4.840964451E-2,1.931804419E-1,1.832541823E-2
1.211796511E0,5.711421743E-2,1.980672181E-1,2.199050039E-2
1.214178438E0,6.444438547E-2,2.053973973E-1,2.443389036E-2
1.216560313E0,7.192726433E-2,2.151709497E-1,2.565558441E-2
1.218942240E0,7.437065244E-2,2.200577259E-1,2.932066843E-2
1.221324115E0,8.414421231E-2,2.273878902E-1,3.054236248E-2
1.223706042E0,9.040539712E-2,2.359397560E-1,3.054236248E-2
1.226087917E0,9.773556143E-2,2.408265322E-1,3.054236248E-2
1.228469844E0,1.027750522E-1,2.469350100E-1,3.054236248E-2
1.230851719E0,1.113269106E-1,2.518217862E-1,3.054236248E-2
1.233233646E0,1.137702987E-1,2.554868758E-1,2.809897438E-2
1.235615521E0,1.200314835E-1,2.603736520E-1,2.687728032E-2
1.237997448E0,1.212531775E-1,2.663294077E-1,2.565558441E-2
1.240379375E0,1.235438585E-1,2.699944973E-1,2.199050039E-2
1.242761250E0,1.247655526E-1,2.712161839E-1,1.954711229E-2
1.245143177E0,1.259872466E-1,2.748812735E-1,1.954711229E-2
1.247525052E0,1.272089481E-1,2.796153426E-1,1.343864016E-2
1.249906980E0,1.284306347E-1,2.796153426E-1,1.221694518E-2
1.252288855E0,1.272089481E-1,2.845021188E-1,1.099525020E-2
1.254670782E0,1.259872466E-1,2.857238054E-1,4.886778072E-3
1.257052657E0,1.246128380E-1,2.867927849E-1,-1.527118147E-4
1.259434584E0,1.233911440E-1,2.904578745E-1,-2.596100792E-3
1.261816459E0,1.195733473E-1,2.953446507E-1,-6.261184346E-3
1.264198386E0,1.171299592E-1,2.976353168E-1,-7.482878864E-3
1.266580313E0,1.145338640E-1,3.000787199E-1,-7.482878864E-3
1.268962188E0,1.133121699E-1,3.013004065E-1,-9.926267900E-3
1.271344063E0,1.096470803E-1,3.049654961E-1,-9.926267900E-3
1.273725990E0,1.070509851E-1,3.061871827E-1,-1.114796288E-2
1.276107917E0,1.046075895E-1,3.096995652E-1,-8.857285604E-3
1.278489792E0,9.834641218E-2,3.133646548E-1,-1.007897966E-2
1.280871667E0,9.468132257E-2,3.096995652E-1,-8.857285604E-3
1.283253594E0,8.979454637E-2,3.084778786E-1,-7.635590620E-3
1.285635521E0,8.475505561E-2,3.096995652E-1,-1.007897966E-2
1.288017396E0,8.231166750E-2,3.132119179E-1,-1.252236869E-2
1.290399323E0,7.727217674E-2,3.132119179E-1,-1.374406368E-2
1.292781198E0,7.238540053E-2,3.132119179E-1,-1.374406368E-2
1.295163125E0,6.490252167E-2,3.144336343E-1,-1.252236869E-2
1.297545000E0,6.123743951E-2,3.144336343E-1,-1.389677543E-2
1.299926927E0,5.497625470E-2,3.118375242E-1,-1.389677543E-2
1.302308802E0,5.008947477E-2,3.081724346E-1,-1.389677543E-2
1.304690730E0,4.520269856E-2,3.069507480E-1,-1.023169141E-2
1.307072605E0,4.138490185E-2,3.057290614E-1,-6.566607859E-3
1.309454532E0,3.527642787E-2,2.997733057E-1,-1.679830020E-3
1.311836407E0,3.038965166E-2,2.936648130E-1,2.137965523E-3
1.314218334E0,2.794626169E-2,2.863346636E-1,4.581354558E-3
1.316600209E0,2.428117767E-2,2.767138183E-1,9.468132630E-3
1.318982136E0,2.183778957E-2,2.681619525E-1,1.313321572E-2
1.321364011E0,2.321219631E-2,2.585411072E-1,2.046338283E-2
1.323745938E0,2.092151903E-2,2.464768738E-1,2.550287358E-2
1.326127865E0,1.847812906E-2,2.379250079E-1,2.916795574E-2
1.328509740E0,1.969982497E-2,2.270824611E-1,3.283303976E-2
1.330891667E0,1.985253580E-2,2.173089087E-1,3.649812192E-2
1.333273542E0,2.107422985E-2,2.101314515E-1,3.771981969E-2
1.335655469E0,2.000524849E-2,2.003578991E-1,4.275930673E-2
1.338037344E0,2.000524849E-2,1.931804419E-1,4.886778072E-2
1.340419271E0,2.504473738E-2,1.882936656E-1,5.008947477E-2
1.342801146E0,2.626643144E-2,1.798945218E-1,5.253286287E-2
1.345183073E0,2.641914412E-2,1.737860441E-1,5.268557742E-2
1.347564948E0,2.886253223E-2,1.653869003E-1,5.512896553E-2
1.349946875E0,3.023693897E-2,1.556133330E-1,5.390727147E-2
1.352328750E0,3.390202299E-2,1.447708011E-1,5.024218559E-2
1.354710677E0,3.894151375E-2,1.349972486E-1,4.902049154E-2
1.357092552E0,4.275930673E-2,1.265980899E-1,4.917320609E-2
1.359474480E0,4.886778072E-2,1.181989461E-1,4.795150831E-2
1.361856407E0,5.635065958E-2,1.084253863E-1,4.672981426E-2
1.364238282E0,6.139015034E-2,1.012479365E-1,4.672981426E-2
1.366620209E0,7.009471953E-2,9.391776472E-2,4.688252881E-2
1.369002084E0,7.757759839E-2,8.551861346E-2,4.688252881E-2
1.371384011E0,8.383878320E-2,7.941014320E-2,4.566083103E-2
1.373765886E0,9.009996802E-2,7.345438004E-2,4.199574888E-2
1.376147813E0,9.376505762E-2,6.490252167E-2,4.077405483E-2
1.378529688E0,9.880454093E-2,6.016845629E-2,4.092676565E-2
1.380911615E0,1.024696305E-1,5.405998230E-2,3.970507160E-2
1.383293490E0,1.050657257E-1,4.795150831E-2,3.726168349E-2
1.385675417E0,1.050657257E-1,4.443913698E-2,3.726168349E-2
1.388057292E0,1.038440317E-1,3.955236077E-2,3.848337755E-2
1.390439219E0,1.014006436E-1,3.710897267E-2,3.848337755E-2
1.392821094E0,9.895725548E-2,3.344388679E-2,3.726168349E-2
1.395203021E0,9.391776472E-2,2.733541466E-2,3.359659761E-2
1.397584896E0,8.903098851E-2,2.244863659E-2,3.603998944E-2
1.399966823E0,8.292251825E-2,1.511846948E-2,3.603998944E-2
1.402348750E0,7.666133344E-2,1.023169141E-2,3.848337755E-2
1.404730625E0,6.810946763E-2,1.679830020E-3,3.848337755E-2
1.407112552E0,6.200099736E-2,-3.206948051E-3,3.848337755E-2
1.409494427E0,5.573981255E-2,-1.038440317E-2,3.726168349E-2
1.411876355E0,4.963133857E-2,-2.015795931E-2,3.603998944E-2
1.414258230E0,4.337015375E-2,-2.748812735E-2,3.481829539E-2
1.416640157E0,3.726168349E-2,-3.481829539E-2,3.359659761E-2
1.419022032E0,3.115320951E-2,-4.337015375E-2,2.993151546E-2
1.421403959E0,2.611372061E-2,-5.192201585E-2,2.993151546E-2
1.423785834E0,2.122694254E-2,-6.291726977E-2,2.870982140E-2
1.426167761E0,1.756185852E-2,-6.887302548E-2,2.993151546E-2
1.428549636E0,1.267508045E-2,-7.620319724E-2,2.993151546E-2
1.430931563E0,7.788302377E-3,-8.475505561E-2,2.870982140E-2
1.433313438E0,4.123218823E-3,-9.330692142E-2,2.748812735E-2
1.435695365E0,-9.162708884E-4,-9.941539168E-2,2.993151546E-2
1.438077240E0,-7.635590737E-4,-1.041494608E-1,3.115320951E-2
1.440459167E0,-5.650337320E-3,-1.139230132E-1,2.993151546E-2
1.442841042E0,-5.650337320E-3,-1.175880954E-1,3.237490356E-2
1.445222969E0,-6.872031838E-3,-1.247655526E-1,3.497100621E-2
1.447604896E0,-9.315420873E-3,-1.296523362E-1,3.741439432E-2
1.449986771E0,-9.315420873E-3,-1.320957243E-1,3.619270027E-2
1.452368698E0,-8.093725890E-3,-1.394258887E-1,3.619270027E-2
1.454750573E0,-1.038440317E-2,-1.453816444E-1,3.985778242E-2
1.457132500E0,-9.162709117E-3,-1.490467340E-1,3.985778242E-2
1.459514375E0,-6.719320081E-3,-1.575985998E-1,3.985778242E-2
1.461896302E0,-4.123218823E-3,-1.598892659E-1,4.107947648E-2
1.464278177E0,-1.679830020E-3,-1.623326540E-1,4.107947648E-2
1.466660105E0,-4.581354442E-4,-1.696628332E-1,4.245388508E-2
1.469041980E0,4.581354558E-3,-1.731752008E-1,4.245388508E-2
1.471423907E0,5.803049076E-3,-1.780619770E-1,4.001049697E-2
1.473805782E0,7.024743594E-3,-1.817270666E-1,3.634541109E-2
1.476187709E0,9.620844387E-3,-1.853921413E-1,3.268032894E-2
1.478569584E0,9.620844387E-3,-1.902789176E-1,2.901524492E-2
1.480951511E0,1.328592747E-2,-1.951656938E-1,2.657185495E-2
1.483333438E0,1.832541823E-2,-2.035648525E-1,2.535016090E-2
1.485715313E0,1.832541823E-2,-2.084516287E-1,2.535016090E-2
1.488097240E0,2.199050039E-2,-2.131856978E-1,2.657185495E-2
1.490479115E0,2.458660305E-2,-2.168507725E-1,2.550287358E-2
1.492861042E0,2.580829710E-2,-2.192941606E-1,2.305948362E-2
1.495242917E0,2.702999115E-2,-2.217375487E-1,2.061609551E-2
1.497624844E0,2.947338112E-2,-2.180724740E-1,1.939439960E-2
1.500006719E0,3.191677108E-2,-2.168507725E-1,1.817270555E-2
1.502388646E0,3.558185324E-2,-2.156290859E-1,1.572931744E-2
1.504770521E0,3.817795217E-2,-2.180724740E-1,1.450762246E-2
1.507152448E0,4.062134400E-2,-2.168507725E-1,1.695101149E-2
1.509534323E0,4.428642616E-2,-2.156290859E-1,1.817270555E-2
1.511916250E0,4.932591692E-2,-2.168507725E-1,2.061609551E-2
1.514298125E0,5.054761097E-2,-2.179197669E-1,2.305948362E-2
1.516680052E0,5.176930502E-2,-2.179197669E-1,2.550287358E-2
1.519061927E0,5.176930502E-2,-2.154763639E-1,2.550287358E-2
1.521443855E0,5.436540768E-2,-2.166980654E-1,3.038965166E-2
1.523825730E0,5.436540768E-2,-2.130329758E-1,3.161134571E-2
1.526207657E0,5.558710173E-2,-2.069245130E-1,3.527642787E-2
1.528589584E0,5.680879578E-2,-2.069245130E-1,3.527642787E-2
1.530971459E0,5.925218388E-2,-2.032594234E-1,3.894151375E-2
1.533353386E0,5.925218388E-2,-2.020377368E-1,4.016320780E-2
1.535735261E0,6.047387794E-2,-1.983726472E-1,4.138490185E-2
1.538117188E0,6.413896382E-2,-1.959292591E-1,4.138490185E-2
1.540499063E0,6.536065787E-2,-1.922641695E-1,4.016320780E-2
1.542880990E0,6.658235192E-2,-1.899735034E-1,4.016320780E-2
1.545262865E0,6.917845458E-2,-1.875301152E-1,4.016320780E-2
1.547644792E0,7.284353673E-2,-1.838650256E-1,3.894151375E-2
1.550026667E0,7.406523079E-2,-1.777565479E-1,4.138490185E-2
1.552408594E0,7.773031294E-2,-1.728697717E-1,3.894151375E-2
1.554790469E0,7.895200700E-2,-1.692046970E-1,3.771981969E-2
1.557172396E0,7.895200700E-2,-1.632489264E-1,3.649812192E-2
1.559554271E0,8.261708915E-2,-1.559187621E-1,3.771981969E-2
1.561936198E0,8.383878320E-2,-1.510319859E-1,3.894151375E-2
1.564318073E0,8.628217876E-2,-1.461452097E-1,3.894151375E-2
1.566700000E0,8.994726092E-2,-1.424801201E-1,3.527642787E-2
1.569081927E0,9.239064902E-2,-1.412584335E-1,3.649812192E-2
1.571463802E0,9.605573118E-2,-1.388150454E-1,3.649812192E-2
1.573845730E0,1.010952219E-1,-1.363716573E-1,3.527642787E-2
1.576227605E0,1.023169160E-1,-1.375933439E-1,3.649812192E-2
1.578609532E0,1.047603041E-1,-1.375933439E-1,3.405473381E-2
1.580991407E0,1.084253863E-1,-1.375933439E-1,3.283303976E-2
1.583373334E0,1.122431830E-1,-1.363716573E-1,3.405473381E-2
1.585755209E0,1.122431830E-1,-1.375933439E-1,3.527642787E-2
1.588137136E0,1.122431830E-1,-1.351499557E-1,3.649812192E-2
1.590519011E0,1.122431830E-1,-1.351499557E-1,3.894151375E-2
1.592900938E0,1.097997949E-1,-1.327065676E-1,4.016320780E-2
1.595282813E0,1.110214889E-1,-1.351499557E-1,4.016320780E-2
1.597664740E0,1.110214889E-1,-1.363716573E-1,4.016320780E-2
1.600046615E0,1.084253863E-1,-1.351499557E-1,3.771981969E-2
1.602428542E0,1.072036922E-1,-1.339282542E-1,3.771981969E-2
1.604810417E0,1.097997949E-1,-1.339282542E-1,3.771981969E-2
1.607192344E0,1.084253863E-1,-1.302631795E-1,3.894151375E-2
1.609574271E0,1.084253863E-1,-1.265980899E-1,3.894151375E-2
1.611956146E0,1.072036922E-1,-1.253764033E-1,3.771981969E-2
1.614338073E0,1.047603041E-1,-1.194206402E-1,3.649812192E-2
1.616719948E0,1.046075895E-1,-1.133121699E-1,3.527642787E-2
1.619101875E0,1.058292910E-1,-1.108687744E-1,3.527642787E-2
1.621483750E0,1.033858955E-1,-1.084253863E-1,3.390202299E-2
1.623865677E0,1.021642014E-1,-1.049130186E-1,3.145863488E-2
1.626247552E0,1.020114943E-1,-1.049130186E-1,2.901524492E-2
1.628629480E0,1.020114943E-1,-1.000262350E-1,2.779355086E-2
1.631011355E0,1.020114943E-1,-9.636115283E-2,2.535016090E-2
1.633393282E0,1.032331884E-1,-9.269607067E-2,2.657185495E-2
1.635775157E0,1.056765765E-1,-8.674030751E-2,2.657185495E-2
1.638157084E0,1.068982705E-1,-8.307522535E-2,2.657185495E-2
1.640538959E0,1.056765765E-1,-7.941014320E-2,2.412846684E-2
1.642920886E0,1.056765765E-1,-7.330167294E-2,2.290677279E-2
1.645302761E0,1.067455560E-1,-6.734590977E-2,2.168507688E-2
1.647684688E0,1.067455560E-1,-6.368082762E-2,2.275406010E-2
1.650066563E0,1.043021679E-1,-5.635065958E-2,2.153236605E-2
1.652448490E0,1.043021679E-1,-5.268557742E-2,1.908897609E-2
1.654830417E0,1.043021679E-1,-5.039490014E-2,2.031067200E-2
1.657212292E0,1.041494608E-1,-4.428642616E-2,1.908897609E-2
1.659594219E0,1.017060652E-1,-3.939964995E-2,1.786728203E-2
1.661976094E0,1.027750522E-1,-2.977880463E-2,1.542389300E-2
1.664358021E0,1.027750522E-1,-2.611372061E-2,1.175880991E-2
1.666739896E0,1.027750522E-1,-2.122694254E-2,1.038440317E-2
1.669121823E0,1.015533581E-1,-1.527118124E-2,7.941014133E-3
1.671503698E0,1.014006436E-1,-1.282779220E-2,5.497625098E-3
1.673885625E0,1.001789495E-1,-9.162709117E-3,3.054236295E-3
1.676267500E0,1.001789495E-1,-5.650337320E-3,-6.108472589E-4
1.678649427E0,9.895725548E-2,-4.428642802E-3,-6.108472589E-4
1.681031302E0,9.880454093E-2,4.581354442E-4,-6.108472589E-4
1.683413230E0,9.880454093E-2,2.901524538E-3,-6.108472589E-4
1.685795105E0,9.636115283E-2,1.679830020E-3,-1.832541777E-3
1.688177032E0,9.513945878E-2,2.901524538E-3,6.108472589E-4
1.690558907E0,9.391776472E-2,-7.635590737E-4,1.832541777E-3
1.692940834E0,9.147437662E-2,-6.872031838E-3,-6.108472589E-4
1.695322761E0,8.276980370E-2,-1.053711493E-2,-6.108472589E-4
1.697704636E0,8.032641560E-2,-1.664558798E-2,-1.832541777E-3
1.700086563E0,7.421794534E-2,-2.397575416E-2,-1.832541777E-3
1.702468438E0,6.933116168E-2,-2.764083818E-2,-1.832541777E-3
1.704850365E0,6.429167092E-2,-3.130592033E-2,-4.275931045E-3
1.707232240E0,5.818320066E-2,-3.130592033E-2,-1.985253533E-3
1.709614167E0,5.070032179E-2,-3.619270027E-2,-1.985253533E-3
1.711996042E0,4.199574888E-2,-3.741439432E-2,-5.650337320E-3
1.714377969E0,3.588727489E-2,-3.741439432E-2,-3.206948051E-3
1.716759844E0,3.206948191E-2,-3.985778242E-2,-1.985253533E-3
1.719141771E0,2.840439789E-2,-4.474456236E-2,-5.650337320E-3
1.721523646E0,2.596100792E-2,-4.718795046E-2,-8.093725890E-3
1.723905573E0,2.473931387E-2,-4.840964451E-2,-9.315420873E-3
1.726287448E0,2.718270384E-2,-5.085303262E-2,-8.093725890E-3
1.728669375E0,2.840439789E-2,-5.573981255E-2,-1.175880991E-2
1.731051250E0,2.596100792E-2,-5.940489471E-2,-1.298050396E-2
1.733433177E0,2.718270384E-2,-6.306997687E-2,-1.175880991E-2
1.735815052E0,2.855710872E-2,-6.551336497E-2,-1.298050396E-2
1.738196980E0,2.977880463E-2,-7.269082218E-2,-1.542389300E-2
1.740578907E0,3.222219273E-2,-7.757759839E-2,-1.786728203E-2
1.742960782E0,3.603998944E-2,-8.612946421E-2,-1.893626526E-2
1.745342709E0,3.848337755E-2,-9.697200358E-2,-1.771457121E-2
1.747724584E0,3.863608837E-2,-1.043021679E-1,-2.015795931E-2
1.750106511E0,3.985778242E-2,-1.102579311E-1,-2.137965336E-2
1.752488386E0,3.985778242E-2,-1.212531775E-1,-1.893626526E-2
1.754870313E0,4.123219103E-2,-1.284306347E-1,-2.137965336E-2
1.757252188E0,4.001049697E-2,-1.320957243E-1,-2.260134928E-2
1.759634115E0,4.001049697E-2,-1.406475753E-1,-1.878355257E-2
1.762015990E0,3.756710514E-2,-1.455343664E-1,-2.122694254E-2
1.764397917E0,4.001049697E-2,-1.539335102E-1,-2.122694254E-2
1.766779792E0,4.138490185E-2,-1.612636745E-1,-2.122694254E-2
1.769161719E0,3.878879920E-2,-1.661504507E-1,-2.611372061E-2
1.771543594E0,4.016320780E-2,-1.722589284E-1,-2.855710872E-2
1.773925521E0,4.138490185E-2,-1.782146841E-1,-3.100049868E-2
1.776307396E0,4.016320780E-2,-1.831014603E-1,-3.344388679E-2
1.778689323E0,4.260659590E-2,-1.855448484E-1,-3.344388679E-2
1.781071198E0,4.260659590E-2,-1.867665499E-1,-3.955236077E-2
1.783453125E0,4.138490185E-2,-1.832541823E-1,-4.321744293E-2
1.785835052E0,4.001049697E-2,-1.771457046E-1,-4.443913698E-2
1.788216927E0,4.001049697E-2,-1.673721522E-1,-4.566083103E-2
1.790598855E0,3.985778242E-2,-1.565296054E-1,-5.070032179E-2
1.792980730E0,3.726168349E-2,-1.408002973E-1,-5.436540768E-2
1.795362657E0,3.603998944E-2,-1.262926757E-1,-5.803048983E-2
1.797744532E0,3.344388679E-2,-1.142284349E-1,-6.184828654E-2
1.800126459E0,2.596100792E-2,-9.849911928E-2,-6.306997687E-2
1.802508334E0,2.199050039E-2,-8.521319181E-2,-7.055285573E-2
1.804890261E0,1.572931744E-2,-7.559234649E-2,-7.543963939E-2
1.807272136E0,1.068982668E-2,-6.826218218E-2,-8.032641560E-2
1.809654063E0,1.985253533E-3,-6.108472496E-2,-8.536590636E-2
1.812035938E0,-3.054236295E-3,-5.512896553E-2,-9.147437662E-2
1.814417865E0,-1.420219894E-2,-5.161659420E-2,-9.513945878E-2
1.816799740E0,-2.412846684E-2,-4.917320609E-2,-9.895725548E-2
1.819181667E0,-3.405473381E-2,-4.688252881E-2,-1.038440317E-1
1.821563594E0,-4.902049154E-2,-4.566083103E-2,-1.062874198E-1
1.823945469E0,-6.139015034E-2,-4.459185153E-2,-1.088835225E-1
1.826327396E0,-7.757759839E-2,-4.352286831E-2,-1.113269106E-1
1.828709271E0,-9.376505762E-2,-4.230117425E-2,-1.163664013E-1
1.831091198E0,-1.085781008E-1,-4.123219103E-2,-1.163664013E-1
1.833473073E0,-1.235438585E-1,-4.245388508E-2,-1.163664013E-1
1.835855000E0,-1.395785958E-1,-4.260659590E-2,-1.189625040E-1
1.838236875E0,-1.545443535E-1,-4.398100078E-2,-1.201841980E-1
1.840618802E0,-1.669140160E-1,-4.642439261E-2,-1.201841980E-1
1.843000677E0,-1.805053651E-1,-4.520269856E-2,-1.214058921E-1
1.845382605E0,-1.904316396E-1,-4.657710344E-2,-1.177408099E-1
1.847764480E0,-1.991362125E-1,-4.779879749E-2,-1.166718230E-1
1.850146407E0,-2.040229887E-1,-5.024218559E-2,-1.178935245E-1
1.852528282E0,-2.090624720E-1,-4.779879749E-2,-1.154501289E-1
1.854910209E0,-2.089097649E-1,-4.779879749E-2,-1.105633527E-1
1.857292084E0,-2.090624720E-1,-4.535540938E-2,-1.117850468E-1
1.859674011E0,-2.076880634E-1,-4.535540938E-2,-1.117850468E-1
1.862055886E0,-2.052446753E-1,-4.169032723E-2,-1.117850468E-1
1.864437813E0,-2.028012872E-1,-3.680354729E-2,-1.117850468E-1
1.866819740E0,-1.979145110E-1,-3.436015919E-2,-1.130067408E-1
1.869201615E0,-1.930277348E-1,-3.313846514E-2,-1.142284349E-1
1.871583490E0,-1.904316396E-1,-3.069507517E-2,-1.142284349E-1
1.873965417E0,-1.879882365E-1,-2.947338112E-2,-1.130067408E-1
1.876347344E0,-1.855448484E-1,-2.702999115E-2,-1.142284349E-1
1.878729219E0,-1.818797737E-1,-2.458660305E-2,-1.142284349E-1
1.881111146E0,-1.768402755E-1,-2.458660305E-2,-1.166718230E-1
1.883493021E0,-1.743968874E-1,-2.458660305E-2,-1.152974218E-1
1.885874948E0,-1.707318127E-1,-2.580829710E-2,-1.152974218E-1
1.888256823E0,-1.681357026E-1,-2.702999115E-2,-1.140757278E-1
1.890638750E0,-1.681357026E-1,-3.054236248E-2,-1.140757278E-1
1.893020625E0,-1.644706279E-1,-3.176405653E-2,-1.128540337E-1
1.895402552E0,-1.620272398E-1,-3.420744836E-2,-1.140757278E-1
1.897784427E0,-1.618745178E-1,-3.665083647E-2,-1.140757278E-1
1.900166355E0,-1.606528312E-1,-3.909422457E-2,-1.140757278E-1
1.902548230E0,-1.569877416E-1,-4.382828996E-2,-1.128540337E-1
1.904930157E0,-1.543916464E-1,-4.504998401E-2,-1.152974218E-1
1.907312084E0,-1.531699449E-1,-4.504998401E-2,-1.152974218E-1
1.909693959E0,-1.495048702E-1,-4.627167806E-2,-1.128540337E-1
1.912075886E0,-1.456870735E-1,-4.627167806E-2,-1.114796251E-1
1.914457761E0,-1.420219839E-1,-4.504998401E-2,-1.090362370E-1
1.916839688E0,-1.345391124E-1,-4.489727318E-2,-1.065928489E-1
1.919221563E0,-1.308740228E-1,-4.367557913E-2,-1.041494608E-1
1.921603490E0,-1.270562261E-1,-4.123219103E-2,-1.004843712E-1
1.923985365E0,-1.246128380E-1,-4.245388508E-2,-9.926267713E-2
1.926367292E0,-1.197260618E-1,-4.001049697E-2,-9.681928903E-2
1.928749167E0,-1.146865711E-1,-3.985778242E-2,-9.437590092E-2
1.931131094E0,-1.122431830E-1,-3.741439432E-2,-9.071081877E-2
1.933512969E0,-1.084253863E-1,-3.741439432E-2,-9.177979827E-2
1.935894896E0,-1.059819981E-1,-3.497100621E-2,-9.055810422E-2
1.938276771E0,-1.023169160E-1,-3.741439432E-2,-9.055810422E-2
1.940658698E0,-1.023169160E-1,-3.497100621E-2,-9.055810422E-2
1.943040573E0,-9.727742523E-2,-3.497100621E-2,-9.055810422E-2
1.945422500E0,-9.727742523E-2,-3.619270027E-2,-9.055810422E-2
1.947804427E0,-9.605573118E-2,-3.741439432E-2,-9.300149232E-2
1.950186302E0,-9.361234307E-2,-3.985778242E-2,-9.422318637E-2
1.952568177E0,-9.483403713E-2,-4.107947648E-2,-9.666658193E-2
1.954950105E0,-9.361234307E-2,-4.596625641E-2,-9.788827598E-2
1.957331980E0,-9.239064902E-2,-4.947862774E-2,-9.910997003E-2
1.959713907E0,-9.239064902E-2,-5.436540768E-2,-1.003316641E-1
1.962095834E0,-9.361234307E-2,-6.169557199E-2,-1.039967462E-1
1.964477709E0,-9.345962852E-2,-7.024743408E-2,-1.027750522E-1
1.966859636E0,-8.979454637E-2,-7.375980914E-2,-1.064401343E-1
1.969241511E0,-9.101624042E-2,-7.986827940E-2,-1.064401343E-1
1.971623438E0,-8.979454637E-2,-8.475505561E-2,-1.088835225E-1
1.974005313E0,-8.842013776E-2,-8.842013776E-2,-1.088835225E-1
1.976387240E0,-8.353336155E-2,-9.086353332E-2,-1.111742035E-1
1.978769115E0,-8.231166750E-2,-9.681928903E-2,-1.111742035E-1
1.981151042E0,-7.971556485E-2,-1.017060652E-1,-1.111742035E-1
1.983532917E0,-7.971556485E-2,-1.041494608E-1,-1.148392856E-1
1.985914844E0,-7.849387079E-2,-1.053711548E-1,-1.136175916E-1
1.988296719E0,-7.605048269E-2,-1.029277667E-1,-1.123958975E-1
1.990678646E0,-7.360709459E-2,-1.017060652E-1,-1.136175916E-1
1.993060521E0,-7.360709459E-2,-9.926267713E-2,-1.136175916E-1
1.995442448E0,-7.238540053E-2,-9.681928903E-2,-1.136175916E-1
1.997824375E0,-7.238540053E-2,-9.437590092E-2,-1.148392856E-1
2.000206250E0,-7.116370648E-2,-9.315420687E-2,-1.136175916E-1
2.002588177E0,-7.360709459E-2,-8.704573661E-2,-1.136175916E-1
2.004970052E0,-7.620319724E-2,-8.231166750E-2,-1.137702987E-1
2.007351980E0,-7.864658535E-2,-7.742489129E-2,-1.125486046E-1
2.009733855E0,-8.246438205E-2,-7.146912813E-2,-1.137702987E-1
2.012115782E0,-8.612946421E-2,-6.658235192E-2,-1.113269106E-1
2.014497657E0,-9.239064902E-2,-6.413896382E-2,-1.101052165E-1
2.016879584E0,-9.605573118E-2,-5.818320066E-2,-1.113269106E-1
2.019261459E0,-9.987352788E-2,-5.329642445E-2,-1.125486046E-1
2.021643386E0,-1.073564067E-1,-4.840964451E-2,-1.127013192E-1
2.024025261E0,-1.073564067E-1,-4.596625641E-2,-1.114796251E-1
2.026407188E0,-1.110214889E-1,-4.611896724E-2,-1.127013192E-1
2.028789063E0,-1.148392856E-1,-4.367557913E-2,-1.114796251E-1
2.031170990E0,-1.160609797E-1,-4.001049697E-2,-1.102579311E-1
2.033552865E0,-1.160609797E-1,-4.245388508E-2,-1.090362370E-1
2.035934792E0,-1.172826737E-1,-4.489727318E-2,-1.078145429E-1
2.038316667E0,-1.185043678E-1,-4.245388508E-2,-1.065928489E-1
2.040698594E0,-1.172826737E-1,-4.245388508E-2,-1.065928489E-1
2.043080469E0,-1.159082651E-1,-4.718795046E-2,-1.017060652E-1
2.045462396E0,-1.146865711E-1,-4.963133857E-2,-1.017060652E-1
2.047844323E0,-1.134648770E-1,-5.085303262E-2,-9.910997003E-2
2.050226198E0,-1.122431830E-1,-5.329642445E-2,-1.003316641E-1
2.052608125E0,-1.122431830E-1,-5.085303262E-2,-9.788827598E-2
2.054990000E0,-1.122431830E-1,-4.718795046E-2,-9.666658193E-2
2.057371927E0,-1.122431830E-1,-4.474456236E-2,-9.422318637E-2
2.059753802E0,-1.097997949E-1,-3.985778242E-2,-9.422318637E-2
2.062135730E0,-1.110214889E-1,-3.512371704E-2,-9.315420687E-2
2.064517605E0,-1.110214889E-1,-3.023693897E-2,-9.315420687E-2
2.066899532E0,-1.110214889E-1,-2.535016090E-2,-9.437590092E-2
2.069281407E0,-1.110214889E-1,-1.924168877E-2,-9.315420687E-2
2.071663334E0,-1.097997949E-1,-1.435491070E-2,-9.315420687E-2
2.074045209E0,-1.085781008E-1,-1.084253844E-2,-9.437590092E-2
2.076427136E0,-1.061347127E-1,-5.955760833E-3,-9.193251282E-2
2.078809011E0,-1.049130186E-1,-2.290677279E-3,-9.193251282E-2
2.081190938E0,-1.024696305E-1,1.374406274E-3,-9.193251282E-2
2.083572813E0,-1.012479365E-1,1.374406274E-3,-8.948912472E-2
2.085954740E0,-9.880454093E-2,2.596100792E-3,-8.948912472E-2
2.088336615E0,-9.254335612E-2,-9.162708884E-4,-8.948912472E-2
2.090718542E0,-8.887827396E-2,-4.581354558E-3,-8.948912472E-2
2.093100469E0,-8.383878320E-2,-5.803049076E-3,-8.811471611E-2
2.095482344E0,-7.757759839E-2,-1.175880991E-2,-8.567132801E-2
2.097864271E0,-7.635590434E-2,-1.908897609E-2,-8.444963396E-2
2.100246146E0,-7.253811508E-2,-2.382304333E-2,-8.200624585E-2
2.102628073E0,-6.627693027E-2,-2.993151546E-2,-8.200624585E-2
2.105009948E0,-6.016845629E-2,-3.466558084E-2,-8.063183725E-2
2.107391875E0,-5.512896553E-2,-4.077405483E-2,-7.941014320E-2
2.109773750E0,-5.008947477E-2,-4.550812021E-2,-7.818844914E-2
2.112155677E0,-4.504998401E-2,-5.039490014E-2,-7.574506104E-2
2.114537552E0,-4.138490185E-2,-5.161659420E-2,-7.696675509E-2
2.116919480E0,-3.878879920E-2,-5.635065958E-2,-7.314895838E-2
2.119301355E0,-3.512371704E-2,-5.512896553E-2,-7.070557028E-2
2.121683282E0,-3.268032894E-2,-5.512896553E-2,-7.070557028E-2
2.124065157E0,-2.886253223E-2,-5.512896553E-2,-6.948387623E-2
2.126447084E0,-2.886253223E-2,-5.512896553E-2,-6.581879407E-2
2.128828959E0,-2.397575416E-2,-5.268557742E-2,-6.581879407E-2
2.131210886E0,-2.275406010E-2,-4.902049154E-2,-6.215370819E-2
2.133592761E0,-2.031067200E-2,-4.535540938E-2,-6.093201414E-2
2.135974688E0,-2.031067200E-2,-4.046862945E-2,-5.971032009E-2
2.138356615E0,-1.908897609E-2,-3.802524135E-2,-6.093201414E-2
2.140738490E0,-1.786728203E-2,-3.313846514E-2,-5.971032009E-2
2.143120417E0,-1.542389300E-2,-2.458660305E-2,-5.726693198E-2
2.145502292E0,-1.542389300E-2,-1.863084175E-2,-5.604523420E-2
2.147884219E0,-1.420219894E-2,-1.496575773E-2,-5.726693198E-2
2.150266094E0,-1.420219894E-2,-1.252236869E-2,-5.482354015E-2
2.152648021E0,-1.420219894E-2,-8.857285604E-3,-5.604523420E-2
2.155029896E0,-1.420219894E-2,-6.413896102E-3,-5.604523420E-2
2.157411823E0,-1.420219894E-2,-5.192201585E-3,-5.726693198E-2
2.159793698E0,-1.420219894E-2,-5.192201585E-3,-5.864133686E-2
2.162175625E0,-1.420219894E-2,-6.413896102E-3,-6.108472496E-2
2.164557500E0,-1.420219894E-2,-5.192201585E-3,-6.108472496E-2
2.166939427E0,-1.298050396E-2,-5.192201585E-3,-6.108472496E-2
2.169321302E0,-1.175880991E-2,-6.413896102E-3,-6.352811307E-2
2.171703230E0,-9.315420873E-3,-1.007897966E-2,-6.459710002E-2
2.174085157E0,-1.053711493E-2,-1.252236869E-2,-6.704048812E-2
2.176467032E0,-8.093725890E-3,-1.252236869E-2,-6.704048812E-2
2.178848907E0,-4.275931045E-3,-1.496575773E-2,-6.826218218E-2
2.181230834E0,-5.650337320E-3,-1.863084175E-2,-7.192726433E-2
2.183612709E0,-4.275931045E-3,-1.863084175E-2,-7.192726433E-2
2.185994636E0,-6.108472589E-4,-1.863084175E-2,-7.437065244E-2
2.188376563E0,-6.108472589E-4,-1.863084175E-2,-7.681404054E-2
2.190758438E0,-1.832541777E-3,-1.740914769E-2,-7.681404054E-2
2.193140365E0,-1.832541777E-3,-1.618745178E-2,-7.681404054E-2
2.195522240E0,-1.985253533E-3,-1.496575773E-2,-7.941014320E-2
2.197904167E0,-3.206948051E-3,-1.252236869E-2,-7.941014320E-2
2.200286042E0,-4.428642802E-3,-9.009997360E-3,-7.941014320E-2
2.202667969E0,-5.650337320E-3,-6.566607859E-3,-8.063183725E-2
2.205049844E0,-9.468132630E-3,-2.901524538E-3,-8.185353130E-2
2.207431771E0,-1.068982668E-2,7.635590737E-4,-8.185353130E-2
2.209813646E0,-1.450762246E-2,4.275931045E-3,-8.307522535E-2
2.212195573E0,-1.695101149E-2,9.162709117E-3,-8.429691941E-2
2.214577448E0,-1.939439960E-2,1.160609815E-2,-8.429691941E-2
2.216959375E0,-2.321219631E-2,1.511846948E-2,-8.689302206E-2
2.219341250E0,-3.069507517E-2,2.000524849E-2,-8.444963396E-2
2.221723177E0,-3.313846514E-2,2.000524849E-2,-8.567132801E-2
2.224105105E0,-3.680354729E-2,2.244863659E-2,-8.444963396E-2
2.226486980E0,-4.306473210E-2,2.596100792E-2,-8.444963396E-2
2.228868907E0,-4.550812021E-2,2.596100792E-2,-8.567132801E-2
2.231250782E0,-5.054761097E-2,2.229592577E-2,-8.567132801E-2
2.233632709E0,-5.176930502E-2,2.229592577E-2,-8.322793990E-2
2.236014584E0,-5.665608495E-2,2.351761982E-2,-8.444963396E-2
2.238396511E0,-6.047387794E-2,2.107422985E-2,-8.444963396E-2
2.240778386E0,-6.658235192E-2,2.229592577E-2,-8.200624585E-2
2.243160313E0,-7.024743408E-2,1.863084175E-2,-8.078455180E-2
2.245542188E0,-7.406523079E-2,1.985253580E-2,-7.971556485E-2
2.247924115E0,-8.139539510E-2,1.969982497E-2,-7.727217674E-2
2.250305990E0,-8.887827396E-2,1.847812906E-2,-7.727217674E-2
2.252687917E0,-9.376505762E-2,1.725643501E-2,-7.727217674E-2
2.255069792E0,-1.036913246E-1,1.603474095E-2,-7.605048269E-2
2.257451719E0,-1.075091213E-1,1.603474095E-2,-7.482878864E-2
2.259833594E0,-1.160609797E-1,1.481304597E-2,-7.482878864E-2
2.262215521E0,-1.247655526E-1,1.099525020E-2,-7.360709459E-2
2.264597396E0,-1.359135211E-1,8.551862091E-3,-7.238540053E-2
2.266979323E0,-1.470614821E-1,6.108472589E-3,-7.375980914E-2
2.269361250E0,-1.582094431E-1,3.665083554E-3,-7.009471953E-2
2.271743125E0,-1.667613089E-1,-3.665083554E-3,-6.765133142E-2
2.274125052E0,-1.766875684E-1,-8.551862091E-3,-6.642963737E-2
2.276506927E0,-1.878355294E-1,-1.588202827E-2,-6.398624927E-2
2.278888855E0,-1.976090819E-1,-2.076880634E-2,-6.154286116E-2
2.281270730E0,-2.075353563E-1,-2.932066843E-2,-5.909947306E-2
2.283652657E0,-2.162399292E-1,-3.298575059E-2,-5.543438718E-2
2.286034532E0,-2.235700935E-1,-3.665083647E-2,-5.054761097E-2
2.288416459E0,-2.296785712E-1,-4.520269856E-2,-4.810422286E-2
2.290798334E0,-2.345653474E-1,-4.993676394E-2,-4.077405483E-2
2.293180261E0,-2.345653474E-1,-5.360184610E-2,-3.710897267E-2
2.295562136E0,-2.319692522E-1,-5.482354015E-2,-3.084778599E-2
2.297944063E0,-2.283041626E-1,-5.360184610E-2,-2.840439789E-2
2.300325938E0,-2.208212912E-1,-5.222744122E-2,-2.596100792E-2
2.302707865E0,-2.121167034E-1,-4.856235534E-2,-1.985253580E-2
2.305089740E0,-1.985253543E-1,-4.611896724E-2,-1.863084175E-2
2.307471667E0,-1.873773932E-1,-3.863608837E-2,-1.847812906E-2
2.309853542E0,-1.737860441E-1,-3.252761811E-2,-1.725643501E-2
2.312235469E0,-1.577513069E-1,-2.886253223E-2,-1.725643501E-2
2.314617396E0,-1.441599578E-1,-2.397575416E-2,-1.847812906E-2
2.316999271E0,-1.279724985E-1,-1.893626526E-2,-1.847812906E-2
2.319381198E0,-1.156028435E-1,-1.771457121E-2,-2.336490713E-2
2.321763073E0,-1.032331884E-1,-1.771457121E-2,-2.565558441E-2
2.324145000E0,-9.208522737E-2,-2.000524849E-2,-2.809897438E-2
2.326526875E0,-8.093725890E-2,-2.244863659E-2,-3.176405653E-2
2.328908802E0,-6.856760383E-2,-2.611372061E-2,-3.420744836E-2
2.331290677E0,-5.864133686E-2,-2.840439789E-2,-4.031591862E-2
2.333672605E0,-4.627167806E-2,-3.451287001E-2,-4.504998401E-2
2.336054480E0,-3.512371704E-2,-3.924693540E-2,-4.871506989E-2
2.338436407E0,-2.519745007E-2,-4.413371533E-2,-5.360184610E-2
2.340818282E0,-1.160609815E-2,-4.764608666E-2,-5.726693198E-2
2.343200209E0,-4.581354442E-4,-5.008947477E-2,-6.215370819E-2
2.345582084E0,7.024743594E-3,-5.008947477E-2,-6.566607952E-2
2.347964011E0,1.939439960E-2,-5.131116882E-2,-7.055285573E-2
2.350345886E0,2.687728032E-2,-4.993676394E-2,-7.299624383E-2
2.352727813E0,3.665083647E-2,-4.993676394E-2,-7.666133344E-2
2.355109688E0,4.169032723E-2,-4.871506989E-2,-8.032641560E-2
2.357491615E0,4.779879749E-2,-4.749337584E-2,-8.276980370E-2
2.359873490E0,4.779879749E-2,-4.993676394E-2,-8.765657991E-2
2.362255417E0,5.146388337E-2,-4.749337584E-2,-9.009996802E-2
2.364637344E0,5.390727147E-2,-4.993676394E-2,-9.254335612E-2
2.367019219E0,5.146388337E-2,-4.993676394E-2,-9.376505762E-2
2.369401146E0,5.024218559E-2,-4.993676394E-2,-9.743013978E-2
2.371783021E0,4.398100078E-2,-4.886778072E-2,-1.012479365E-1
2.374164948E0,3.771981969E-2,-4.886778072E-2,-1.049130186E-1
2.376546823E0,3.038965166E-2,-5.131116882E-2,-1.085781008E-1
2.378928750E0,2.168507688E-2,-5.024218559E-2,-1.122431830E-1
2.381310625E0,1.175880991E-2,-5.024218559E-2,-1.159082651E-1
2.383692552E0,-7.635590737E-4,-4.795150831E-2,-1.197260618E-1
2.386074427E0,-1.191152167E-2,-4.917320609E-2,-1.233911440E-1
2.388456355E0,-2.687728032E-2,-4.566083103E-2,-1.296523362E-1
2.390838230E0,-3.924693540E-2,-4.337015375E-2,-1.320957243E-1
2.393220157E0,-5.283828825E-2,-4.459185153E-2,-1.333174109E-1
2.395602032E0,-6.902574003E-2,-3.985778242E-2,-1.346918195E-1
2.397983959E0,-8.139539510E-2,-3.756710514E-2,-1.346918195E-1
2.400365834E0,-9.269607067E-2,-3.161134571E-2,-1.359135211E-1
2.402747761E0,-1.050657257E-1,-2.794626169E-2,-1.346918195E-1
2.405129688E0,-1.162136942E-1,-2.321219631E-2,-1.311794519E-1
2.407511563E0,-1.261399537E-1,-1.954711229E-2,-1.287360638E-1
2.409893490E0,-1.336228400E-1,-1.710372418E-2,-1.250709742E-1
2.412275365E0,-1.397313178E-1,-1.343864016E-2,-1.189625040E-1
2.414657292E0,-1.459924877E-1,-9.926267900E-3,-1.165191159E-1
2.417039167E0,-1.521009654E-1,-5.039489828E-3,-1.116323397E-1
2.419421094E0,-1.546970755E-1,-1.374406274E-3,-1.055238619E-1
2.421802969E0,-1.583621502E-1,5.955760833E-3,-9.941539168E-2
2.424184896E0,-1.620272398E-1,1.068982668E-2,-9.575030953E-2
2.426566771E0,-1.658450365E-1,1.679829881E-2,-9.086353332E-2
2.428948698E0,-1.682884246E-1,2.290677279E-2,-8.612946421E-2
2.431330573E0,-1.733279079E-1,2.901524492E-2,-8.368607610E-2
2.433712500E0,-1.806580722E-1,3.985778242E-2,-7.757759839E-2
2.436094375E0,-1.856975704E-1,4.718795046E-2,-7.269082218E-2
2.438476302E0,-1.931804419E-1,5.558710173E-2,-7.024743408E-2
2.440858177E0,-2.018850148E-1,6.276455522E-2,-7.040014863E-2
2.443240105E0,-2.069245130E-1,6.765133142E-2,-6.673506647E-2
2.445621980E0,-2.130329758E-1,7.253811508E-2,-6.673506647E-2
2.448003907E0,-2.229592502E-1,7.009471953E-2,-6.673506647E-2
2.450385782E0,-2.292204350E-1,6.642963737E-2,-6.551336497E-2
2.452767709E0,-2.341072112E-1,5.909947306E-2,-6.551336497E-2
2.455149636E0,-2.414373755E-1,4.810422286E-2,-6.795676053E-2
2.457531511E0,-2.451024652E-1,3.710897267E-2,-7.040014863E-2
2.459913438E0,-2.475458533E-1,2.260134928E-2,-7.284353673E-2
2.462295313E0,-2.512109280E-1,6.719320081E-3,-7.528692484E-2
2.464677240E0,-2.498365343E-1,-9.009997360E-3,-7.879929990E-2
2.467059115E0,-2.498365343E-1,-2.596100792E-2,-8.124268800E-2
2.469441042E0,-2.510582209E-1,-4.184303805E-2,-8.368607610E-2
2.471822917E0,-2.447970361E-1,-5.635065958E-2,-8.612946421E-2
2.474204844E0,-2.409792393E-1,-6.841489673E-2,-8.842013776E-2
2.476586719E0,-2.347180545E-1,-7.574506104E-2,-9.086353332E-2
2.478968646E0,-2.272351831E-1,-8.536590636E-2,-9.086353332E-2
2.481350521E0,-2.209739983E-1,-9.025268257E-2,-8.964183182E-2
2.483732448E0,-2.136438340E-1,-9.254335612E-2,-8.842013776E-2
2.486114375E0,-2.061609477E-1,-9.498675168E-2,-8.704573661E-2
2.488496250E0,-1.974563748E-1,-9.361234307E-2,-8.215895295E-2
2.490878125E0,-1.899735034E-1,-8.750387281E-2,-7.605048269E-2
2.493260052E0,-1.863084137E-1,-8.139539510E-2,-7.238540053E-2
2.495641980E0,-1.776038408E-1,-7.406523079E-2,-6.505523622E-2
2.498023855E0,-1.713426560E-1,-6.306997687E-2,-5.772506446E-2
2.500405730E0,-1.652341783E-1,-4.963133857E-2,-4.902049154E-2
2.502787657E0,-1.589729935E-1,-3.863608837E-2,-3.924693540E-2
2.505169532E0,-1.540862173E-1,-2.764083818E-2,-2.947338112E-2
2.507551459E0,-1.478250325E-1,-1.786728203E-2,-2.092151903E-2
2.509933386E0,-1.417165697E-1,-8.093725890E-3,-1.236965694E-2
2.512315261E0,-1.330119967E-1,4.581354442E-4,-3.817795310E-3
2.514697188E0,-1.279724985E-1,6.566607859E-3,2.290677279E-3
2.517079063E0,-1.243074164E-1,1.023169141E-2,9.620844387E-3
2.519460990E0,-1.192679256E-1,1.634016447E-2,1.221694518E-2
2.521842865E0,-1.143811494E-1,1.893626526E-2,1.710372418E-2
2.524224792E0,-1.093416587E-1,2.015795931E-2,2.076880634E-2
2.526606667E0,-1.044548824E-1,2.137965336E-2,2.076880634E-2
2.528988594E0,-9.941539168E-2,2.137965336E-2,2.076880634E-2
2.531370469E0,-9.697200358E-2,2.015795931E-2,2.076880634E-2
2.533752396E0,-9.086353332E-2,2.260134928E-2,1.954711229E-2
2.536134271E0,-8.338065445E-2,2.137965336E-2,1.710372418E-2
2.538516198E0,-7.589777559E-2,1.908897609E-2,1.466033421E-2
2.540898073E0,-6.734590977E-2,2.275406010E-2,1.466033421E-2
2.543280000E0,-6.108472496E-2,2.153236605E-2,1.236965694E-2
2.545661927E0,-5.238015205E-2,2.031067200E-2,8.704573847E-3
2.548043802E0,-4.001049697E-2,2.290677279E-2,7.482878864E-3
2.550425730E0,-2.764083818E-2,2.412846684E-2,2.596100792E-3
2.552807605E0,-1.404948719E-2,2.412846684E-2,1.527118147E-4
2.555189532E0,-4.123218823E-3,2.168507688E-2,-4.734066315E-3
2.557571407E0,8.246437646E-3,1.939439960E-2,-8.246437646E-3
2.559953334E0,2.428117767E-2,1.572931744E-2,-1.191152167E-2
2.562335209E0,3.802524135E-2,1.221694518E-2,-1.801999472E-2
2.564717136E0,4.917320609E-2,8.551862091E-3,-2.046338283E-2
2.567099011E0,6.276455522E-2,5.039489828E-3,-2.535016090E-2
2.569480938E0,7.635590434E-2,3.817795310E-3,-3.374931216E-2
2.571862813E0,8.628217876E-2,-9.162708884E-4,-3.741439432E-2
2.574244740E0,9.620844573E-2,-5.803049076E-3,-4.596625641E-2
2.576626615E0,1.023169160E-1,-1.191152167E-2,-5.329642445E-2
2.579008542E0,1.097997949E-1,-1.924168877E-2,-5.940489471E-2
2.581390417E0,1.110214889E-1,-2.641914412E-2,-6.429167092E-2
2.583772344E0,1.134648770E-1,-3.130592033E-2,-7.040014863E-2
2.586154219E0,1.110214889E-1,-3.252761811E-2,-7.406523079E-2
2.588536146E0,1.073564067E-1,-3.512371704E-2,-8.017370105E-2
2.590918021E0,1.047603041E-1,-3.634541109E-2,-8.750387281E-2
2.593299948E0,9.849911928E-2,-3.634541109E-2,-9.116895497E-2
2.595681875E0,9.239064902E-2,-3.527642787E-2,-9.498675168E-2
2.598063750E0,8.353336155E-2,-3.283303976E-2,-9.987352788E-2
2.600445677E0,7.360709459E-2,-3.298575059E-2,-1.059819981E-1
2.602827552E0,6.490252167E-2,-3.054236248E-2,-1.085781008E-1
2.605209480E0,5.497625470E-2,-3.069507517E-2,-1.097997949E-1
2.607591355E0,4.260659590E-2,-2.825168520E-2,-1.134648770E-1
2.609973282E0,3.145863488E-2,-2.718270384E-2,-1.171299592E-1
2.612355157E0,1.893626526E-2,-2.718270384E-2,-1.172826737E-1
2.614737084E0,9.162709117E-3,-2.855710872E-2,-1.172826737E-1
2.617118959E0,-4.581354558E-3,-2.855710872E-2,-1.197260618E-1
2.619500886E0,-1.695101149E-2,-2.870982140E-2,-1.235438585E-1
2.621882761E0,-2.809897438E-2,-3.237490356E-2,-1.247655526E-1
2.624264688E0,-3.924693540E-2,-3.726168349E-2,-1.247655526E-1
2.626646563E0,-5.039490014E-2,-3.970507160E-2,-1.272089481E-1
2.629028490E0,-5.787777901E-2,-4.459185153E-2,-1.284306347E-1
2.631410365E0,-6.642963737E-2,-5.070032179E-2,-1.284306347E-1
2.633792292E0,-7.391251624E-2,-5.329642445E-2,-1.272089481E-1
2.636174167E0,-7.879929990E-2,-5.573981255E-2,-1.284306347E-1
2.638556094E0,-8.124268800E-2,-5.925218388E-2,-1.259872466E-1
2.640938021E0,-8.872556686E-2,-6.184828654E-2,-1.259872466E-1
2.643319896E0,-9.239064902E-2,-6.429167092E-2,-1.247655526E-1
2.645701823E0,-9.483403713E-2,-6.306997687E-2,-1.235438585E-1
2.648083698E0,-9.987352788E-2,-6.429167092E-2,-1.211004704E-1
2.650465625E0,-1.023169160E-1,-6.429167092E-2,-1.212531775E-1
2.652847500E0,-1.072036922E-1,-6.429167092E-2,-1.188097894E-1
2.655229427E0,-1.085781008E-1,-6.184828654E-2,-1.163664013E-1
2.657611302E0,-1.122431830E-1,-6.184828654E-2,-1.114796251E-1
2.659993230E0,-1.146865711E-1,-6.062658876E-2,-1.090362370E-1
2.662375105E0,-1.197260618E-1,-5.696150661E-2,-1.090362370E-1
2.664757032E0,-1.221694499E-1,-5.573981255E-2,-1.041494608E-1
2.667138907E0,-1.233911440E-1,-5.329642445E-2,-1.041494608E-1
2.669520834E0,-1.221694499E-1,-5.207473040E-2,-1.017060652E-1
2.671902709E0,-1.209477559E-1,-5.085303262E-2,-1.017060652E-1
2.674284636E0,-1.195733473E-1,-5.207473040E-2,-9.926267713E-2
2.676666511E0,-1.171299592E-1,-5.573981255E-2,-9.666658193E-2
2.679048438E0,-1.133121699E-1,-5.451811850E-2,-9.544488788E-2
2.681430313E0,-1.108687744E-1,-5.696150661E-2,-9.666658193E-2
2.683812240E0,-1.072036922E-1,-6.169557199E-2,-9.544488788E-2
2.686194115E0,-1.033858955E-1,-6.536065787E-2,-9.544488788E-2
2.688576042E0,-1.009425074E-1,-7.024743408E-2,-9.544488788E-2
2.690957917E0,-9.834641218E-2,-7.375980914E-2,-9.300149232E-2
2.693339844E0,-9.468132257E-2,-7.986827940E-2,-9.300149232E-2
2.695721771E0,-9.330692142E-2,-8.704573661E-2,-9.284878522E-2
2.698103646E0,-9.086353332E-2,-8.826743066E-2,-9.040539712E-2
2.700485573E0,-8.704573661E-2,-9.071081877E-2,-8.796200156E-2
2.702867448E0,-8.582404256E-2,-9.315420687E-2,-8.551861346E-2
2.705249375E0,-8.460234851E-2,-9.544488788E-2,-8.429691941E-2
2.707631250E0,-8.215895295E-2,-9.422318637E-2,-8.429691941E-2
2.710013177E0,-7.971556485E-2,-8.933641016E-2,-8.063183725E-2
2.712395052E0,-7.711946964E-2,-8.567132801E-2,-7.941014320E-2
2.714776980E0,-7.467607409E-2,-8.338065445E-2,-7.941014320E-2
2.717158855E0,-7.467607409E-2,-8.093725890E-2,-7.696675509E-2
2.719540782E0,-7.223268598E-2,-7.605048269E-2,-7.574506104E-2
2.721922657E0,-6.978929788E-2,-7.116370648E-2,-7.696675509E-2
2.724304584E0,-6.856760383E-2,-6.627693027E-2,-7.452336699E-2
2.726686459E0,-6.734590977E-2,-6.505523622E-2,-7.452336699E-2
2.729068386E0,-6.612421572E-2,-6.016845629E-2,-7.574506104E-2
2.731450261E0,-6.490252167E-2,-5.650337040E-2,-7.330167294E-2
2.733832188E0,-6.245913357E-2,-5.650337040E-2,-7.330167294E-2
2.736214063E0,-6.490252167E-2,-5.772506446E-2,-7.452336699E-2
2.738595990E0,-6.856760383E-2,-6.016845629E-2,-7.574506104E-2
2.740977917E0,-6.856760383E-2,-6.016845629E-2,-7.818844914E-2
2.743359792E0,-6.856760383E-2,-5.772506446E-2,-7.696675509E-2
2.745741719E0,-7.360709459E-2,-5.787777901E-2,-7.696675509E-2
2.748123594E0,-7.605048269E-2,-5.665608495E-2,-7.452336699E-2
2.750505521E0,-7.849387079E-2,-5.665608495E-2,-7.452336699E-2
2.752887396E0,-8.353336155E-2,-5.299099907E-2,-7.330167294E-2
2.755269323E0,-8.979454637E-2,-5.054761097E-2,-7.345438004E-2
2.757651198E0,-9.712471068E-2,-4.825693369E-2,-7.711946964E-2
2.760033125E0,-1.046075895E-1,-4.337015375E-2,-7.711946964E-2
2.762415000E0,-1.072036922E-1,-3.863608837E-2,-7.467607409E-2
2.764796927E0,-1.120904684E-1,-3.008422814E-2,-7.589777559E-2
2.767178802E0,-1.197260618E-1,-2.046338283E-2,-7.605048269E-2
2.769560730E0,-1.209477559E-1,-1.191152167E-2,-7.727217674E-2
2.771942605E0,-1.235438585E-1,-3.512371797E-3,-7.849387079E-2
2.774324532E0,-1.272089481E-1,3.817795310E-3,-7.849387079E-2
2.776706407E0,-1.284306347E-1,8.551862091E-3,-7.727217674E-2
2.779088334E0,-1.285833418E-1,1.710372418E-2,-7.605048269E-2
2.781470209E0,-1.261399537E-1,2.443389036E-2,-7.620319724E-2
2.783852136E0,-1.247655526E-1,2.565558441E-2,-7.116370648E-2
2.786234011E0,-1.247655526E-1,2.809897438E-2,-6.872031838E-2
2.788615938E0,-1.235438585E-1,3.054236248E-2,-6.994201243E-2
2.790997813E0,-1.211004704E-1,3.054236248E-2,-6.505523622E-2
2.793379740E0,-1.160609797E-1,2.702999115E-2,-5.894676223E-2
2.795761667E0,-1.110214889E-1,2.580829710E-2,-5.405998230E-2
2.798143542E0,-1.073564067E-1,1.969982497E-2,-5.161659420E-2
2.800525469E0,-1.023169160E-1,1.252236869E-2,-4.779879749E-2
2.802907344E0,-9.605573118E-2,5.344913341E-3,-4.535540938E-2
2.805289271E0,-9.223793447E-2,-3.206948051E-3,-4.169032723E-2
2.807671146E0,-8.597674966E-2,-1.404948719E-2,-3.787253052E-2
2.810053073E0,-7.971556485E-2,-2.122694254E-2,-3.176405653E-2
2.812434948E0,-7.223268598E-2,-2.962609194E-2,-2.932066843E-2
2.814816875E0,-6.230641901E-2,-3.802524135E-2,-2.672456764E-2
2.817198750E0,-5.222744122E-2,-4.291202128E-2,-2.672456764E-2
2.819580677E0,-4.230117425E-2,-4.886778072E-2,-2.183778957E-2
2.821962552E0,-3.237490356E-2,-5.604523420E-2,-2.046338283E-2
2.824344480E0,-2.000524849E-2,-5.848862603E-2,-1.801999472E-2
2.826726355E0,-7.482878864E-3,-6.322269142E-2,-1.298050396E-2
2.829108282E0,0.000000000E0,-6.795676053E-2,-1.175880991E-2
2.831490157E0,9.926267900E-3,-7.040014863E-2,-9.315420873E-3
2.833872084E0,1.740914769E-2,-7.269082218E-2,-6.872031838E-3
2.836254011E0,2.733541466E-2,-7.269082218E-2,-6.108472589E-4
2.838635886E0,3.848337755E-2,-7.498150319E-2,1.832541777E-3
2.841017813E0,4.474456236E-2,-7.253811508E-2,3.054236295E-3
2.843399688E0,5.344913527E-2,-7.498150319E-2,7.941014133E-3
2.845781615E0,6.215370819E-2,-7.238540053E-2,1.053711493E-2
2.848163490E0,7.085828483E-2,-7.482878864E-2,1.420219894E-2
2.850545417E0,7.834116369E-2,-7.589777559E-2,1.786728203E-2
2.852927292E0,8.582404256E-2,-7.467607409E-2,2.153236605E-2
2.855309219E0,9.437590092E-2,-7.589777559E-2,2.153236605E-2
2.857691094E0,1.032331884E-1,-7.818844914E-2,2.535016090E-2
2.860073021E0,1.143811494E-1,-8.063183725E-2,2.657185495E-2
2.862454896E0,1.230857223E-1,-8.292251825E-2,2.901524492E-2
2.864836823E0,1.305686086E-1,-8.780929446E-2,2.901524492E-2
2.867218698E0,1.404948682E-1,-9.009996802E-2,3.038965166E-2
2.869600625E0,1.516428292E-1,-9.361234307E-2,3.161134571E-2
2.871982500E0,1.615691036E-1,-9.727742523E-2,3.527642787E-2
2.874364427E0,1.714953631E-1,-9.834641218E-2,3.665083647E-2
2.876746302E0,1.838650256E-1,-9.834641218E-2,3.787253052E-2
2.879128230E0,1.937913001E-1,-9.834641218E-2,3.787253052E-2
2.881510105E0,2.012741715E-1,-9.819369763E-2,4.275930673E-2
2.883892032E0,2.087570578E-1,-1.006370857E-1,4.535540938E-2
2.886273907E0,2.125748396E-1,-9.926267713E-2,5.268557742E-2
2.888655834E0,2.200577259E-1,-9.804098308E-2,5.757235363E-2
2.891037709E0,2.237228155E-1,-9.804098308E-2,6.368082762E-2
2.893419636E0,2.299840003E-1,-9.422318637E-2,7.101099193E-2
2.895801563E0,2.336490750E-1,-8.933641016E-2,8.093725890E-2
2.898183438E0,2.362451702E-1,-8.567132801E-2,8.826743066E-2
2.900565365E0,2.374668717E-1,-7.711946964E-2,9.681928903E-2
2.902947240E0,2.411319613E-1,-6.978929788E-2,1.029277667E-1
2.905329167E0,2.435753495E-1,-5.635065958E-2,1.102579311E-1
2.907711042E0,2.435753495E-1,-4.184303805E-2,1.151447073E-1
2.910092969E0,2.460187376E-1,-2.718270384E-2,1.200314835E-1
2.912474844E0,2.434226274E-1,-1.145338640E-2,1.259872466E-1
2.914856771E0,2.434226274E-1,7.635590737E-4,1.296523362E-1
2.917238646E0,2.422009408E-1,1.771457121E-2,1.357607991E-1
2.919620573E0,2.383831441E-1,3.344388679E-2,1.406475753E-1
2.922002448E0,2.357870489E-1,4.688252881E-2,1.443126649E-1
2.924384375E0,2.321219593E-1,5.528167635E-2,1.490467340E-1
2.926766250E0,2.296785712E-1,6.383354217E-2,1.527118087E-1
2.929148177E0,2.296785712E-1,6.872031838E-2,1.575985998E-1
2.931530105E0,2.258607745E-1,7.116370648E-2,1.600419879E-1
2.933911980E0,2.234173864E-1,6.994201243E-2,1.661504507E-1
2.936293855E0,2.234173864E-1,6.749862432E-2,1.673721522E-1
2.938675782E0,2.247917950E-1,6.261184067E-2,1.736333370E-1
2.941057709E0,2.260134816E-1,5.787777901E-2,1.772984117E-1
2.943439584E0,2.298312783E-1,5.054761097E-2,1.785201132E-1
2.945821459E0,2.322746664E-1,4.581354558E-2,1.797417998E-1
2.948203386E0,2.336490750E-1,4.092676565E-2,1.785201132E-1
2.950585313E0,2.385358512E-1,3.603998944E-2,1.786728203E-1
2.952967188E0,2.435753495E-1,3.619270027E-2,1.774511337E-1
2.955349115E0,2.472404242E-1,3.619270027E-2,1.737860441E-1
2.957730990E0,2.447970361E-1,3.970507160E-2,1.750077456E-1
2.960112917E0,2.446443290E-1,4.581354558E-2,1.687465608E-1
2.962494792E0,2.434226274E-1,5.299099907E-2,1.650814712E-1
2.964876719E0,2.383831441E-1,6.276455522E-2,1.626380831E-1
2.967258594E0,2.382304370E-1,7.360709459E-2,1.575985998E-1
2.969640521E0,2.331909388E-1,8.078455180E-2,1.539335102E-1
2.972022396E0,2.331909388E-1,9.055810422E-2,1.490467340E-1
2.974404323E0,2.305948436E-1,9.651386738E-2,1.441599578E-1
2.976786198E0,2.269297540E-1,1.001789495E-1,1.403421611E-1
2.979168125E0,2.267770469E-1,1.036913246E-1,1.342336833E-1
2.981550000E0,2.255553454E-1,1.061347127E-1,1.293469071E-1
2.983931927E0,2.255553454E-1,1.085781008E-1,1.244601309E-1
2.986313855E0,2.267770469E-1,1.073564067E-1,1.220167428E-1
2.988695730E0,2.292204350E-1,1.073564067E-1,1.183516532E-1
2.991077657E0,2.316638231E-1,1.110214889E-1,1.183516532E-1
2.993459532E0,2.365505993E-1,1.097997949E-1,1.183516532E-1
2.995841459E0,2.428117841E-1,1.122431830E-1,1.183516532E-1
2.998223334E0,2.502946556E-1,1.122431830E-1,1.183516532E-1
3.000605261E0,2.614426315E-1,1.159082651E-1,1.195733473E-1
3.002987136E0,2.712161839E-1,1.197260618E-1,1.221694499E-1
3.005369063E0,2.837385535E-1,1.221694499E-1,1.258345395E-1
3.007750938E0,2.973299026E-1,1.270562261E-1,1.307213157E-1
3.010132865E0,3.109212518E-1,1.369825006E-1,1.356080920E-1
3.012514740E0,3.283303976E-1,1.455343664E-1,1.406475753E-1
3.014896667E0,3.419217467E-1,1.565296054E-1,1.479777545E-1
3.017278542E0,3.555130959E-1,1.652341783E-1,1.553079188E-1
3.019660469E0,3.692571819E-1,1.737860441E-1,1.638597846E-1
3.022042344E0,3.828485310E-1,1.847812980E-1,1.725643575E-1
3.024424271E0,3.952181637E-1,1.933331639E-1,1.811162084E-1
3.026806146E0,4.051444530E-1,2.044811249E-1,1.896680743E-1
3.029188073E0,4.150707126E-1,2.177670449E-1,1.969982386E-1
3.031569948E0,4.262186885E-1,2.289150059E-1,2.031067163E-1
3.033951875E0,4.385883212E-1,2.386885732E-1,2.093679011E-1
3.036333802E0,4.483618736E-1,2.509055138E-1,2.154763639E-1
3.038715677E0,4.558447599E-1,2.690782249E-1,2.252499312E-1
3.041097605E0,4.619532526E-1,2.874036431E-1,2.338017821E-1
3.043479480E0,4.643966258E-1,3.080197275E-1,2.447970361E-1
3.045861407E0,4.643966258E-1,3.312319219E-1,2.544178963E-1
3.048243282E0,4.618005157E-1,3.518480062E-1,2.605263591E-1
3.050625209E0,4.567610323E-1,3.700207174E-1,2.666348219E-1
3.053007084E0,4.480564594E-1,3.796415627E-1,2.654131353E-1
3.055389011E0,4.355340898E-1,3.843756318E-1,2.554868758E-1
3.057770886E0,4.231644273E-1,3.817795515E-1,2.420482337E-1
3.060152813E0,4.031592011E-1,3.756710589E-1,2.272351831E-1
3.062521407E0,3.808632791E-1,3.633013964E-1,2.087570578E-1
3.064916615E0,3.597890437E-1,3.472666740E-1,1.904316396E-1
3.067298490E0,3.374931216E-1,3.301629424E-1,1.731752008E-1
3.069667136E0,3.101576865E-1,3.129065037E-1,1.524063945E-1
3.072062292E0,2.878617644E-1,2.870981991E-1,1.290414780E-1
3.074444219E0,2.593046725E-1,2.626643181E-1,1.046075895E-1
3.076812865E0,2.319692522E-1,2.319692522E-1,7.513421029E-2
3.079208021E0,2.034121305E-1,1.965401024E-1,4.321744293E-2
3.081589896E0,1.750077456E-1,1.562241912E-1,1.145338640E-2
3.083958542E0,1.464506239E-1,1.134648770E-1,-2.657185495E-2
3.086353750E0,1.217113137E-1,6.704048812E-2,-6.566607952E-2
3.088735625E0,9.437590092E-2,1.801999472E-2,-1.110214889E-1
3.091104271E0,6.719319522E-2,-3.084778599E-2,-1.537808031E-1
3.093499427E0,4.230117425E-2,-7.849387079E-2,-2.015796006E-1
3.095881355E0,1.740914769E-2,-1.165191159E-1,-2.506000996E-1
3.098263230E0,-2.443389036E-3,-1.411057115E-1,-2.971771955E-1
3.100645157E0,-1.511846948E-2,-1.485885978E-1,-3.364241421E-1
3.103027032E0,-2.397575416E-2,-1.354553849E-1,-3.658975065E-1
3.105408959E0,-2.428117767E-2,-1.039967462E-1,-3.819322586E-1
3.107790834E0,-1.832541823E-2,-6.032116711E-2,-3.943018913E-1
3.110172761E0,-7.482878864E-3,-9.162708884E-4,-3.943018913E-1
3.112554636E0,8.246437646E-3,6.230641901E-2,-3.907895386E-1
3.114936563E0,2.657185495E-2,1.181989461E-1,-3.822376728E-1
3.117318438E0,4.504998401E-2,1.740914732E-1,-3.713951409E-1
3.119687084E0,5.848862603E-2,2.240282297E-1,-3.567348123E-1
3.122082240E0,7.070557028E-2,2.654131353E-1,-3.347443044E-1
3.124464167E0,8.185353130E-2,2.947337925E-1,-3.103103936E-1
3.126832813E0,9.437590092E-2,3.119902313E-1,-2.832804024E-1
3.129227969E0,1.044548824E-1,3.205420971E-1,-2.551814318E-1
3.131609844E0,1.157555580E-1,3.159607351E-1,-2.257080674E-1
3.133978490E0,1.272089481E-1,3.016058207E-1,-1.950129867E-1
3.136373698E0,1.398840249E-1,2.812951505E-1,-1.667613089E-1
3.138755573E0,1.550024897E-1,2.571666837E-1,-1.395785958E-1
3.141124219E0,1.714953631E-1,2.283041626E-1,-1.113269106E-1
3.143519375E0,1.928750277E-1,1.933331639E-1,-8.536590636E-2
3.145901302E0,2.166980654E-1,1.585148573E-1,-5.955760926E-2
3.148269896E0,2.455606014E-1,1.259872466E-1,-3.726168349E-2
3.150665105E0,2.730487287E-1,9.345962852E-2,-2.000524849E-2
3.153046980E0,3.043546379E-1,5.848862603E-2,-6.261184346E-3
3.155415625E0,3.368822634E-1,2.122694254E-2,9.773556143E-3
3.157810782E0,3.694098890E-1,-1.863084175E-2,1.863084175E-2
3.160192709E0,4.019374847E-1,-6.337540597E-2,2.367033064E-2
3.162574584E0,4.318690002E-1,-1.165191159E-1,2.764083818E-2
3.164956511E0,4.619532526E-1,-1.745496094E-1,2.779355086E-2
3.167338386E0,4.883723855E-1,-2.435753495E-1,2.809897438E-2
3.169720313E0,5.111264586E-1,-3.162661791E-1,2.962609194E-2
3.172102188E0,5.312843919E-1,-3.949127495E-1,2.977880463E-2
3.174484115E0,5.503733754E-1,-4.761554301E-1,2.886253223E-2
3.176866042E0,5.619794726E-1,-5.596888065E-1,2.916795574E-2
3.179247917E0,5.711421967E-1,-6.409314871E-1,2.809897438E-2
3.181629792E0,5.752654076E-1,-7.209524512E-1,2.718270384E-2
3.184011719E0,5.731274486E-1,-7.925743461E-1,2.489202656E-2
3.186393594E0,5.647283196E-1,-8.617527485E-1,2.382304333E-2
3.188775521E0,5.526640415E-1,-9.164236188E-1,2.031067200E-2
3.191157448E0,5.380037427E-1,-9.625425935E-1,1.786728203E-2
3.193539323E0,5.219689608E-1,-9.965972900E-1,1.298050396E-2
3.195921250E0,5.047125220E-1,-1.014922738E0,1.053711493E-2
3.198289844E0,4.874561131E-1,-1.021183848E0,8.093725890E-3
3.200685052E0,4.700469673E-1,-1.012784719E0,5.497625098E-3
3.203066927E0,4.550811946E-1,-9.946120381E-1,7.941014133E-3
3.205435573E0,4.387410581E-1,-9.668185115E-1,9.009997360E-3
3.207830730E0,4.225535989E-1,-9.329164624E-1,1.252236869E-2
3.210212657E0,4.049917459E-1,-8.941276670E-1,1.359135192E-2
3.212581250E0,3.886515796E-1,-8.481613994E-1,1.954711229E-2
3.214976459E0,3.698680103E-1,-8.021951914E-1,2.183778957E-2
3.217358334E0,3.509317636E-1,-7.560762167E-1,2.657185495E-2
3.219726980E0,3.321481943E-1,-7.076665759E-1,3.497100621E-2
3.222122136E0,3.109212518E-1,-6.641436815E-1,4.092676565E-2
3.224504063E0,2.884726226E-1,-6.192464232E-1,4.810422286E-2
3.226872709E0,2.634278834E-1,-5.745018721E-1,5.894676223E-2
3.229267865E0,2.383831441E-1,-5.297572613E-1,6.612421572E-2
3.231649740E0,2.134911120E-1,-4.860817194E-1,7.207997888E-2
3.234031667E0,1.884463727E-1,-4.425588250E-1,7.803573459E-2
3.236413594E0,1.647760421E-1,-4.039227366E-1,8.032641560E-2
3.238795469E0,1.409530044E-1,-3.675773442E-1,8.139539510E-2
3.241177396E0,1.209477559E-1,-3.324536085E-1,8.368607610E-2
3.243559271E0,1.046075895E-1,-3.009949923E-1,8.353336155E-2
3.245941198E0,8.964183182E-2,-2.744231224E-1,8.582404256E-2
3.248323073E0,7.956285775E-2,-2.502946556E-1,8.567132801E-2
3.250705000E0,7.085828483E-2,-2.380777150E-1,9.055810422E-2
3.253086875E0,7.085828483E-2,-2.307475507E-1,9.910997003E-2
3.255468802E0,7.223268598E-2,-2.295258641E-1,1.088835225E-1
3.257850677E0,7.971556485E-2,-2.354816198E-1,1.200314835E-1
3.260232605E0,8.612946421E-2,-2.438807636E-1,1.334701329E-1
3.262614480E0,9.239064902E-2,-2.510582209E-1,1.507265568E-1
3.264996407E0,1.012479365E-1,-2.631224692E-1,1.667613089E-1
3.267378282E0,1.113269106E-1,-2.762556672E-1,1.852394342E-1
3.269760209E0,1.189625040E-1,-2.906105816E-1,2.047865391E-1
3.272142084E0,1.290414780E-1,-3.051182032E-1,2.209739983E-1
3.274524011E0,1.378987730E-1,-3.206948042E-1,2.418955117E-1
3.276892657E0,1.455343664E-1,-3.339807391E-1,2.591519356E-1
3.279287813E0,1.568350345E-1,-3.471139669E-1,2.800734639E-1
3.281669688E0,1.670667231E-1,-3.614688516E-1,2.983988822E-1
3.284051615E0,1.759240031E-1,-3.758237660E-1,3.205420971E-1
3.286433542E0,1.847812980E-1,-3.891097009E-1,3.426853120E-1
3.288815417E0,1.936385781E-1,-4.022429287E-1,3.611634374E-1
3.291184063E0,2.012741715E-1,-4.118637741E-1,3.796415627E-1
3.293579219E0,2.113531530E-1,-4.249969721E-1,3.991886973E-1
3.295961146E0,2.189887464E-1,-4.382829070E-1,4.176668227E-1
3.298343021E0,2.264716178E-1,-4.489727318E-1,4.361449480E-1
3.300724948E0,2.353289127E-1,-4.585935771E-1,4.546230733E-1
3.303106823E0,2.454078794E-1,-4.680617154E-1,4.729484916E-1
3.305488750E0,2.516690791E-1,-4.717268050E-1,4.889832437E-1
3.307870625E0,2.580829561E-1,-4.763081372E-1,5.073086619E-1
3.310252552E0,2.594573796E-1,-4.763081372E-1,5.209000111E-1
3.312634427E0,2.619007528E-1,-4.798205197E-1,5.355603099E-1
3.315016355E0,2.608317733E-1,-4.822639227E-1,5.489989519E-1
3.317398230E0,2.596100867E-1,-4.821111858E-1,5.601469278E-1
3.319780157E0,2.559449971E-1,-4.796678126E-1,5.699204803E-1
3.322162032E0,2.473931462E-1,-4.808894992E-1,5.772506595E-1
3.324543959E0,2.425063550E-1,-4.833329022E-1,5.845808387E-1
3.326925834E0,2.325800955E-1,-4.821111858E-1,5.882459283E-1
3.329307761E0,2.226538211E-1,-4.773771465E-1,5.929799676E-1
3.331689636E0,2.078407854E-1,-4.773771465E-1,5.966450572E-1
3.334071563E0,1.940967143E-1,-4.775298536E-1,5.954233408E-1
3.336453490E0,1.742441803E-1,-4.750864506E-1,5.928272605E-1
3.338835365E0,1.630962193E-1,-4.654656053E-1,5.891621709E-1
3.341217292E0,1.481304616E-1,-4.535540938E-1,5.853443742E-1
3.343599167E0,1.317902952E-1,-4.390464723E-1,5.792359114E-1
3.345981094E0,1.180462316E-1,-4.257605374E-1,5.754181147E-1
3.348362969E0,1.030804738E-1,-4.101839364E-1,5.705313683E-1
3.350744896E0,8.811471611E-2,-3.993414044E-1,5.654918551E-1
3.353126771E0,7.070557028E-2,-3.837648034E-1,5.592306852E-1
3.355508698E0,5.573981255E-2,-3.692571819E-1,5.567872524E-1
3.357890573E0,3.817795217E-2,-3.524588645E-1,5.480827093E-1
3.360272500E0,2.199050039E-2,-3.342861533E-1,5.405998230E-1
3.362654375E0,3.206948051E-3,-3.150444627E-1,5.306735635E-1
3.365036302E0,-1.801999472E-2,-2.970244884E-1,5.146388412E-1
3.367418177E0,-3.817795217E-2,-2.706053257E-1,5.010474920E-1
3.369800105E0,-6.184828654E-2,-2.452551723E-1,4.886777997E-1
3.372181980E0,-8.811471611E-2,-2.151709497E-1,4.750864506E-1
3.374563907E0,-1.094943732E-1,-1.838650256E-1,4.540122151E-1
3.376945782E0,-1.320957243E-1,-1.501157135E-1,4.391991794E-1
3.379327709E0,-1.546970755E-1,-1.188097894E-1,4.207210541E-1
3.381709636E0,-1.760767251E-1,-8.261708915E-2,4.020902216E-1
3.384091511E0,-1.962346882E-1,-4.764608666E-2,3.848337829E-1
3.386473438E0,-2.150182426E-1,-7.788302377E-3,3.686463237E-1
3.388855313E0,-2.290677279E-1,2.855710872E-2,3.538332880E-1
3.391237240E0,-2.441861928E-1,6.597150117E-2,3.377985358E-1
3.393619115E0,-2.556395829E-1,1.046075895E-1,3.242071867E-1
3.396001042E0,-2.646495700E-1,1.395785958E-1,3.081724346E-1
3.398382917E0,-2.672456801E-1,1.734806150E-1,2.982461751E-1
3.400764844E0,-2.712161839E-1,2.061609477E-1,2.809897363E-1
3.403146719E0,-2.715215981E-1,2.363978922E-1,2.637332976E-1
3.405528646E0,-2.730487287E-1,2.678565085E-1,2.452551723E-1
3.407910521E0,-2.709107697E-1,2.968717813E-1,2.267770469E-1
3.410292448E0,-2.686200738E-1,3.197785318E-1,2.069245130E-1
3.412674323E0,-2.626643181E-1,3.403946459E-1,1.873773932E-1
3.415056250E0,-2.541124523E-1,3.585673273E-1,1.688992679E-1
3.417438125E0,-2.431172132E-1,3.755183518E-1,1.542389393E-1
3.419820052E0,-2.359397560E-1,3.924693763E-1,1.345391124E-1
3.422201927E0,-2.286095917E-1,4.094203711E-1,1.198787764E-1
3.424583855E0,-2.214321345E-1,4.275930822E-1,1.101052165E-1
3.426965730E0,-2.141019702E-1,4.492781460E-1,9.895725548E-2
3.429347657E0,-2.079934925E-1,4.627167881E-1,8.551861346E-2
3.431729532E0,-2.020377368E-1,4.723376334E-1,7.437065244E-2
3.434111459E0,-1.983726472E-1,4.796678126E-1,6.948387623E-2
3.436493334E0,-1.995943487E-1,4.856235683E-1,6.948387623E-2
3.438875261E0,-2.008160353E-1,4.844018817E-1,7.314895838E-2
3.441257136E0,-2.020377368E-1,4.845545888E-1,8.292251825E-2
3.443639063E0,-2.069245130E-1,4.869979918E-1,1.001789495E-1
3.446020938E0,-2.142546773E-1,4.931064546E-1,1.185043678E-1
3.448402865E0,-2.240282297E-1,4.967715442E-1,1.343863904E-1
3.450784792E0,-2.376195788E-1,5.004366040E-1,1.514901221E-1
3.453166667E0,-2.524326444E-1,5.041016936E-1,1.710372269E-1
3.455548594E0,-2.696890533E-1,5.126535892E-1,1.905843467E-1
3.457930469E0,-2.869454920E-1,5.222744346E-1,2.150182426E-1
3.460312396E0,-3.054236174E-1,5.296045542E-1,2.359397560E-1
3.462694271E0,-3.240544796E-1,5.381564498E-1,2.591519356E-1
3.465076198E0,-3.387148082E-1,5.454866290E-1,2.823641598E-1
3.467458073E0,-3.559712470E-1,5.503733754E-1,3.067980409E-1
3.469840000E0,-3.695625961E-1,5.564818382E-1,3.348970115E-1
3.472221875E0,-3.793361485E-1,5.601469278E-1,3.642176688E-1
3.474603802E0,-3.866663277E-1,5.627430081E-1,3.888042867E-1
3.476985677E0,-3.865135908E-1,5.665608048E-1,4.120164812E-1
3.479367605E0,-3.802524209E-1,5.677825212E-1,4.292729199E-1
3.481749480E0,-3.677300513E-1,5.789304972E-1,4.463766217E-1
3.484131407E0,-3.466558158E-1,5.960342288E-1,4.636330605E-1
3.486513282E0,-3.158080280E-1,6.253548861E-1,4.770717025E-1
3.488895209E0,-2.762556672E-1,6.668924689E-1,4.917320311E-1
3.491263855E0,-2.293731421E-1,7.243121266E-1,5.051707029E-1
3.493659011E0,-1.737860441E-1,7.962393761E-1,5.187620521E-1
3.496040938E0,-1.146865711E-1,8.790091872E-1,5.297572613E-1
3.498409532E0,-5.436540768E-2,9.715525508E-1,5.442649126E-1
3.500804740E0,3.512371797E-3,1.070204377E0,5.613686442E-1
3.503186615E0,5.894676223E-2,1.165191174E0,5.809157491E-1
3.505555261E0,1.056765765E-1,1.257734537E0,6.016845703E-1
3.507950417E0,1.449235082E-1,1.341725945E0,6.224533319E-1
3.510332344E0,1.820324808E-1,1.405101418E0,6.493306160E-1
3.512700938E0,2.102841735E-1,1.466033459E0,6.700994372E-1
3.515096146E0,2.275405973E-1,1.511083364E0,6.872031689E-1
3.517478021E0,2.336490750E-1,1.531852245E0,7.018635273E-1
3.519846667E0,2.301367074E-1,1.531852245E0,7.153021693E-1
3.522241823E0,2.153236568E-1,1.508792758E0,7.226322889E-1
3.524623750E0,1.858502775E-1,1.471072912E0,7.201889157E-1
3.526992396E0,1.426328421E-1,1.419761777E0,7.104153633E-1
3.529387552E0,8.826743066E-2,1.355164647E0,6.957550049E-1
3.531769427E0,1.908897609E-2,1.287971497E0,6.699467301E-1
3.534138073E0,-6.139015034E-2,1.215738773E0,6.306998134E-1
3.536533230E0,-1.469087601E-1,1.150836229E0,5.778614879E-1
3.538915157E0,-2.385358512E-1,1.087002754E0,5.201364160E-1
3.541283750E0,-3.365768492E-1,1.026681542E0,4.611896873E-1
3.543678959E0,-4.269822240E-1,9.520054460E-1,4.085040987E-1
3.546060886E0,-5.109737515E-1,8.603783846E-1,3.668137789E-1
3.548429480E0,-5.874823332E-1,7.566870451E-1,3.387148082E-1
3.550824688E0,-6.552863717E-1,6.482616663E-1,3.228327632E-1
3.553206563E0,-7.117897868E-1,5.363239050E-1,3.155026138E-1
3.555575209E0,-7.508839965E-1,4.330907166E-1,3.156553209E-1
3.557970365E0,-7.701256871E-1,3.384093940E-1,3.330644667E-1
3.560352292E0,-7.794411182E-1,2.536543310E-1,3.590254784E-1
3.562720886E0,-7.751652002E-1,1.919587553E-1,3.898732662E-1
3.565116094E0,-7.611156702E-1,1.461452097E-1,4.278984964E-1
3.567497969E0,-7.395833135E-1,1.137702987E-1,4.734066129E-1
3.569866615E0,-7.081246972E-1,9.116895497E-2,5.250232220E-1
3.572261771E0,-6.693359017E-1,6.856760383E-2,5.717530251E-1
3.574643698E0,-6.256603003E-1,5.451811850E-2,6.172611713E-1
3.577012292E0,-5.819846988E-1,4.520269856E-2,6.554391384E-1
3.579407500E0,-5.358657837E-1,3.955236077E-2,6.887302995E-1
3.581789375E0,-4.935645759E-1,3.497100621E-2,7.120952010E-1
3.584158021E0,-4.537068009E-1,3.161134571E-2,7.281299233E-1
3.586553177E0,-4.178195298E-1,3.313846514E-2,7.356128097E-1
3.588935105E0,-3.866663277E-1,2.962609194E-2,7.394306064E-1
3.591303750E0,-3.605526090E-1,1.893626526E-2,7.408050299E-1
3.593698907E0,-3.407000601E-1,-1.252236869E-2,7.372926474E-1
3.596080782E0,-3.168770075E-1,-6.108472496E-2,7.215633392E-1
3.598449427E0,-3.005368412E-1,-1.241547018E-1,7.033905983E-1
3.600844584E0,-2.866400778E-1,-2.005106062E-1,6.803311110E-1
3.603226511E0,-2.739650011E-1,-2.831276953E-1,6.511631608E-1
3.605595157E0,-2.663294077E-1,-3.669664860E-1,6.183301210E-1
3.607990313E0,-2.586938143E-1,-4.483618736E-1,5.829010010E-1
3.610372240E0,-2.484621257E-1,-5.273138881E-1,5.439594984E-1
3.612740834E0,-2.347180545E-1,-6.015318632E-1,5.050179958E-1
3.615136042E0,-2.209739983E-1,-6.694886088E-1,4.685198367E-1
3.617517917E0,-2.034121305E-1,-7.339329720E-1,4.318690002E-1
3.619886563E0,-1.809635013E-1,-7.957812548E-1,3.978142738E-1
3.622281719E0,-1.609582454E-1,-8.625163436E-1,3.674246371E-1
3.624663646E0,-1.372879148E-1,-9.255862832E-1,3.431434333E-1
3.627032240E0,-1.159082651E-1,-9.935430884E-1,3.200839758E-1
3.629427448E0,-9.834641218E-2,-1.063943267E0,3.029802442E-1
3.631809323E0,-8.307522535E-2,-1.132968903E0,2.947337925E-1
3.634177969E0,-7.284353673E-2,-1.199704051E0,2.863346636E-1
3.636573125E0,-6.627693027E-2,-1.266439080E0,2.852656841E-1
3.638955052E0,-6.352811307E-2,-1.323400617E0,2.903051674E-1
3.641323646E0,-7.070557028E-2,-1.374253631E0,2.941229641E-1
3.643718855E0,-7.910472155E-2,-1.420372605E0,3.054236174E-1
3.646100730E0,-8.872556686E-2,-1.457939744E0,3.239017725E-1
3.648482657E0,-1.044548824E-1,-1.486954927E0,3.434488773E-1
3.650864584E0,-1.229330078E-1,-1.505280375E0,3.655920923E-1
3.653246459E0,-1.487413049E-1,-1.523453116E0,3.851391971E-1
3.655615105E0,-1.745496094E-1,-1.534448266E0,3.997995257E-1
3.658010261E0,-2.053973973E-1,-1.546665311E0,4.156815708E-1
3.660392188E0,-2.362451702E-1,-1.562394619E0,4.303418994E-1
3.662760782E0,-2.646495700E-1,-1.586828470E0,4.437805414E-1
3.665155990E0,-2.903051674E-1,-1.615996480E0,4.584408700E-1
3.667537865E0,-3.112266660E-1,-1.652341843E0,4.708105326E-1
3.669906511E0,-3.245126009E-1,-1.694948435E0,4.769189954E-1
3.672301667E0,-3.316900730E-1,-1.742289066E0,4.795151055E-1
3.674683594E0,-3.339807391E-1,-1.793142080E0,4.760027230E-1
3.677052188E0,-3.300102353E-1,-1.841704488E0,4.674508572E-1
3.679447396E0,-3.174878657E-1,-1.892710209E0,4.553866386E-1
3.681829271E0,-3.013004065E-1,-1.933942437E0,4.323271513E-1
3.684197917E0,-2.826695740E-1,-1.961888671E0,4.017847776E-1
3.686593073E0,-2.556395829E-1,-1.969218850E0,3.626905680E-1
3.688975000E0,-2.298312783E-1,-1.960819721E0,3.161134422E-1
3.691343646E0,-1.980672181E-1,-1.935469508E0,2.657185495E-1
3.693738802E0,-1.601946950E-1,-1.885838151E0,2.093679011E-1
3.696120677E0,-1.200314835E-1,-1.820477486E0,1.481304616E-1
3.698489323E0,-7.986827940E-2,-1.745343328E0,8.429691941E-2
3.700884480E0,-3.985778242E-2,-1.655701518E0,1.435491070E-2
3.703266407E0,-2.290677279E-3,-1.551704764E0,-6.062658876E-2
3.705635052E0,3.130592033E-2,-1.446333647E0,-1.380514801E-1
3.708030209E0,5.879404768E-2,-1.335006714E0,-2.118112892E-1
3.710412136E0,8.765657991E-2,-1.223679781E0,-2.793098986E-1
3.712780730E0,1.151447073E-1,-1.117086887E0,-3.481829464E-1
3.715175938E0,1.403421611E-1,-1.015380859E0,-4.121691883E-1
3.717557813E0,1.630962193E-1,-9.245173335E-1,-4.625640810E-1
3.719926459E0,1.821851879E-1,-8.422056437E-1,-5.129590034E-1
3.722321615E0,1.976090819E-1,-7.696675658E-1,-5.633538961E-1
3.724703542E0,2.057028115E-1,-7.104153633E-1,-6.050441861E-1
3.727072136E0,2.064663768E-1,-6.632274389E-1,-6.444438696E-1
3.729467344E0,1.974563748E-1,-6.343649030E-1,-6.775823236E-1
3.731849219E0,1.873773932E-1,-6.261184216E-1,-7.058340311E-1
3.734217865E0,1.711899489E-1,-6.287145615E-1,-7.243121266E-1
3.736613021E0,1.488940120E-1,-6.482616663E-1,-7.291989326E-1
3.738994948E0,1.244601309E-1,-6.847597957E-1,-7.145385742E-1
3.741363542E0,9.620844573E-2,-7.223268747E-1,-6.899519563E-1
3.743758750E0,6.306997687E-2,-7.612683773E-1,-6.679614782E-1
3.746140625E0,2.367033064E-2,-7.879929543E-1,-6.459710002E-1
3.748509271E0,-1.328592747E-2,-8.075400591E-1,-6.250494719E-1
3.750904427E0,-5.405998230E-2,-8.148702383E-1,-6.044333577E-1
3.753286355E0,-9.483403713E-2,-8.101361990E-1,-5.848862529E-1
3.755655000E0,-1.382041872E-1,-8.041804433E-1,-5.716003180E-1
3.758050157E0,-1.878355294E-1,-7.910472155E-1,-5.570927262E-1
3.760432084E0,-2.360924631E-1,-7.718055248E-1,-5.376983285E-1
3.762800677E0,-2.883199155E-1,-7.464553714E-1,-5.219689608E-1
3.765195886E0,-3.416163325E-1,-7.127060294E-1,-5.074613690E-1
3.767577761E0,-3.950654566E-1,-6.730009913E-1,-4.941754341E-1
3.769959688E0,-4.498890042E-1,-6.210789680E-1,-4.859289825E-1
3.772341563E0,-4.984513521E-1,-5.642701387E-1,-4.789042473E-1
3.774723490E0,-5.396835804E-1,-5.001311898E-1,-4.804313779E-1
3.777105365E0,-5.723638535E-1,-4.349232614E-1,-4.892886579E-1
3.779487292E0,-5.951179266E-1,-3.695625961E-1,-5.042544007E-1
3.781869167E0,-6.016845703E-1,-3.139754832E-1,-5.251759291E-1
3.784237813E0,-5.984776020E-1,-2.631224692E-1,-5.485408306E-1
3.786632969E0,-5.764871240E-1,-2.279987335E-1,-5.694623590E-1
3.789014896E0,-5.468609929E-1,-2.035648525E-1,-5.841227174E-1
3.791383490E0,-5.097520351E-1,-1.913478971E-1,-5.914528370E-1
3.793778698E0,-4.663818777E-1,-1.910424829E-1,-5.839699507E-1
3.796160573E0,-4.204156399E-1,-2.015796006E-1,-5.703786016E-1
3.798529219E0,-3.730749488E-1,-2.194468826E-1,-5.505260825E-1
3.800924375E0,-3.231382072E-1,-2.385358512E-1,-5.209000111E-1
3.803306302E0,-2.782409191E-1,-2.550287247E-1,-4.900522232E-1
3.805674948E0,-2.408265322E-1,-2.704526186E-1,-4.581354558E-1
3.808070105E0,-2.070772201E-1,-2.907632887E-1,-4.236225784E-1
3.810452032E0,-1.731752008E-1,-3.086305857E-1,-3.854446113E-1
3.812820625E0,-1.430909634E-1,-3.287885487E-1,-3.460449576E-1
3.815215834E0,-1.180462316E-1,-3.515425920E-1,-3.031329513E-1
3.817597709E0,-9.773556143E-2,-3.730749488E-1,-2.625116110E-1
3.819966355E0,-8.383878320E-2,-3.884988427E-1,-2.220429778E-1
3.822361511E0,-7.620319724E-2,-3.979669809E-1,-1.864611208E-1
3.824743438E0,-7.345438004E-2,-3.978142738E-1,-1.521009654E-1
3.827112032E0,-7.956285775E-2,-3.904841244E-1,-1.215586066E-1
3.829507240E0,-8.689302206E-2,-3.854446113E-1,-9.575030953E-2
3.831889115E0,-8.796200156E-2,-3.901786804E-1,-7.009471953E-2
3.834271042E0,-8.399149776E-2,-4.081986845E-1,-4.917320609E-2
3.836652917E0,-6.872031838E-2,-4.480564594E-1,-2.443389036E-2
3.839034844E0,-5.100574717E-2,-5.048652887E-1,1.527118147E-4
3.841403490E0,-3.298575059E-2,-5.786250830E-1,2.382304333E-2
3.843798646E0,-2.260134928E-2,-6.572716236E-1,4.367557913E-2
3.846180521E0,-1.710372418E-2,-7.420266867E-1,5.971032009E-2
3.848549167E0,-2.168507688E-2,-8.209787011E-1,6.612421572E-2
3.850944375E0,-3.359659761E-2,-8.973346353E-1,6.994201243E-2
3.853326250E0,-5.436540768E-2,-9.642223716E-1,6.642963737E-2
3.855694896E0,-8.002099395E-2,-1.025001645E0,6.276455522E-2
3.858090052E0,-1.108687744E-1,-1.073716760E0,5.665608495E-2
3.860471927E0,-1.453816444E-1,-1.117545009E0,5.176930502E-2
3.862840573E0,-1.861557066E-1,-1.151752472E0,4.566083103E-2
3.865235782E0,-2.269297540E-1,-1.178782463E0,4.306473210E-2
3.867617657E0,-2.640387416E-1,-1.192221165E0,4.550812021E-2
3.869986302E0,-3.011476994E-1,-1.199704051E0,5.405998230E-2
3.872381459E0,-3.309265077E-1,-1.183974743E0,6.368082762E-2
3.874763386E0,-3.520007432E-1,-1.151294351E0,7.696675509E-2
3.877131980E0,-3.707842827E-1,-1.101510286E0,9.391776472E-2
3.879527188E0,-3.759764731E-1,-1.032331824E0,1.159082651E-1
3.881909063E0,-3.665083647E-1,-9.472714067E-1,1.353026628E-1
3.884277709E0,-3.432961702E-1,-8.464815617E-1,1.559187621E-1
3.886672865E0,-3.054236174E-1,-7.321004272E-1,1.704263836E-1
3.889054792E0,-2.539597452E-1,-6.068767309E-1,1.824906170E-1
3.891423438E0,-1.875301152E-1,-4.779879749E-1,1.896680743E-1
3.893818594E0,-1.101052165E-1,-3.526115716E-1,1.896680743E-1
3.896200469E0,-2.275406010E-2,-2.321219593E-1,1.821851879E-1
3.898569115E0,7.192726433E-2,-1.104106456E-1,1.624853760E-1
3.900964271E0,1.714953631E-1,1.527118147E-3,1.319430023E-1
3.903346198E0,2.699944973E-1,1.073564067E-1,9.025268257E-2
3.905714844E0,3.671191931E-1,1.985253543E-1,4.123219103E-2
3.908110000E0,4.544703662E-1,2.739650011E-1,-1.496575773E-2
3.910491927E0,5.331169367E-1,3.298575282E-1,-7.131642103E-2
3.912860521E0,5.983248949E-1,3.700207174E-1,-1.275143623E-1
3.915255730E0,6.523848772E-1,3.978142738E-1,-1.777565479E-1
3.917637605E0,6.893411279E-1,4.100312293E-1,-2.229592502E-1
3.920006250E0,7.125533223E-1,4.159869850E-1,-2.597627938E-1
3.922401407E0,7.235485911E-1,4.158342779E-1,-2.890834510E-1
3.924783334E0,7.197307944E-1,4.109475017E-1,-3.124483824E-1
3.927165209E0,7.059867382E-1,4.059080184E-1,-3.319954872E-1
3.929547136E0,6.798729897E-1,4.031592011E-1,-3.468085229E-1
3.931929011E0,6.464291215E-1,4.030064642E-1,-3.591781855E-1
3.934310938E0,6.029062271E-1,4.063661397E-1,-3.654393852E-1
3.936692813E0,5.557183027E-1,4.170559645E-1,-3.729222417E-1
3.939074740E0,5.022691488E-1,4.288147688E-1,-3.791834414E-1
3.941456615E0,4.488200247E-1,4.430169761E-1,-3.880407214E-1
3.943838542E0,3.941491842E-1,4.584408700E-1,-3.955236077E-1
3.946220417E0,3.407000601E-1,4.799732268E-1,-4.080459774E-1
3.948602344E0,2.909159958E-1,4.978405237E-1,-4.193466306E-1
3.950984271E0,2.411319613E-1,5.205945969E-1,-4.292729199E-1
3.953366146E0,1.988307834E-1,5.421269536E-1,-4.442386627E-1
3.955734792E0,1.601946950E-1,5.575508475E-1,-4.529432356E-1
3.958129948E0,1.253764033E-1,5.694623590E-1,-4.628695250E-1
3.960511875E0,9.422318637E-2,5.801522136E-1,-4.764608741E-1
3.962880469E0,6.810946763E-2,5.885513425E-1,-4.839437306E-1
3.965275677E0,4.825693369E-2,5.945070982E-1,-4.888305068E-1
3.967657552E0,3.206948191E-2,5.980194807E-1,-4.926483035E-1
3.970039480E0,2.840439789E-2,5.990884304E-1,-4.963133931E-1
3.972421355E0,3.084778599E-2,5.894675851E-1,-5.012001991E-1
3.974803282E0,4.459185153E-2,5.737382770E-1,-5.047125220E-1
3.977185157E0,6.322269142E-2,5.447230339E-1,-5.157077909E-1
3.979567084E0,8.933641016E-2,5.071559548E-1,-5.375455618E-1
3.981948959E0,1.217113137E-1,4.561502039E-1,-5.642701387E-1
3.984330886E0,1.565296054E-1,4.052971601E-1,-5.885513425E-1
3.986712761E0,1.913478971E-1,3.593308926E-1,-6.103891134E-1
3.989094688E0,2.273878902E-1,3.229855001E-1,-6.407787800E-1
3.991463334E0,2.683146596E-1,2.962609231E-1,-6.713211536E-1
3.993858490E0,3.103103936E-1,2.829749882E-1,-7.065975666E-1
3.996240365E0,3.535278440E-1,2.805316150E-1,-7.432484031E-1
3.998609011E0,3.941491842E-1,2.817533016E-1,-7.847860456E-1
4.001004167E0,4.297310412E-1,2.903051674E-1,-8.301414251E-1
4.003386094E0,4.579827189E-1,2.925958335E-1,-8.790091872E-1
4.005754740E0,4.764608741E-1,2.816005945E-1,-9.231429100E-1
4.008149896E0,4.848600030E-1,2.643441558E-1,-9.695672989E-1
4.010531823E0,4.873034060E-1,2.411319613E-1,-1.014922738E0
4.012900417E0,4.833329022E-1,2.141019702E-1,-1.061347127E0
4.015295625E0,4.758500159E-1,1.811162084E-1,-1.103037477E0
4.017677500E0,4.584408700E-1,1.505738497E-1,-1.138466597E0
4.020046146E0,4.324798584E-1,1.127013192E-1,-1.170383334E0
4.022441302E0,3.965925872E-1,7.223268598E-2,-1.202147365E0
4.024823230E0,3.469612300E-1,3.191677108E-2,-1.227955699E0
4.027191823E0,2.838912606E-1,-9.773556143E-3,-1.243990421E0
4.029587032E0,2.121167034E-1,-4.535540938E-2,-1.253916740E0
4.031968907E0,1.291942000E-1,-7.742489129E-2,-1.260177851E0
4.034337552E0,4.138490185E-2,-1.154501289E-1,-1.267660737E0
4.036732709E0,-5.268557742E-2,-1.597365588E-1,-1.270256877E0
4.039114636E0,-1.540862173E-1,-2.159345001E-1,-1.264301062E0
4.041496511E0,-2.626643181E-1,-2.820587158E-1,-1.257123709E0
4.043878438E0,-3.687990308E-1,-3.515425920E-1,-1.238950968E0
4.046260313E0,-4.775298536E-1,-4.224008918E-1,-1.214517117E0
4.048642240E0,-5.774033666E-1,-4.943281412E-1,-1.188861489E0
4.051024115E0,-6.734591126E-1,-5.613686442E-1,-1.152210593E0
4.053406042E0,-7.695148587E-1,-6.294780970E-1,-1.105786204E0
4.055787917E0,-8.605310917E-1,-6.988092661E-1,-1.044548869E0
4.058169844E0,-9.466605186E-1,-7.656970620E-1,-9.747595191E-1
4.060551771E0,-1.026376128E0,-8.432746530E-1,-9.013051391E-1
4.062920365E0,-1.106091619E0,-9.220739603E-1,-8.217422962E-1
4.065315573E0,-1.185807228E0,-1.009425044E0,-7.420266867E-1
4.067697448E0,-1.261705041E0,-1.104106426E0,-6.635328531E-1
4.070066094E0,-1.333784938E0,-1.199856758E0,-5.864133835E-1
4.072495209E0,-1.394869685E0,-1.291942000E0,-5.042544007E-1
4.074843125E0,-1.439919710E0,-1.375475287E0,-4.268295169E-1
4.077272240E0,-1.475043416E0,-1.456565261E0,-3.568875194E-1
4.079606927E0,-1.494132400E0,-1.530325055E0,-2.954973578E-1
4.081988855E0,-1.500851750E0,-1.593242407E0,-2.451024652E-1
4.084357500E0,-1.490467310E0,-1.640277624E0,-2.069245130E-1
4.086752657E0,-1.469087601E0,-1.675248623E0,-1.860029846E-1
4.089134584E0,-1.439156175E0,-1.699224353E0,-1.785201132E-1
4.091503177E0,-1.400672793E0,-1.720909476E0,-1.856975704E-1
4.093898386E0,-1.358677030E0,-1.732973695E0,-2.087570578E-1
4.096280261E0,-1.313016176E0,-1.732973695E0,-2.454078794E-1
4.098648907E0,-1.266133666E0,-1.714648247E0,-2.893888950E-1
4.101044063E0,-1.223374367E0,-1.669903636E0,-3.471139669E-1
4.103425990E0,-1.183211088E0,-1.610651493E0,-4.132381678E-1
4.105794636E0,-1.144269586E0,-1.524674773E0,-4.831801951E-1
4.108189792E0,-1.105633497E0,-1.407086611E0,-5.447230339E-1
4.110571719E0,-1.073258638E0,-1.272547603E0,-6.050441861E-1
4.112940313E0,-1.044548869E0,-1.122279167E0,-6.519267559E-1
4.115335521E0,-1.025765300E0,-9.562813640E-1,-6.951441765E-1
4.117717396E0,-1.012021184E0,-7.829535007E-1,-7.310314775E-1
4.120086042E0,-1.001942158E0,-6.131379604E-1,-7.511894107E-1
4.122481198E0,-1.005301833E0,-4.592044353E-1,-7.624900937E-1
4.124863125E0,-1.013395548E0,-3.293993771E-1,-7.617265582E-1
4.127231719E0,-1.030041218E0,-2.348707765E-1,-7.559235096E-1
4.129626927E0,-1.051420808E0,-1.670667231E-1,-7.450809479E-1
4.132008802E0,-1.078756213E0,-1.221694499E-1,-7.256865501E-1
4.134377448E0,-1.107313395E0,-9.681928903E-2,-7.012526393E-1
4.136772605E0,-1.138161182E0,-8.215895295E-2,-6.708629727E-1
4.139154532E0,-1.164122105E0,-7.131642103E-2,-6.340594292E-1
4.141523125E0,-1.181225896E0,-5.772506446E-2,-5.851916671E-1
4.143918334E0,-1.185959935E0,-2.229592577E-2,-5.265503526E-1
4.146300209E0,-1.176033735E0,3.512371704E-2,-4.604261220E-1
4.148668855E0,-1.151294351E0,1.204896197E-1,-3.857500553E-1
4.151064011E0,-1.105480790E0,2.351761907E-1,-3.026748300E-1
4.153445938E0,-1.039967418E0,3.804051280E-1,-2.096733153E-1
4.155814584E0,-9.547542930E-1,5.438067913E-1,-1.130067408E-1
4.158209740E0,-8.521319032E-1,7.098045349E-1,-1.511846948E-2
4.160591667E0,-7.334748507E-1,8.698465228E-1,8.414421231E-2
4.162960261E0,-6.022953987E-1,1.017824292E0,1.760767251E-1
4.165355469E0,-4.611896873E-1,1.152363300E0,2.608317733E-1
4.167737344E0,-3.112266660E-1,1.271173120E0,3.417690396E-1
4.170105990E0,-1.527118087E-1,1.366923451E0,4.094203711E-1
4.172501146E0,8.399149403E-3,1.442057610E0,4.672981501E-1
4.174883073E0,1.733279079E-1,1.495354056E0,5.166240931E-1
4.177251667E0,3.382566571E-1,1.519482613E0,5.526640415E-1
4.179646875E0,4.996730685E-1,1.519329786E0,5.838172436E-1
4.182028750E0,6.560499668E-1,1.505585790E0,6.026008129E-1
4.184397396E0,8.037222624E-1,1.482220888E0,6.166502833E-1
4.186792552E0,9.440644383E-1,1.452594757E0,6.207735538E-1
4.189174480E0,1.074327588E0,1.427855492E0,6.224533319E-1
4.191543073E0,1.192221165E0,1.411515355E0,6.168029904E-1
4.193938282E0,1.293927193E0,1.404643297E0,6.073349118E-1
4.196320157E0,1.382958174E0,1.413653255E0,5.940489769E-1
4.198688802E0,1.457176089E0,1.439308882E0,5.781669021E-1
4.201083959E0,1.513832211E0,1.480846524E0,5.636593103E-1
4.203465886E0,1.553231835E0,1.533073902E0,5.476245880E-1
4.205834532E0,1.577665806E0,1.581636310E0,5.315898061E-1
4.208229688E0,1.582247138E0,1.625311852E0,5.193728805E-1
4.210611615E0,1.567128658E0,1.656770468E0,5.068505406E-1
4.212993490E0,1.536128163E0,1.667613029E0,4.995203316E-1
4.215375417E0,1.482831717E0,1.657534003E0,4.920374751E-1
4.217757292E0,1.408461094E0,1.624242902E0,4.819584787E-1
4.220139219E0,1.315765023E0,1.561783671E0,4.659237564E-1
4.222521094E0,1.212073684E0,1.465269804E0,4.524851143E-1
4.224903021E0,1.091125965E0,1.336075664E0,4.327852726E-1
4.227284896E0,9.604045749E-1,1.173895717E0,4.156815708E-1
4.229666823E0,8.225058317E-1,9.827005267E-1,3.985778391E-1
4.232048698E0,6.835380793E-1,7.721109390E-1,3.865135908E-1
4.234417344E0,5.444176197E-1,5.529694557E-1,3.768927455E-1
4.236812500E0,4.104893506E-1,3.242071867E-1,3.709369898E-1
4.239194427E0,2.802261710E-1,9.788827598E-2,3.710896969E-1
4.241563021E0,1.624853760E-1,-1.258345395E-1,3.689517379E-1
4.243958230E0,5.818320066E-2,-3.399364948E-1,3.678827584E-1
4.246340105E0,-2.993151546E-2,-5.502206683E-1,3.633013964E-1
4.248708750E0,-9.834641218E-2,-7.568397522E-1,3.513898849E-1
4.251103907E0,-1.420219839E-1,-9.645278454E-1,3.248180151E-1
4.253485834E0,-1.609582454E-1,-1.168550849E0,2.947337925E-1
4.255854480E0,-1.417165697E-1,-1.359135151E0,2.510582209E-1
4.258249636E0,-9.147437662E-2,-1.533837438E0,2.002051920E-1
4.260631563E0,-6.108472589E-4,-1.679219127E0,1.359135211E-1
4.263000157E0,1.359135211E-1,-1.779550791E0,5.314370990E-2
4.265395365E0,3.164188862E-1,-1.814369082E0,-4.917320609E-2
4.267777240E0,5.299099684E-1,-1.764126897E0,-1.736333370E-1
4.270145886E0,7.652388811E-1,-1.621646762E0,-3.093941510E-1
4.272541042E0,1.007592559E0,-1.411362648E0,-4.501944184E-1
4.274922969E0,1.237271070E0,-1.162136912E0,-5.873296261E-1
4.277291563E0,1.442210436E0,-8.973346353E-1,-7.101099491E-1
4.279686771E0,1.606375575E0,-6.361974478E-1,-8.119687438E-1
4.282068646E0,1.721214890E0,-3.982724249E-1,-8.869501948E-1
4.284437292E0,1.776954651E0,-1.992889196E-1,-9.252808690E-1
4.286832448E0,1.783521295E0,-4.642439261E-2,-9.306257963E-1
4.289214375E0,1.744579792E0,7.116370648E-2,-9.126058221E-1
4.291582969E0,1.670056462E0,1.618745178E-1,-8.738170266E-1
4.293978177E0,1.573237062E0,2.283041626E-1,-8.191461563E-1
4.296360052E0,1.456870675E0,2.777827978E-1,-7.595885396E-1
4.298728698E0,1.328134656E0,3.042019308E-1,-6.890357137E-1
4.301123855E0,1.197107911E0,3.122956753E-1,-6.183301210E-1
4.303505782E0,1.066233873E0,2.987042964E-1,-5.415160656E-1
4.305874375E0,9.391776323E-1,2.669402659E-1,-4.621059597E-1
4.308269584E0,8.171609044E-1,2.145601064E-1,-3.778090179E-1
4.310651511E0,7.026270628E-1,1.501157135E-1,-2.909159958E-1
4.313020105E0,5.908420086E-1,7.482878864E-2,-1.979145110E-1
4.315415313E0,4.924955964E-1,-1.679830020E-3,-1.061347127E-1
4.317797188E0,4.054498672E-1,-8.536590636E-2,-9.315420873E-3
4.320165834E0,3.258870244E-1,-1.568350345E-1,8.139539510E-2
4.322560990E0,2.585411072E-1,-2.173089087E-1,1.708845198E-1
4.324942917E0,2.058555335E-1,-2.681619525E-1,2.518217862E-1
4.327324792E0,1.669140160E-1,-3.055763543E-1,3.264978528E-1
4.329706719E0,1.426328421E-1,-3.368822634E-1,3.914003670E-1
4.332088594E0,1.343863904E-1,-3.584146202E-1,4.466820657E-1
4.334457240E0,1.397313178E-1,-3.715478480E-1,4.932591617E-1
4.336852396E0,1.585148573E-1,-3.822376728E-1,5.276193023E-1
4.339234323E0,1.860029846E-1,-3.855973184E-1,5.595360994E-1
4.341602969E0,2.232646793E-1,-3.814741075E-1,5.891621709E-1
4.343998125E0,2.716743052E-1,-3.666610718E-1,6.125270724E-1
4.346380000E0,3.300102353E-1,-3.431434333E-1,6.334486008E-1
4.348748646E0,3.894151151E-1,-3.014531136E-1,6.519267559E-1
4.351143802E0,4.524851143E-1,-2.428117841E-1,6.690304875E-1
4.353525730E0,5.141806602E-1,-1.684411317E-1,6.850652099E-1
4.355894375E0,5.769452453E-1,-7.589777559E-2,7.009472251E-1
4.358289532E0,6.360446811E-1,2.153236605E-2,7.154548764E-1
4.360671459E0,6.951441765E-1,1.226275861E-1,7.288935184E-1
4.363040052E0,7.566870451E-1,2.200577259E-1,7.398887277E-1
4.365435261E0,8.119687438E-1,3.064926267E-1,7.459971905E-1
4.367817136E0,8.649597168E-1,3.855973184E-1,7.519529462E-1
4.370185782E0,9.129112363E-1,4.537068009E-1,7.568397522E-1
4.372580938E0,9.549070001E-1,5.025745630E-1,7.617265582E-1
4.374962865E0,9.906415343E-1,5.343386531E-1,7.692093849E-1
4.377344740E0,1.012937427E0,5.586197972E-1,7.753179073E-1
4.379726667E0,1.031415582E0,5.734328628E-1,7.814263701E-1
4.382108542E0,1.043785214E0,5.868715048E-1,7.899782062E-1
4.384490469E0,1.042716265E0,5.807630420E-1,7.974610925E-1
4.386872344E0,1.026681542E0,5.601469278E-1,7.974610925E-1
4.389254271E0,1.000720501E0,5.357130170E-1,7.936432958E-1
4.391636146E0,9.649859667E-1,5.063923597E-1,7.936432958E-1
4.394018073E0,9.191724062E-1,4.758500159E-1,7.899782062E-1
4.396399948E0,8.672503829E-1,4.378247857E-1,7.837170362E-1
4.398781875E0,8.167027831E-1,3.964398801E-1,7.812736630E-1
4.401163750E0,7.635591030E-1,3.475720882E-1,7.788302302E-1
4.403545677E0,7.069029808E-1,2.951919436E-1,7.800519466E-1
4.405927552E0,6.500942111E-1,2.426590770E-1,7.823426127E-1
4.408309480E0,5.934380889E-1,1.927223057E-1,7.847860456E-1
4.410691407E0,5.402944088E-1,1.536280811E-1,7.835643291E-1
4.413073282E0,4.908157587E-1,1.180462316E-1,7.773031592E-1
4.415455209E0,4.475983381E-1,8.628217876E-2,7.724163532E-1
4.417837084E0,4.167505503E-1,5.833591148E-2,7.699729800E-1
4.420219011E0,3.970507085E-1,3.390202299E-2,7.699729800E-1
4.422600886E0,3.884988427E-1,7.177455351E-3,7.711946368E-1
4.424982813E0,3.923166394E-1,-1.817270555E-2,7.774558663E-1
4.427364688E0,4.123218954E-1,-3.512371704E-2,7.861604095E-1
4.429746615E0,4.459185004E-1,-4.321744293E-2,8.034168482E-1
4.432128490E0,4.920374751E-1,-5.390727147E-2,8.206732869E-1
4.434510417E0,5.529694557E-1,-6.444438547E-2,8.405258060E-1
4.436892292E0,6.236750484E-1,-7.727217674E-2,8.603783846E-1
4.439274219E0,6.995728016E-1,-9.376505762E-2,8.838959932E-1
4.441642865E0,7.841751575E-1,-1.162136942E-1,9.100096822E-1
4.444038021E0,8.699992299E-1,-1.423274130E-1,9.335273504E-1
4.446419896E0,9.558232427E-1,-1.745496094E-1,9.510892034E-1
4.448788542E0,1.037829518E0,-2.043284029E-1,9.623898268E-1
4.451183698E0,1.116170645E0,-2.269297540E-1,9.663603902E-1
4.453565625E0,1.186876178E0,-2.435753495E-1,9.617789984E-1
4.455947552E0,1.247502804E0,-2.469350100E-1,9.460496902E-1
4.458329427E0,1.293316364E0,-2.492256761E-1,9.265025854E-1
4.460711355E0,1.329050899E0,-2.504473627E-1,9.020686746E-1
4.463079948E0,1.353790283E0,-2.602209449E-1,8.703046441E-1
4.465475157E0,1.371046662E0,-2.808370292E-1,8.409839869E-1
4.467857032E0,1.380972981E0,-3.136700690E-1,8.118160367E-1
4.470225677E0,1.386012435E0,-3.501681983E-1,7.861604095E-1
4.472620834E0,1.386165142E0,-3.927747905E-1,7.678350210E-1
4.475002761E0,1.382652760E0,-4.462239146E-1,7.521057129E-1
4.477371355E0,1.377766013E0,-4.996730685E-1,7.362236381E-1
4.479766563E0,1.378071427E0,-5.639647245E-1,7.253811359E-1
4.482148438E0,1.377155185E0,-6.306998134E-1,7.182036638E-1
4.484517084E0,1.376238823E0,-6.962131858E-1,7.122479081E-1
4.486912240E0,1.377613306E0,-7.449282408E-1,7.001836896E-1
4.489294167E0,1.378987670E0,-7.800519466E-1,6.940752268E-1
4.491662813E0,1.382958174E0,-8.055548072E-1,6.917845011E-1
4.494057969E0,1.382958174E0,-8.225058317E-1,6.905628443E-1
4.496439844E0,1.384179831E0,-8.322793841E-1,6.868977547E-1
4.498808490E0,1.384179831E0,-8.359444737E-1,6.807892919E-1
4.501203698E0,1.385401607E0,-8.359444737E-1,6.697940230E-1
4.503585573E0,1.387844920E0,-8.347227573E-1,6.612421870E-1
4.505954219E0,1.389066696E0,-8.383878469E-1,6.549809575E-1
4.508349375E0,1.389066696E0,-8.481613994E-1,6.514685750E-1
4.510731302E0,1.386623263E0,-8.591566682E-1,6.478035450E-1
4.513099896E0,1.379293084E0,-8.689302206E-1,6.404733658E-1
4.515495105E0,1.367992401E0,-8.811471462E-1,6.305471063E-1
4.517876980E0,1.354401112E0,-8.933641315E-1,6.195518374E-1
4.520245625E0,1.334548593E0,-9.045121074E-1,6.035171151E-1
4.522640782E0,1.312252641E0,-9.132166505E-1,5.864133835E-1
4.525022709E0,1.284764528E0,-9.158127308E-1,5.667135715E-1
4.527391302E0,1.247502804E0,-9.136747718E-1,5.470137000E-1
4.529786511E0,1.202758312E0,-9.104678631E-1,5.234960914E-1
4.532168386E0,1.147934675E0,-9.023740888E-1,4.952444136E-1
4.534537032E0,1.089446068E0,-8.846595287E-1,4.631749392E-1
4.536932188E0,1.023321867E0,-8.657232523E-1,4.272876680E-1
4.539314115E0,9.597937465E-1,-8.408312798E-1,3.817795515E-1
4.541682761E0,8.985562921E-1,-8.086090684E-1,3.397837877E-1
4.544077917E0,8.435800672E-1,-7.727217674E-1,3.003841341E-1
4.546459844E0,7.973083854E-1,-7.295043468E-1,2.596100867E-1
4.548828438E0,7.583668828E-1,-6.789567471E-1,2.188360244E-1
4.551223646E0,7.281299233E-1,-6.236750484E-1,1.756185889E-1
4.553605521E0,7.076665759E-1,-5.584670901E-1,1.337755471E-1
4.555974167E0,6.945333481E-1,-4.822639227E-1,9.422318637E-2
4.558369323E0,6.852179170E-1,-3.891097009E-1,4.993676394E-2
4.560751250E0,6.769714952E-1,-2.826695740E-1,6.719320081E-3
4.563119844E0,6.697940230E-1,-1.605001241E-1,-3.161134571E-2
4.565515052E0,6.591041684E-1,-3.451287001E-2,-7.360709459E-2
4.567896927E0,6.420004964E-1,9.743013978E-2,-1.108687744E-1
4.570265573E0,6.187883019E-1,2.279987335E-1,-1.516428292E-1
4.572660730E0,5.880932212E-1,3.599417508E-1,-1.889045089E-1
4.575042657E0,5.462501645E-1,4.880669713E-1,-2.235700935E-1
4.577411250E0,4.982986450E-1,6.100836992E-1,-2.583884001E-1
4.579806459E0,4.404208660E-1,7.284353375E-1,-2.907632887E-1
4.582188334E0,3.776563108E-1,8.420529366E-1,-3.206948042E-1
4.584570261E0,3.075616062E-1,9.567395449E-1,-3.494046330E-1
4.586952188E0,2.298312783E-1,1.067761064E0,-3.805578351E-1
4.589334063E0,1.510319859E-1,1.178782463E0,-4.056025743E-1
4.591702709E0,6.719319522E-2,1.291025639E0,-4.282039404E-1
4.594097865E0,-2.015795931E-2,1.394716978E0,-4.544703662E-1
4.596479792E0,-1.064401343E-1,1.498561025E0,-4.720322192E-1
4.598848386E0,-1.937913001E-1,1.595074892E0,-4.885250926E-1
4.601243594E0,-2.786990702E-1,1.683189631E0,-5.036435723E-1
4.603625469E0,-3.597890437E-1,1.766417503E0,-5.189147592E-1
4.605994115E0,-4.396573007E-1,1.842315316E0,-5.340332389E-1
4.608389271E0,-5.106683373E-1,1.908592224E0,-5.491516590E-1
4.610771198E0,-5.780141950E-1,1.960208893E0,-5.702258945E-1
4.613139792E0,-6.366555691E-1,2.001135588E0,-5.914528370E-1
4.615535000E0,-6.841489077E-1,2.033510447E0,-6.099309921E-1
4.617916875E0,-7.240067124E-1,2.055042982E0,-6.273401380E-1
4.620285521E0,-7.563816309E-1,2.060845852E0,-6.409314871E-1
4.622680677E0,-7.774558663E-1,2.052141428E0,-6.519267559E-1
4.625062605E0,-7.873821259E-1,2.038702726E0,-6.630746722E-1
4.627431250E0,-7.884510756E-1,2.022973299E0,-6.629219651E-1
4.629826407E0,-7.795938253E-1,2.004800797E0,-6.568135023E-1
4.632208282E0,-7.646280527E-1,1.973494768E0,-6.468872428E-1
4.634576927E0,-7.443174124E-1,1.920351028E0,-6.294780970E-1
4.636972136E0,-7.240067124E-1,1.845216870E0,-6.132906675E-1
4.639354011E0,-7.035433054E-1,1.752062678E0,-5.995466113E-1
4.641722657E0,-6.855233312E-1,1.640583038E0,-5.856497884E-1
4.644117813E0,-6.736118197E-1,1.513221383E0,-5.755708218E-1
4.646499740E0,-6.641436815E-1,1.367839694E0,-5.665608048E-1
4.648868334E0,-6.595623493E-1,1.209019423E0,-5.563291311E-1
4.651263542E0,-6.598677635E-1,1.035538793E0,-5.485408306E-1
4.653645417E0,-6.673506498E-1,8.415948153E-1,-5.357130170E-1
4.656014063E0,-6.810947061E-1,6.426113248E-1,-5.218162537E-1
4.658409219E0,-6.972821355E-1,4.364503622E-1,-5.004366040E-1
4.660791146E0,-7.207997441E-1,2.315111160E-1,-4.706578255E-1
4.663159792E0,-7.444701195E-1,3.512371704E-2,-4.358395338E-1
4.665554948E0,-7.692093849E-1,-1.479777545E-1,-3.962871730E-1
4.667936823E0,-7.928797603E-1,-3.151971996E-1,-3.468085229E-1
4.670305469E0,-8.141067028E-1,-4.618005157E-1,-2.938175201E-1
4.672700677E0,-8.316685557E-1,-5.865660906E-1,-2.310529798E-1
4.675082552E0,-8.431219459E-1,-6.832326651E-1,-1.658450365E-1
4.677451198E0,-8.548807502E-1,-7.449282408E-1,-9.468132257E-2
4.679846355E0,-8.542698622E-1,-7.699729800E-1,-2.351761982E-2
4.682228282E0,-8.478559852E-1,-7.404996157E-1,4.993676394E-2
4.684596875E0,-8.344173431E-1,-6.186355352E-1,1.269035190E-1
4.686992084E0,-8.116632700E-1,-3.791834414E-1,2.060082406E-1
4.689373959E0,-7.733326554E-1,-5.238015205E-2,2.838912606E-1
4.691742605E0,-7.224795818E-1,2.951919436E-1,3.663556576E-1
4.694137761E0,-6.642963886E-1,6.186355352E-1,4.479037523E-1
4.696519688E0,-6.044333577E-1,8.690829277E-1,5.221216679E-1
4.698888282E0,-5.503733754E-1,1.027445078E0,5.905365944E-1
4.701283490E0,-5.031854510E-1,1.100746751E0,6.481089592E-1
4.703665365E0,-4.647020400E-1,1.115712523E0,6.946860552E-1
4.706034011E0,-4.370612204E-1,1.096776247E0,7.328640223E-1
4.708429167E0,-4.181249440E-1,1.070204377E0,7.623373866E-1
4.710811094E0,-4.042281806E-1,1.040120125E0,7.832589149E-1
4.713179740E0,-3.978142738E-1,1.008661509E0,7.944068313E-1
4.715574896E0,-3.976615667E-1,9.831586480E-1,7.933378816E-1
4.717956823E0,-3.988832533E-1,9.539906979E-1,7.798992395E-1
4.720325417E0,-4.037700295E-1,9.211576581E-1,7.566870451E-1
4.722720625E0,-4.098785222E-1,8.881719112E-1,7.224795818E-1
4.725102500E0,-4.124746025E-1,8.441908956E-1,6.746807694E-1
4.727471146E0,-4.136963189E-1,7.918107510E-1,6.172611713E-1
4.729866302E0,-4.114056230E-1,7.368345261E-1,5.549547076E-1
4.732248230E0,-4.101839364E-1,6.771242023E-1,4.802786708E-1
4.734616823E0,-4.042281806E-1,6.197045445E-1,4.008685052E-1
4.737012032E0,-3.895678520E-1,5.647283196E-1,3.090887070E-1
4.739393907E0,-3.761292100E-1,5.097520351E-1,2.098260373E-1
4.741762552E0,-3.603998721E-1,4.582881629E-1,1.070509851E-1
