"Time (s)","Acceleration x (m/s^2)","Acceleration y (m/s^2)","Acceleration z (m/s^2)"
0.000000000E0,-5.425725579E-1,7.298108935E-2,9.780662537E0
0.000000000E0,-5.042873621E-1,5.862415582E-2,9.771091461E0
0.000000000E0,-5.192425251E-1,5.383851007E-2,9.771091461E0
8.435070000E-4,-5.288137794E-1,4.426721856E-2,9.775876999E0
3.080266000E-3,-5.377869010E-1,4.965107143E-2,9.756733894E0
5.317024000E-3,-4.947160780E-1,5.802594870E-2,9.771091461E0
7.553782000E-3,-5.330012441E-1,5.862415582E-2,9.766305923E0
9.790540000E-3,-5.377869010E-1,5.862415582E-2,9.771091461E0
1.202729900E-2,-5.330012441E-1,5.383851007E-2,9.756733894E0
1.426405700E-2,-5.138586760E-1,6.340979785E-2,9.761520386E0
1.650081500E-2,-5.288137794E-1,5.383851007E-2,9.775876999E0
1.873757300E-2,-5.288137794E-1,4.426721856E-2,9.756733894E0
2.097433100E-2,-5.479564071E-1,4.486542568E-2,9.771091461E0
2.321109000E-2,-5.288137794E-1,3.948157281E-2,9.747162819E0
2.543671600E-2,-5.288137794E-1,4.426721856E-2,9.756733894E0
2.767330400E-2,-5.192425251E-1,4.426721856E-2,9.761520386E0
2.991031500E-2,-5.383850932E-1,5.383851007E-2,9.771091461E0
3.214788000E-2,-4.995017350E-1,5.383851007E-2,9.761520386E0
3.438451300E-2,-5.288137794E-1,4.905286431E-2,9.775876999E0
3.662108500E-2,-5.473581553E-1,4.965107143E-2,9.756733894E0
3.885997700E-2,-5.330012441E-1,6.819544733E-2,9.766305923E0
4.109404700E-2,-4.995017350E-1,6.340979785E-2,9.756733894E0
4.333098600E-2,-5.240281820E-1,3.469592705E-2,9.766305923E0
4.556731500E-2,-5.234299302E-1,5.862415582E-2,9.761520386E0
4.780437500E-2,-5.240281820E-1,3.948157281E-2,9.771091461E0
5.004338800E-2,-5.383850932E-1,4.905286431E-2,9.766305923E0
5.228057100E-2,-5.288137794E-1,4.905286431E-2,9.780662537E0
5.451574000E-2,-5.138586760E-1,7.298108935E-2,9.785448074E0
5.675304500E-2,-5.330012441E-1,5.862415582E-2,9.761520386E0
5.899175400E-2,-5.479564071E-1,4.007977992E-2,9.761520386E0
6.124065500E-2,-5.282155871E-1,5.383851007E-2,9.766305923E0
6.347643500E-2,-5.144568682E-1,4.426721856E-2,9.771091461E0
6.571367900E-2,-5.335994363E-1,4.905286431E-2,9.799804688E0
6.794707700E-2,-5.521438122E-1,6.400800496E-2,9.770493507E0
7.017266300E-2,-5.282155871E-1,5.383851007E-2,9.761520386E0
7.240899200E-2,-5.192425251E-1,6.340979785E-2,9.790233612E0
7.465691700E-2,-5.090730190E-1,6.340979785E-2,9.771091461E0
7.689611400E-2,-5.234299302E-1,4.905286431E-2,9.761520386E0
7.913378500E-2,-5.473581553E-1,6.400800496E-2,9.766305923E0
8.136773200E-2,-5.425725579E-1,4.965107143E-2,9.751948357E0
8.360534300E-2,-5.042873621E-1,6.340979785E-2,9.766305923E0
8.584362500E-2,-5.234299302E-1,6.819544733E-2,9.785448074E0
8.807842700E-2,-5.186443329E-1,8.255238086E-2,9.756733894E0
9.031493800E-2,-5.138586760E-1,4.905286431E-2,9.761520386E0
9.255120600E-2,-5.240281820E-1,3.948157281E-2,9.756733894E0
9.478832800E-2,-5.377869010E-1,6.340979785E-2,9.771091461E0
9.702538800E-2,-5.330012441E-1,5.862415582E-2,9.771091461E0
9.926196100E-2,-5.234299302E-1,6.819544733E-2,9.780662537E0
1.014993260E-1,-5.282155871E-1,5.383851007E-2,9.766305923E0
1.037375480E-1,-5.138586760E-1,5.383851007E-2,9.761520386E0
1.059694200E-1,-5.527420044E-1,3.529413417E-2,9.771091461E0
1.081939680E-1,-5.330012441E-1,4.905286431E-2,9.751948357E0
1.104331040E-1,-5.330012441E-1,6.340979785E-2,9.780662537E0
1.126826170E-1,-5.377869010E-1,4.965107143E-2,9.761520386E0
1.149224850E-1,-5.377869010E-1,6.340979785E-2,9.775876999E0
1.171593630E-1,-5.042873621E-1,6.759724021E-2,9.780662537E0
1.193936150E-1,-5.144568682E-1,5.862415582E-2,9.795019150E0
1.216318970E-1,-5.192425251E-1,4.905286431E-2,9.795019150E0
1.238667000E-1,-5.330012441E-1,5.383851007E-2,9.751948357E0
1.261033330E-1,-5.096712112E-1,4.426721856E-2,9.766305923E0
1.283397840E-1,-5.569294691E-1,5.922235921E-2,9.770493507E0
1.305766610E-1,-5.569294691E-1,6.400800496E-2,9.770493507E0
1.328137220E-1,-5.335994363E-1,4.905286431E-2,9.766305923E0
1.350502950E-1,-5.473581553E-1,5.443671346E-2,9.756733894E0
1.372879650E-1,-5.473581553E-1,5.922235921E-2,9.742377281E0
1.395261250E-1,-5.473581553E-1,6.400800496E-2,9.780662537E0
1.417608060E-1,-5.138586760E-1,6.340979785E-2,9.771091461E0
1.439975610E-1,-5.186443329E-1,6.340979785E-2,9.742377281E0
1.462338290E-1,-5.234299302E-1,6.340979785E-2,9.742377281E0
1.484709500E-1,-5.234299302E-1,6.340979785E-2,9.780662537E0
1.507078270E-1,-5.240281820E-1,4.905286431E-2,9.780662537E0
1.529448280E-1,-5.575276613E-1,4.965107143E-2,9.761520386E0
1.551819490E-1,-5.240281820E-1,3.469592705E-2,9.766305923E0
1.574201700E-1,-5.527420044E-1,6.400800496E-2,9.789635658E0
1.596547890E-1,-5.192425251E-1,4.426721856E-2,9.780662537E0
1.618919110E-1,-5.425725579E-1,7.357929647E-2,9.766305923E0
1.641281790E-1,-5.330012441E-1,4.905286431E-2,9.747162819E0
1.663653610E-1,-5.144568682E-1,5.383851007E-2,9.771091461E0
1.686023000E-1,-5.186443329E-1,6.340979785E-2,9.771091461E0
1.708388720E-1,-5.330012441E-1,5.862415582E-2,9.761520386E0
1.730762380E-1,-5.377869010E-1,5.922235921E-2,9.756733894E0
1.753144590E-1,-5.330012441E-1,5.922235921E-2,9.747162819E0
1.775493220E-1,-5.282155871E-1,5.862415582E-2,9.751948357E0
1.797859550E-1,-5.330012441E-1,4.905286431E-2,9.761520386E0
1.820224680E-1,-5.377869010E-1,5.862415582E-2,9.775876999E0
1.842595280E-1,-5.335994363E-1,4.905286431E-2,9.775876999E0
1.864933540E-1,-5.431707501E-1,5.443671346E-2,9.771091461E0
1.887209540E-1,-5.234299302E-1,7.298108935E-2,9.761520386E0
1.909690620E-1,-5.192425251E-1,5.862415582E-2,9.775876999E0
1.932029500E-1,-5.042873621E-1,6.340979785E-2,9.771091461E0
1.954466630E-1,-5.234299302E-1,7.298108935E-2,9.737591743E0
1.976801830E-1,-5.383850932E-1,4.426721856E-2,9.766305923E0
1.999179760E-1,-5.330012441E-1,6.819544733E-2,9.771091461E0
2.021538170E-1,-4.995017350E-1,5.383851007E-2,9.751948357E0
2.043906950E-1,-5.240281820E-1,4.426721856E-2,9.761520386E0
2.066247640E-1,-5.479564071E-1,4.486542568E-2,9.747162819E0
2.088538290E-1,-5.282155871E-1,6.819544733E-2,9.756733894E0
2.111030360E-1,-5.240281820E-1,4.426721856E-2,9.761520386E0
2.133377170E-1,-5.234299302E-1,4.905286431E-2,9.751948357E0
2.155745950E-1,-5.186443329E-1,6.819544733E-2,9.771091461E0
2.177963960E-1,-5.138586760E-1,4.905286431E-2,9.737591743E0
2.200334570E-1,-5.335994363E-1,4.905286431E-2,9.771091461E0
2.222729600E-1,-5.425725579E-1,5.922235921E-2,9.771091461E0
2.245246080E-1,-5.335994363E-1,4.905286431E-2,9.761520386E0
2.267617900E-1,-5.090730190E-1,5.383851007E-2,9.761520386E0
2.290003770E-1,-5.479564071E-1,5.922235921E-2,9.784850121E0
2.312321880E-1,-5.288137794E-1,5.383851007E-2,9.775876999E0
2.334688230E-1,-5.288137794E-1,4.905286431E-2,9.766305923E0
2.357050290E-1,-5.473581553E-1,5.922235921E-2,9.751948357E0
2.379421500E-1,-5.425725579E-1,4.965107143E-2,9.756733894E0
2.401791500E-1,-5.335994363E-1,4.905286431E-2,9.771091461E0
2.424156010E-1,-5.335994363E-1,4.905286431E-2,9.771091461E0
2.446533940E-1,-5.330012441E-1,6.879365444E-2,9.737591743E0
2.468913090E-1,-5.425725579E-1,6.879365444E-2,9.761520386E0
2.491260500E-1,-5.330012441E-1,6.340979785E-2,9.775876999E0
2.513628060E-1,-5.234299302E-1,5.862415582E-2,9.771091461E0
2.535993790E-1,-5.288137794E-1,5.383851007E-2,9.766305923E0
2.558365610E-1,-5.192425251E-1,3.469592705E-2,9.761520386E0
2.580735610E-1,-5.335994363E-1,3.469592705E-2,9.761520386E0
2.603100720E-1,-5.240281820E-1,3.948157281E-2,9.785448074E0
2.625475000E-1,-5.282155871E-1,6.340979785E-2,9.761520386E0
2.647858420E-1,-5.377869010E-1,6.340979785E-2,9.771091461E0
2.670202170E-1,-5.144568682E-1,5.383851007E-2,9.780662537E0
2.692568510E-1,-5.282155871E-1,5.383851007E-2,9.761520386E0
2.714934230E-1,-5.527420044E-1,4.965107143E-2,9.760921478E0
2.737310340E-1,-5.383850932E-1,4.905286431E-2,9.784850121E0
2.759676060E-1,-5.186443329E-1,5.862415582E-2,9.761520386E0
2.782041780E-1,-5.138586760E-1,6.340979785E-2,9.747162819E0
2.804416660E-1,-5.186443329E-1,5.862415582E-2,9.756733894E0
2.826771400E-1,-4.995017350E-1,5.383851007E-2,9.751948357E0
2.849033980E-1,-5.048855543E-1,5.383851007E-2,9.771091461E0
2.871513230E-1,-5.240281820E-1,4.905286431E-2,9.775876999E0
2.893838060E-1,-5.335994363E-1,4.426721856E-2,9.761520386E0
2.916132370E-1,-5.240281820E-1,4.905286431E-2,9.775876999E0
2.938618340E-1,-5.186443329E-1,5.383851007E-2,9.761520386E0
2.960984670E-1,-5.670989752E-1,5.922235921E-2,9.775279045E0
2.983394340E-1,-5.479564071E-1,4.965107143E-2,9.761520386E0
3.005742970E-1,-5.431707501E-1,4.965107143E-2,9.775876999E0
3.028061710E-1,-5.377869010E-1,8.315058798E-2,9.751948357E0
3.050337710E-1,-5.330012441E-1,6.819544733E-2,9.761520386E0
3.072819400E-1,-5.282155871E-1,6.819544733E-2,9.756733894E0
3.095160710E-1,-5.282155871E-1,6.340979785E-2,9.751948357E0
3.117441600E-1,-5.330012441E-1,5.862415582E-2,9.766305923E0
3.139777420E-1,-5.330012441E-1,6.340979785E-2,9.766305923E0
3.162181590E-1,-5.138586760E-1,6.340979785E-2,9.785448074E0
3.184715170E-1,-5.288137794E-1,3.948157281E-2,9.780662537E0
3.207061970E-1,-5.330012441E-1,7.298108935E-2,9.747162819E0
3.229429530E-1,-5.186443329E-1,6.819544733E-2,9.790233612E0
3.251759850E-1,-5.090730190E-1,5.862415582E-2,9.761520386E0
3.274132900E-1,-5.431707501E-1,5.443671346E-2,9.766305923E0
3.296499230E-1,-5.096712112E-1,2.512463741E-2,9.766305923E0
3.318870460E-1,-5.138586760E-1,4.905286431E-2,9.756733894E0
3.341244110E-1,-5.288137794E-1,4.426721856E-2,9.780662537E0
3.363629370E-1,-5.479564071E-1,4.965107143E-2,9.770493507E0
3.385974950E-1,-5.377869010E-1,6.819544733E-2,9.761520386E0
3.408343110E-1,-5.335994363E-1,6.340979785E-2,9.785448074E0
3.430705190E-1,-5.335994363E-1,3.948157281E-2,9.766305923E0
3.453076400E-1,-5.383850932E-1,5.383851007E-2,9.771091461E0
3.475444560E-1,-5.282155871E-1,6.819544733E-2,9.761520386E0
3.497812730E-1,-5.282155871E-1,5.862415582E-2,9.771091461E0
3.520186390E-1,-5.431707501E-1,4.486542568E-2,9.771091461E0
3.542569210E-1,-5.090730190E-1,5.383851007E-2,9.756733894E0
3.564887930E-1,-5.330012441E-1,5.862415582E-2,9.771091461E0
3.587165760E-1,-5.383850932E-1,3.469592705E-2,9.766305923E0
3.609646240E-1,-5.192425251E-1,4.905286431E-2,9.761520386E0
3.632019290E-1,-5.234299302E-1,5.383851007E-2,9.751948357E0
3.654417360E-1,-5.282155871E-1,5.862415582E-2,9.751948357E0
3.676755620E-1,-5.282155871E-1,6.819544733E-2,9.761520386E0
3.699126830E-1,-5.383850932E-1,5.383851007E-2,9.780662537E0
3.721512100E-1,-5.234299302E-1,6.340979785E-2,9.747162819E0
3.743860120E-1,-5.335994363E-1,4.905286431E-2,9.761520386E0
3.766196540E-1,-5.240281820E-1,5.383851007E-2,9.771091461E0
3.788476820E-1,-5.479564071E-1,4.905286431E-2,9.789635658E0
3.810991470E-1,-5.425725579E-1,5.922235921E-2,9.761520386E0
3.833330340E-1,-5.377869010E-1,5.862415582E-2,9.766305923E0
3.855726590E-1,-5.240281820E-1,5.383851007E-2,9.795019150E0
3.878064230E-1,-5.335994363E-1,3.948157281E-2,9.780662537E0
3.900451930E-1,-5.234299302E-1,5.862415582E-2,9.751948357E0
3.922801180E-1,-5.240281820E-1,6.819544733E-2,9.795019150E0
3.945169340E-1,-5.377869010E-1,6.400800496E-2,9.756733894E0
3.967534460E-1,-5.042873621E-1,6.340979785E-2,9.761520386E0
3.989869050E-1,-5.186443329E-1,5.383851007E-2,9.761520386E0
4.012139560E-1,-5.144568682E-1,3.948157281E-2,9.790233612E0
4.034650560E-1,-5.144568682E-1,4.426721856E-2,9.790233612E0
4.057013830E-1,-5.383850932E-1,4.426721856E-2,9.771091461E0
4.079433880E-1,-5.234299302E-1,7.298108935E-2,9.766305923E0
4.101741010E-1,-5.000999570E-1,5.802594870E-2,9.795019150E0
4.124112840E-1,-5.282155871E-1,6.340979785E-2,9.766305923E0
4.146476130E-1,-5.234299302E-1,5.383851007E-2,9.756733894E0
4.168845510E-1,-5.240281820E-1,5.383851007E-2,9.780662537E0
4.191213680E-1,-5.288137794E-1,5.383851007E-2,9.771091461E0
4.213581230E-1,-5.335994363E-1,5.383851007E-2,9.771091461E0
4.235955500E-1,-5.186443329E-1,4.905286431E-2,9.761520386E0
4.258337710E-1,-5.138586760E-1,5.862415582E-2,9.761520386E0
4.280684510E-1,-5.138586760E-1,6.819544733E-2,9.761520386E0
4.303054510E-1,-5.425725579E-1,5.922235921E-2,9.771091461E0
4.325415360E-1,-5.377869010E-1,6.819544733E-2,9.775876999E0
4.347789010E-1,-5.383850932E-1,4.486542568E-2,9.761520386E0
4.370155960E-1,-5.240281820E-1,5.383851007E-2,9.785448074E0
4.392485060E-1,-5.335994363E-1,5.383851007E-2,9.771091461E0
4.414747020E-1,-5.186443329E-1,5.383851007E-2,9.742377281E0
4.437280600E-1,-5.234299302E-1,5.862415582E-2,9.761520386E0
4.459627400E-1,-5.282155871E-1,5.383851007E-2,9.761520386E0
4.482033410E-1,-5.473581553E-1,6.400800496E-2,9.780064583E0
4.504360680E-1,-5.288137794E-1,4.426721856E-2,9.775876999E0
4.526731900E-1,-5.575276613E-1,5.443671346E-2,9.780064583E0
4.549099460E-1,-5.569294691E-1,6.879365444E-2,9.741779327E0
4.571464570E-1,-5.479564071E-1,5.922235921E-2,9.784850121E0
4.593838830E-1,-5.377869010E-1,6.819544733E-2,9.766305923E0
4.616224090E-1,-5.665007830E-1,7.357929647E-2,9.770493507E0
4.638572730E-1,-5.425725579E-1,6.400800496E-2,9.761520386E0
4.660938460E-1,-5.335994363E-1,3.948157281E-2,9.790233612E0
4.683300520E-1,-5.240281820E-1,4.426721856E-2,9.771091461E0
4.705671120E-1,-5.335994363E-1,5.862415582E-2,9.775876999E0
4.728039910E-1,-5.138586760E-1,6.340979785E-2,9.766305923E0
4.750408680E-1,-5.234299302E-1,6.819544733E-2,9.771091461E0
4.772784780E-1,-5.473581553E-1,6.400800496E-2,9.732806206E0
4.795136460E-1,-5.192425251E-1,3.948157281E-2,9.780662537E0
4.817391110E-1,-5.282155871E-1,6.340979785E-2,9.775876999E0
4.839880740E-1,-5.288137794E-1,3.948157281E-2,9.780662537E0
4.862243410E-1,-5.425725579E-1,5.922235921E-2,9.775876999E0
4.884645140E-1,-5.431707501E-1,4.965107143E-2,9.761520386E0
4.906982790E-1,-5.240281820E-1,3.469592705E-2,9.756733894E0
4.929350960E-1,-5.240281820E-1,6.340979785E-2,9.795019150E0
4.951725230E-1,-5.192425251E-1,4.905286431E-2,9.761520386E0
4.974109260E-1,-5.665007830E-1,5.922235921E-2,9.765707016E0
4.996453620E-1,-5.330012441E-1,7.298108935E-2,9.756733894E0
5.018824240E-1,-5.240281820E-1,5.383851007E-2,9.795019150E0
5.041186300E-1,-5.234299302E-1,6.340979785E-2,9.780662537E0
5.063558130E-1,-5.479564071E-1,4.965107143E-2,9.761520386E0
5.085925070E-1,-5.383850932E-1,5.383851007E-2,9.785448074E0
5.108291400E-1,-5.288137794E-1,4.905286431E-2,9.780662537E0
5.130667510E-1,-5.383850932E-1,4.905286431E-2,9.771091461E0
5.153050320E-1,-5.473581553E-1,5.922235921E-2,9.780662537E0
5.175372110E-1,-5.377869010E-1,5.383851007E-2,9.771091461E0
5.197627350E-1,-5.335994363E-1,3.948157281E-2,9.766305923E0
5.220009570E-1,-5.431707501E-1,5.862415582E-2,9.785448074E0
5.242497970E-1,-5.623133183E-1,4.486542568E-2,9.765707016E0
5.264886880E-1,-5.473581553E-1,5.443671346E-2,9.756733894E0
5.287230020E-1,-5.527420044E-1,5.443671346E-2,9.784850121E0
5.309611000E-1,-5.617151260E-1,5.922235921E-2,9.751350403E0
5.331993210E-1,-5.431707501E-1,4.486542568E-2,9.775876999E0
5.354350400E-1,-5.527420044E-1,5.922235921E-2,9.780064583E0
5.376706350E-1,-5.527420044E-1,4.965107143E-2,9.761520386E0
5.399067800E-1,-5.377869010E-1,5.383851007E-2,9.761520386E0
5.421443300E-1,-5.186443329E-1,6.340979785E-2,9.756733894E0
5.443811460E-1,-5.425725579E-1,7.836493850E-2,9.756733894E0
5.466147880E-1,-5.335994363E-1,5.383851007E-2,9.771091461E0
5.488431210E-1,-5.234299302E-1,5.383851007E-2,9.771091461E0
5.510936100E-1,-5.096712112E-1,4.426721856E-2,9.785448074E0
5.533284740E-1,-5.383850932E-1,4.905286431E-2,9.771091461E0
5.555680370E-1,-5.192425251E-1,4.905286431E-2,9.775876999E0
5.578012520E-1,-5.240281820E-1,4.426721856E-2,9.799804688E0
5.600383740E-1,-4.947160780E-1,5.324030295E-2,9.766305923E0
5.622754350E-1,-5.335994363E-1,3.948157281E-2,9.775876999E0
5.645090170E-1,-5.186443329E-1,6.340979785E-2,9.756733894E0
5.667346030E-1,-5.431707501E-1,4.905286431E-2,9.775279045E0
5.689763020E-1,-5.234299302E-1,5.862415582E-2,9.761520386E0
5.712222740E-1,-5.234299302E-1,5.862415582E-2,9.766305923E0
5.734623260E-1,-5.527420044E-1,5.922235921E-2,9.780064583E0
5.756984100E-1,-5.479564071E-1,5.443671346E-2,9.770493507E0
5.779327240E-1,-5.431707501E-1,5.383851007E-2,9.770493507E0
5.801694790E-1,-5.138586760E-1,6.340979785E-2,9.775876999E0
5.824063580E-1,-5.330012441E-1,6.819544733E-2,9.771091461E0
5.846439060E-1,-5.240281820E-1,4.905286431E-2,9.775876999E0
5.868818830E-1,-5.138586760E-1,6.340979785E-2,9.785448074E0
5.891165630E-1,-5.431707501E-1,4.905286431E-2,9.780662537E0
5.913535620E-1,-5.330012441E-1,5.383851007E-2,9.756733894E0
5.935898920E-1,-5.431707501E-1,4.007977992E-2,9.771091461E0
5.958270130E-1,-5.377869010E-1,5.862415582E-2,9.761520386E0
5.980638290E-1,-5.335994363E-1,5.383851007E-2,9.785448074E0
6.003008290E-1,-5.288137794E-1,5.383851007E-2,9.790233612E0
6.025379510E-1,-5.623133183E-1,4.486542568E-2,9.756135941E0
6.047761720E-1,-5.377869010E-1,5.922235921E-2,9.751948357E0
6.070107300E-1,-5.425725579E-1,6.340979785E-2,9.775279045E0
6.092476680E-1,-5.473581553E-1,6.400800496E-2,9.775279045E0
6.114842410E-1,-5.473581553E-1,5.443671346E-2,9.756733894E0
6.137216070E-1,-5.282155871E-1,5.862415582E-2,9.751948357E0
6.159583020E-1,-5.330012441E-1,7.298108935E-2,9.771091461E0
6.181946300E-1,-5.282155871E-1,6.340979785E-2,9.761520386E0
6.204321780E-1,-5.335994363E-1,5.383851007E-2,9.785448074E0
6.226674090E-1,-5.431707501E-1,4.007977992E-2,9.756733894E0
6.248931780E-1,-5.144568682E-1,5.383851007E-2,9.771091461E0
6.271389660E-1,-5.144568682E-1,4.426721856E-2,9.775876999E0
6.293618670E-1,-5.335994363E-1,3.469592705E-2,9.775876999E0
6.316000270E-1,-5.431707501E-1,4.905286431E-2,9.784850121E0
6.338523470E-1,-5.431707501E-1,4.965107143E-2,9.766305923E0
6.360919100E-1,-5.234299302E-1,6.340979785E-2,9.761520386E0
6.383311670E-1,-5.234299302E-1,6.340979785E-2,9.780662537E0
6.405647490E-1,-5.288137794E-1,5.383851007E-2,9.771091461E0
6.427963780E-1,-5.479564071E-1,5.922235921E-2,9.775279045E0
6.450209870E-1,-5.282155871E-1,5.862415582E-2,9.761520386E0
6.472605510E-1,-5.234299302E-1,5.862415582E-2,9.751948357E0
6.495068270E-1,-5.186443329E-1,6.819544733E-2,9.771091461E0
6.517374810E-1,-5.569294691E-1,5.922235921E-2,9.765707016E0
6.539862600E-1,-5.042873621E-1,5.862415582E-2,9.751948357E0
6.562207570E-1,-5.288137794E-1,4.426721856E-2,9.766305923E0
6.584618460E-1,-5.282155871E-1,5.862415582E-2,9.775876999E0
6.606937180E-1,-5.383850932E-1,4.426721856E-2,9.775876999E0
6.629304140E-1,-5.473581553E-1,5.922235921E-2,9.756733894E0
6.651665590E-1,-5.288137794E-1,4.426721856E-2,9.780662537E0
6.674038630E-1,-5.431707501E-1,5.383851007E-2,9.780662537E0
6.696409850E-1,-5.479564071E-1,4.486542568E-2,9.780662537E0
6.718787790E-1,-5.617151260E-1,5.443671346E-2,9.760921478E0
6.741148620E-1,-5.425725579E-1,5.922235921E-2,9.747162819E0
6.763532050E-1,-5.383850932E-1,4.426721856E-2,9.790233612E0
6.785879460E-1,-5.479564071E-1,4.486542568E-2,9.775279045E0
6.808247630E-1,-5.670989752E-1,6.400800496E-2,9.784850121E0
6.830608480E-1,-5.234299302E-1,5.383851007E-2,9.766305923E0
6.852980910E-1,-5.377869010E-1,7.298108935E-2,9.775876999E0
6.875319170E-1,-5.383850932E-1,4.905286431E-2,9.761520386E0
6.897565870E-1,-5.473581553E-1,5.922235921E-2,9.770493507E0
6.919938330E-1,-5.192425251E-1,4.426721856E-2,9.790233612E0
6.942319910E-1,-5.096712112E-1,4.426721856E-2,9.785448074E0
6.964737520E-1,-5.186443329E-1,4.905286431E-2,9.756733894E0
6.987236300E-1,-5.138586760E-1,5.383851007E-2,9.766305923E0
7.009584920E-1,-4.995017350E-1,6.759724021E-2,9.780662537E0
7.031954320E-1,-5.138586760E-1,6.819544733E-2,9.771091461E0
7.054288310E-1,-5.192425251E-1,5.383851007E-2,9.775876999E0
7.076657690E-1,-5.479564071E-1,4.486542568E-2,9.780064583E0
7.099032570E-1,-5.527420044E-1,4.486542568E-2,9.765707016E0
7.121419050E-1,-5.330012441E-1,5.862415582E-2,9.751948357E0
7.143764020E-1,-5.240281820E-1,3.948157281E-2,9.766305923E0
7.166118150E-1,-5.479564071E-1,5.443671346E-2,9.780064583E0
7.188400870E-1,-5.335994363E-1,4.905286431E-2,9.780662537E0
7.210750720E-1,-5.521438122E-1,5.443671346E-2,9.760921478E0
7.233234860E-1,-5.383850932E-1,4.007977992E-2,9.761520386E0
7.255617670E-1,-5.144568682E-1,3.948157281E-2,9.780662537E0
7.277977290E-1,-5.575276613E-1,4.007977992E-2,9.784850121E0
7.300242310E-1,-5.377869010E-1,7.776673883E-2,9.756733894E0
7.322676390E-1,-5.234299302E-1,6.340979785E-2,9.737591743E0
7.344954230E-1,-5.330012441E-1,6.819544733E-2,9.771091461E0
7.367465820E-1,-5.240281820E-1,3.948157281E-2,9.761520386E0
7.389808360E-1,-5.330012441E-1,6.819544733E-2,9.771091461E0
7.412208260E-1,-5.330012441E-1,5.862415582E-2,9.761520386E0
7.434544080E-1,-5.479564071E-1,4.965107143E-2,9.765707016E0
7.456918350E-1,-5.575276613E-1,4.965107143E-2,9.775279045E0
7.479302380E-1,-5.521438122E-1,5.922235921E-2,9.756135941E0
7.501649190E-1,-5.575276613E-1,5.443671346E-2,9.765707016E0
7.524017360E-1,-5.527420044E-1,5.443671346E-2,9.784850121E0
7.546379420E-1,-5.527420044E-1,5.443671346E-2,9.770493507E0
7.568750030E-1,-5.431707501E-1,5.383851007E-2,9.775876999E0
7.591116970E-1,-5.425725579E-1,5.922235921E-2,9.771091461E0
7.613489410E-1,-5.330012441E-1,5.383851007E-2,9.761520386E0
7.635860630E-1,-5.282155871E-1,6.819544733E-2,9.761520386E0
7.658244050E-1,-5.138586760E-1,4.905286431E-2,9.756733894E0
7.680591470E-1,-5.192425251E-1,4.905286431E-2,9.761520386E0
7.702959630E-1,-5.288137794E-1,3.469592705E-2,9.780662537E0
7.725291180E-1,-5.383850932E-1,4.905286431E-2,9.775876999E0
7.747576950E-1,-5.234299302E-1,6.819544733E-2,9.775876999E0
7.770064130E-1,-5.240281820E-1,3.948157281E-2,9.771091461E0
7.792430470E-1,-5.575276613E-1,4.965107143E-2,9.756135941E0
7.814832810E-1,-5.425725579E-1,5.922235921E-2,9.761520386E0
7.837186340E-1,-5.479564071E-1,4.007977992E-2,9.766305923E0
7.859537410E-1,-5.240281820E-1,3.948157281E-2,9.785448074E0
7.881902520E-1,-5.431707501E-1,4.486542568E-2,9.766305923E0
7.904263970E-1,-5.282155871E-1,5.383851007E-2,9.766305923E0
7.926638860E-1,-5.144568682E-1,4.426721856E-2,9.780662537E0
7.949007020E-1,-5.138586760E-1,5.862415582E-2,9.756733894E0
7.971372750E-1,-5.186443329E-1,7.298108935E-2,9.790233612E0
7.993743350E-1,-5.479564071E-1,4.007977992E-2,9.756733894E0
8.016128610E-1,-5.377869010E-1,6.340979785E-2,9.761520386E0
8.038477250E-1,-5.144568682E-1,4.905286431E-2,9.785448074E0
8.060843580E-1,-5.431707501E-1,4.905286431E-2,9.784850121E0
8.083206260E-1,-5.473581553E-1,6.879365444E-2,9.770493507E0
8.105533520E-1,-5.473581553E-1,6.879365444E-2,9.765707016E0
8.127764370E-1,-5.473581553E-1,6.400800496E-2,9.770493507E0
8.150313810E-1,-5.473581553E-1,5.922235921E-2,9.770493507E0
8.172689290E-1,-5.431707501E-1,5.383851007E-2,9.789635658E0
8.195117280E-1,-5.377869010E-1,6.340979785E-2,9.761520386E0
8.217418310E-1,-5.575276613E-1,5.443671346E-2,9.780064583E0
8.239785860E-1,-5.377869010E-1,5.862415582E-2,9.771091461E0
8.262148540E-1,-5.473581553E-1,5.443671346E-2,9.766305923E0
8.284519750E-1,-5.521438122E-1,5.443671346E-2,9.765707016E0
8.306888520E-1,-5.186443329E-1,7.298108935E-2,9.771091461E0
8.329259140E-1,-5.192425251E-1,4.426721856E-2,9.775876999E0
8.351632790E-1,-5.240281820E-1,3.469592705E-2,9.761520386E0
8.374015000E-1,-5.090730190E-1,6.819544733E-2,9.775876999E0
8.396360580E-1,-5.096712112E-1,4.905286431E-2,9.775876999E0
8.418728750E-1,-5.144568682E-1,5.383851007E-2,9.785448074E0
8.441091430E-1,-5.186443329E-1,6.340979785E-2,9.766305923E0
8.463463250E-1,-5.282155871E-1,5.383851007E-2,9.761520386E0
8.485833250E-1,-5.234299302E-1,6.340979785E-2,9.761520386E0
8.508199580E-1,-5.521438122E-1,6.400800496E-2,9.756135941E0
8.530575680E-1,-5.718846321E-1,4.965107143E-2,9.784850121E0
8.552926760E-1,-5.814558864E-1,4.067798331E-2,9.760921478E0
8.575182010E-1,-5.473581553E-1,6.879365444E-2,9.747162819E0
8.597671640E-1,-4.947160780E-1,6.281159073E-2,9.761520386E0
8.620034320E-1,-4.713860750E-1,4.845465720E-2,9.786046028E0
8.642436050E-1,-4.851447940E-1,6.759724021E-2,9.785448074E0
8.664788350E-1,-4.899304509E-1,7.238288224E-2,9.790233612E0
8.687200450E-1,-4.953143001E-1,3.409772366E-2,9.761520386E0
8.709516120E-1,-5.479564071E-1,4.486542568E-2,9.756733894E0
8.731900780E-1,-5.330012441E-1,6.340979785E-2,9.751948357E0
8.754232320E-1,-5.575276613E-1,5.922235921E-2,9.780064583E0
8.776614530E-1,-5.335994363E-1,4.905286431E-2,9.756733894E0
8.798975980E-1,-5.718846321E-1,3.529413417E-2,9.789635658E0
8.821353310E-1,-5.617151260E-1,6.879365444E-2,9.775279045E0
8.843716590E-1,-5.952146053E-1,6.460621208E-2,9.770493507E0
8.866055450E-1,-5.712863803E-1,6.879365444E-2,9.765707016E0
8.888337560E-1,-5.670989752E-1,4.965107143E-2,9.765707016E0
8.910841220E-1,-5.718846321E-1,5.922235921E-2,9.770493507E0
8.933189250E-1,-5.335994363E-1,5.383851007E-2,9.785448074E0
8.955585500E-1,-5.527420044E-1,4.486542568E-2,9.770493507E0
8.977884080E-1,-5.330012441E-1,5.383851007E-2,9.751948357E0
9.000123460E-1,-5.282155871E-1,6.819544733E-2,9.751948357E0
9.022574640E-1,-4.953143001E-1,5.324030295E-2,9.771091461E0
9.045027030E-1,-5.186443329E-1,6.340979785E-2,9.761520386E0
9.067435470E-1,-5.090730190E-1,6.340979785E-2,9.761520386E0
9.089805470E-1,-5.282155871E-1,5.862415582E-2,9.771091461E0
9.112132740E-1,-5.234299302E-1,5.383851007E-2,9.766305923E0
9.134501530E-1,-5.330012441E-1,7.298108935E-2,9.766305923E0
9.156863590E-1,-5.431707501E-1,4.007977992E-2,9.766305923E0
9.179234200E-1,-5.479564071E-1,5.922235921E-2,9.780064583E0
9.201601750E-1,-5.234299302E-1,7.298108935E-2,9.775876999E0
9.223968090E-1,-5.383850932E-1,5.383851007E-2,9.775876999E0
9.246344800E-1,-5.527420044E-1,3.529413417E-2,9.775279045E0
9.268728830E-1,-5.042873621E-1,6.340979785E-2,9.742377281E0
9.291073190E-1,-5.335994363E-1,4.426721856E-2,9.771091461E0
9.313440140E-1,-5.144568682E-1,5.383851007E-2,9.775876999E0
9.335800380E-1,-5.521438122E-1,6.879365444E-2,9.770493507E0
9.358175250E-1,-5.425725579E-1,6.819544733E-2,9.784850121E0
9.380544640E-1,-5.335994363E-1,5.383851007E-2,9.790233612E0
9.402909140E-1,-5.473581553E-1,5.922235921E-2,9.765707016E0
9.425285250E-1,-5.617151260E-1,6.400800496E-2,9.770493507E0
9.447669280E-1,-5.665007830E-1,5.922235921E-2,9.760921478E0
9.470016090E-1,-5.670989752E-1,5.443671346E-2,9.780064583E0
9.492381810E-1,-5.431707501E-1,5.862415582E-2,9.784850121E0
9.514746920E-1,-5.473581553E-1,6.400800496E-2,9.770493507E0
9.537120590E-1,-5.288137794E-1,6.340979785E-2,9.785448074E0
9.559488750E-1,-5.234299302E-1,5.862415582E-2,9.761520386E0
9.581853860E-1,-5.234299302E-1,5.862415582E-2,9.756733894E0
9.604227520E-1,-5.192425251E-1,5.383851007E-2,9.775876999E0
9.626581650E-1,-5.234299302E-1,7.776673883E-2,9.780662537E0
9.648836910E-1,-5.186443329E-1,6.819544733E-2,9.761520386E0
9.671326530E-1,-5.240281820E-1,4.905286431E-2,9.761520386E0
9.693663560E-1,-5.282155871E-1,5.862415582E-2,9.766305923E0
9.715998770E-1,-5.521438122E-1,5.922235921E-2,9.760921478E0
9.738431030E-1,-5.288137794E-1,4.905286431E-2,9.775876999E0
9.760797370E-1,-5.431707501E-1,4.426721856E-2,9.775279045E0
9.783168580E-1,-5.569294691E-1,6.400800496E-2,9.760921478E0
9.805452520E-1,-5.527420044E-1,5.922235921E-2,9.775279045E0
9.827871350E-1,-5.527420044E-1,4.486542568E-2,9.794421196E0
9.850147350E-1,-5.425725579E-1,5.922235921E-2,9.766305923E0
9.872655280E-1,-5.335994363E-1,4.426721856E-2,9.775876999E0
9.894973400E-1,-5.431707501E-1,3.050848842E-2,9.775876999E0
9.917282370E-1,-5.186443329E-1,5.862415582E-2,9.761520386E0
9.939740260E-1,-5.096712112E-1,4.426721856E-2,9.775876999E0
9.962113300E-1,-5.335994363E-1,3.948157281E-2,9.790233612E0
9.984525420E-1,-5.282155871E-1,5.862415582E-2,9.766305923E0
1.000684170E0,-5.048855543E-1,4.905286431E-2,9.766305923E0
1.002920987E0,-5.090730190E-1,7.298108935E-2,9.775876999E0
1.005157316E0,-5.473581553E-1,6.879365444E-2,9.775279045E0
1.007394620E0,-5.569294691E-1,5.922235921E-2,9.760921478E0
1.009628262E0,-5.479564071E-1,3.529413417E-2,9.766305923E0
1.011856352E0,-5.521438122E-1,6.879365444E-2,9.770493507E0
1.014105619E0,-5.425725579E-1,8.255238086E-2,9.770493507E0
1.016340971E0,-5.623133183E-1,4.965107143E-2,9.770493507E0
1.018566801E0,-5.383850932E-1,4.905286431E-2,9.775876999E0
1.020800748E0,-5.240281820E-1,3.469592705E-2,9.780662537E0
1.023040374E0,-5.186443329E-1,6.340979785E-2,9.771091461E0
1.025291900E0,-5.473581553E-1,6.879365444E-2,9.780064583E0
1.027528655E0,-5.521438122E-1,5.443671346E-2,9.742377281E0
1.029765167E0,-5.330012441E-1,5.383851007E-2,9.756733894E0
1.031999908E0,-5.383850932E-1,5.383851007E-2,9.780064583E0
1.034238190E0,-5.527420044E-1,4.486542568E-2,9.789635658E0
1.036475800E0,-5.623133183E-1,4.965107143E-2,9.775279045E0
1.038720551E0,-5.425725579E-1,5.922235921E-2,9.756135941E0
1.040945832E0,-5.670989752E-1,4.486542568E-2,9.789635658E0
1.043182954E0,-5.431707501E-1,4.426721856E-2,9.770493507E0
1.045417329E0,-5.527420044E-1,4.965107143E-2,9.794421196E0
1.047656831E0,-5.377869010E-1,6.819544733E-2,9.756733894E0
1.049894013E0,-5.383850932E-1,4.426721856E-2,9.790233612E0
1.052132418E0,-5.192425251E-1,4.905286431E-2,9.775876999E0
1.054367037E0,-5.000999570E-1,4.366901144E-2,9.775876999E0
1.056600923E0,-5.000999570E-1,4.366901144E-2,9.771091461E0
1.058828158E0,-4.995017350E-1,6.759724021E-2,9.780662537E0
1.061077303E0,-4.905286431E-1,4.366901144E-2,9.761520386E0
1.063314304E0,-4.995017350E-1,4.426721856E-2,9.751948357E0
1.065553073E0,-5.288137794E-1,4.426721856E-2,9.780662537E0
1.067785129E0,-5.383850932E-1,4.905286431E-2,9.803992271E0
1.070026706E0,-5.431707501E-1,6.340979785E-2,9.780064583E0
1.072261448E0,-5.575276613E-1,4.965107143E-2,9.756135941E0
1.074499241E0,-5.521438122E-1,7.357929647E-2,9.780064583E0
1.076734410E0,-5.479564071E-1,5.922235921E-2,9.780064583E0
1.078971592E0,-5.760720372E-1,7.357929647E-2,9.775279045E0
1.081208531E0,-5.623133183E-1,4.965107143E-2,9.784850121E0
1.083445165E0,-5.521438122E-1,6.400800496E-2,9.775279045E0
1.085682530E0,-5.234299302E-1,6.819544733E-2,9.771091461E0
1.087920751E0,-5.479564071E-1,4.007977992E-2,9.770493507E0
1.090152745E0,-5.383850932E-1,5.383851007E-2,9.775279045E0
1.092378089E0,-5.096712112E-1,4.905286431E-2,9.785448074E0
1.094615088E0,-5.240281820E-1,4.905286431E-2,9.780662537E0
1.096851172E0,-5.377869010E-1,5.922235921E-2,9.747162819E0
1.099093909E0,-5.479564071E-1,5.383851007E-2,9.789635658E0
1.101342444E0,-5.186443329E-1,4.905286431E-2,9.747162819E0
1.103577247E0,-5.383850932E-1,4.905286431E-2,9.761520386E0
1.105807045E0,-5.473581553E-1,5.922235921E-2,9.765707016E0
1.108049903E0,-5.425725579E-1,5.862415582E-2,9.770493507E0
1.110286720E0,-5.383850932E-1,4.486542568E-2,9.756733894E0
1.112525795E0,-5.335994363E-1,4.426721856E-2,9.790233612E0
1.114760109E0,-5.521438122E-1,6.879365444E-2,9.780064583E0
1.116996865E0,-5.623133183E-1,5.443671346E-2,9.765707016E0
1.119233437E0,-5.431707501E-1,5.443671346E-2,9.771091461E0
1.121461037E0,-5.431707501E-1,4.486542568E-2,9.761520386E0
1.123697550E0,-5.288137794E-1,3.469592705E-2,9.761520386E0
1.125931925E0,-5.383850932E-1,4.426721856E-2,9.780662537E0
1.128168741E0,-5.186443329E-1,6.819544733E-2,9.756733894E0
1.130405313E0,-5.192425251E-1,5.383851007E-2,9.775876999E0
1.132642985E0,-4.899304509E-1,5.324030295E-2,9.761520386E0
1.134879801E0,-5.282155871E-1,6.340979785E-2,9.780662537E0
1.137116557E0,-5.090730190E-1,6.340979785E-2,9.747162819E0
1.139353984E0,-5.479564071E-1,4.965107143E-2,9.766305923E0
1.141594950E0,-5.234299302E-1,6.340979785E-2,9.761520386E0
1.143829082E0,-5.377869010E-1,6.819544733E-2,9.784850121E0
1.146063091E0,-5.330012441E-1,6.340979785E-2,9.780662537E0
1.148298808E0,-5.479564071E-1,4.007977992E-2,9.775279045E0
1.150536358E0,-5.377869010E-1,4.965107143E-2,9.751948357E0
1.152774029E0,-5.192425251E-1,4.905286431E-2,9.785448074E0
1.155011151E0,-5.186443329E-1,6.340979785E-2,9.780662537E0
1.157247723E0,-5.527420044E-1,5.922235921E-2,9.784850121E0
1.159486188E0,-5.330012441E-1,6.340979785E-2,9.771091461E0
1.161720686E0,-5.186443329E-1,5.383851007E-2,9.766305923E0
1.163960615E0,-5.138586760E-1,5.862415582E-2,9.761520386E0
1.166208600E0,-5.144568682E-1,4.426721856E-2,9.771091461E0
1.168445967E0,-5.479564071E-1,5.383851007E-2,9.789635658E0
1.170682783E0,-5.186443329E-1,4.905286431E-2,9.747162819E0
1.172916671E0,-5.431707501E-1,5.443671346E-2,9.771091461E0
1.175154036E0,-5.288137794E-1,5.383851007E-2,9.790233612E0
1.177392440E0,-5.425725579E-1,6.819544733E-2,9.780064583E0
1.179626815E0,-5.623133183E-1,5.443671346E-2,9.775279045E0
1.181863632E0,-5.425725579E-1,5.922235921E-2,9.766305923E0
1.184099838E0,-5.527420044E-1,5.922235921E-2,9.780064583E0
1.186336472E0,-5.288137794E-1,5.383851007E-2,9.766305923E0
1.188571640E0,-5.335994363E-1,5.862415582E-2,9.775876999E0
1.190810654E0,-5.335994363E-1,5.862415582E-2,9.790233612E0
1.193048020E0,-5.240281820E-1,3.948157281E-2,9.790233612E0
1.195286911E0,-5.335994363E-1,5.383851007E-2,9.766305923E0
1.197521409E0,-5.425725579E-1,6.340979785E-2,9.770493507E0
1.199757981E0,-5.234299302E-1,7.298108935E-2,9.756733894E0
1.201994250E0,-5.192425251E-1,5.383851007E-2,9.771091461E0
1.204231249E0,-5.048855543E-1,5.383851007E-2,9.771091461E0
1.206464525E0,-5.335994363E-1,5.862415582E-2,9.780662537E0
1.208690538E0,-5.234299302E-1,7.776673883E-2,9.761520386E0
1.210942369E0,-5.192425251E-1,4.426721856E-2,9.756733894E0
1.213177783E0,-5.234299302E-1,5.862415582E-2,9.771091461E0
1.215403919E0,-5.335994363E-1,2.991028316E-2,9.766305923E0
1.217637622E0,-5.527420044E-1,5.443671346E-2,9.789635658E0
1.219873828E0,-5.623133183E-1,4.965107143E-2,9.760921478E0
1.222116993E0,-5.527420044E-1,4.486542568E-2,9.765707016E0
1.224365590E0,-5.048855543E-1,5.324030295E-2,9.775876999E0
1.226599293E0,-5.431707501E-1,5.383851007E-2,9.780064583E0
1.228828053E0,-5.760720372E-1,5.922235921E-2,9.765707016E0
1.231071888E0,-5.431707501E-1,4.007977992E-2,9.756733894E0
1.233297902E0,-5.234299302E-1,7.298108935E-2,9.756733894E0
1.235548879E0,-5.330012441E-1,7.298108935E-2,9.785448074E0
1.237782583E0,-5.234299302E-1,6.819544733E-2,9.785448074E0
1.240022817E0,-5.383850932E-1,5.383851007E-2,9.766305923E0
1.242256765E0,-5.138586760E-1,6.340979785E-2,9.756733894E0
1.244493338E0,-5.096712112E-1,5.862415582E-2,9.780662537E0
1.246730886E0,-5.377869010E-1,6.819544733E-2,9.784850121E0
1.248969107E0,-5.425725579E-1,5.443671346E-2,9.761520386E0
1.251203848E0,-5.377869010E-1,6.340979785E-2,9.775876999E0
1.253440849E0,-5.330012441E-1,6.819544733E-2,9.771091461E0
1.255677116E0,-5.575276613E-1,5.443671346E-2,9.760921478E0
1.257914237E0,-5.431707501E-1,3.469592705E-2,9.775876999E0
1.260150932E0,-5.575276613E-1,5.443671346E-2,9.775279045E0
1.262387566E0,-5.473581553E-1,5.922235921E-2,9.756135941E0
1.264625175E0,-5.712863803E-1,6.879365444E-2,9.756135941E0
1.266863396E0,-5.383850932E-1,4.426721856E-2,9.766305923E0
1.269098137E0,-5.335994363E-1,5.383851007E-2,9.775876999E0
1.271335015E0,-4.995017350E-1,6.759724021E-2,9.775876999E0
1.273570917E0,-5.282155871E-1,5.862415582E-2,9.771091461E0
1.275808526E0,-5.192425251E-1,4.905286431E-2,9.780662537E0
1.278045221E0,-5.192425251E-1,3.948157281E-2,9.790233612E0
1.280281976E0,-5.425725579E-1,8.315058798E-2,9.756733894E0
1.282519465E0,-5.042873621E-1,5.862415582E-2,9.771091461E0
1.284757746E0,-5.192425251E-1,5.862415582E-2,9.790233612E0
1.286992548E0,-5.144568682E-1,5.383851007E-2,9.775876999E0
1.289228876E0,-5.282155871E-1,5.383851007E-2,9.756733894E0
1.291465449E0,-5.090730190E-1,5.862415582E-2,9.766305923E0
1.293702693E0,-5.090730190E-1,4.905286431E-2,9.747162819E0
1.295939388E0,-5.138586760E-1,7.298108935E-2,9.785448074E0
1.298176204E0,-5.479564071E-1,5.443671346E-2,9.775279045E0
1.300413692E0,-5.330012441E-1,6.340979785E-2,9.761520386E0
1.302648861E0,-5.335994363E-1,5.383851007E-2,9.775876999E0
1.304874936E0,-5.240281820E-1,4.426721856E-2,9.771091461E0
1.307123349E0,-5.335994363E-1,3.948157281E-2,9.785448074E0
1.309356503E0,-5.383850932E-1,5.383851007E-2,9.771091461E0
1.311584835E0,-5.521438122E-1,5.922235921E-2,9.760921478E0
1.313821897E0,-5.288137794E-1,5.383851007E-2,9.771091461E0
1.316070554E0,-5.431707501E-1,5.383851007E-2,9.780064583E0
1.318311094E0,-5.377869010E-1,6.340979785E-2,9.761520386E0
1.320549253E0,-5.766702294E-1,5.443671346E-2,9.775279045E0
1.322777891E0,-5.521438122E-1,5.922235921E-2,9.756135941E0
1.325002501E0,-5.521438122E-1,6.400800496E-2,9.765707016E0
1.327236265E0,-5.527420044E-1,6.400800496E-2,9.784850121E0
1.329476927E0,-5.479564071E-1,5.443671346E-2,9.760921478E0
1.331715698E0,-5.090730190E-1,5.862415582E-2,9.761520386E0
1.333964782E0,-5.383850932E-1,5.383851007E-2,9.766305923E0
1.336205078E0,-5.186443329E-1,5.862415582E-2,9.771091461E0
1.338443237E0,-5.240281820E-1,3.469592705E-2,9.771091461E0
1.340675171E0,-5.240281820E-1,4.426721856E-2,9.766305923E0
1.342911927E0,-5.282155871E-1,6.340979785E-2,9.780662537E0
1.345148072E0,-5.282155871E-1,7.298108935E-2,9.747162819E0
1.347385377E0,-5.234299302E-1,6.340979785E-2,9.761520386E0
1.349619202E0,-5.282155871E-1,5.862415582E-2,9.766305923E0
1.351847170E0,-5.330012441E-1,5.862415582E-2,9.771091461E0
1.354096681E0,-5.479564071E-1,5.443671346E-2,9.775279045E0
1.356334962E0,-5.330012441E-1,5.862415582E-2,9.766305923E0
1.358572695E0,-5.479564071E-1,5.383851007E-2,9.789635658E0
1.360805971E0,-5.234299302E-1,4.905286431E-2,9.747162819E0
1.363042300E0,-5.234299302E-1,5.383851007E-2,9.756733894E0
1.365279605E0,-5.473581553E-1,5.443671346E-2,9.756733894E0
1.367516482E0,-5.335994363E-1,4.905286431E-2,9.756733894E0
1.369753115E0,-5.383850932E-1,4.426721856E-2,9.761520386E0
1.371990665E0,-5.377869010E-1,7.357929647E-2,9.747162819E0
1.374228946E0,-5.425725579E-1,5.922235921E-2,9.765707016E0
1.376461369E0,-5.234299302E-1,7.298108935E-2,9.761520386E0
1.378690616E0,-5.473581553E-1,5.922235921E-2,9.747162819E0
1.380936894E0,-5.569294691E-1,6.879365444E-2,9.770493507E0
1.383173955E0,-5.240281820E-1,5.862415582E-2,9.775876999E0
1.385413212E0,-5.383850932E-1,3.948157281E-2,9.775876999E0
1.387647282E0,-5.377869010E-1,5.443671346E-2,9.747162819E0
1.389884770E0,-5.670989752E-1,5.443671346E-2,9.789635658E0
1.392123480E0,-5.335994363E-1,5.383851007E-2,9.771091461E0
1.394358099E0,-5.377869010E-1,7.776673883E-2,9.780064583E0
1.396591619E0,-5.335994363E-1,5.862415582E-2,9.780662537E0
1.398818609E0,-5.431707501E-1,5.862415582E-2,9.784850121E0
1.401067938E0,-5.288137794E-1,4.905286431E-2,9.766305923E0
1.403304816E0,-5.330012441E-1,5.862415582E-2,9.766305923E0
1.405544746E0,-5.330012441E-1,5.862415582E-2,9.766305923E0
1.407779364E0,-5.234299302E-1,6.340979785E-2,9.761520386E0
1.410017829E0,-5.192425251E-1,5.862415582E-2,9.790233612E0
1.412252388E0,-5.192425251E-1,4.426721856E-2,9.785448074E0
1.414488899E0,-5.144568682E-1,5.383851007E-2,9.771091461E0
1.416722176E0,-5.144568682E-1,5.383851007E-2,9.771091461E0
1.418950569E0,-5.144568682E-1,4.905286431E-2,9.761520386E0
1.421199348E0,-5.090730190E-1,5.862415582E-2,9.766305923E0
1.423435983E0,-5.234299302E-1,5.862415582E-2,9.766305923E0
1.425676461E0,-5.138586760E-1,5.383851007E-2,9.756733894E0
1.427911508E0,-5.138586760E-1,5.383851007E-2,9.761520386E0
1.430146432E0,-5.234299302E-1,5.862415582E-2,9.742377281E0
1.432383188E0,-5.377869010E-1,6.340979785E-2,9.780662537E0
1.434619517E0,-5.282155871E-1,5.383851007E-2,9.751948357E0
1.436853586E0,-5.288137794E-1,3.469592705E-2,9.761520386E0
1.439081492E0,-5.383850932E-1,4.905286431E-2,9.761520386E0
1.441330515E0,-5.431707501E-1,4.007977992E-2,9.761520386E0
1.443567881E0,-5.425725579E-1,5.922235921E-2,9.761520386E0
1.445809093E0,-5.527420044E-1,4.007977992E-2,9.775279045E0
1.448040660E0,-5.575276613E-1,5.922235921E-2,9.775279045E0
1.450277476E0,-5.473581553E-1,7.357929647E-2,9.765707016E0
1.452513806E0,-5.186443329E-1,6.340979785E-2,9.751948357E0
1.454751171E0,-5.240281820E-1,5.383851007E-2,9.771091461E0
1.456987988E0,-5.288137794E-1,4.905286431E-2,9.771091461E0
1.459224743E0,-5.138586760E-1,6.819544733E-2,9.742377281E0
1.461461803E0,-5.335994363E-1,5.383851007E-2,9.780064583E0
1.463700025E0,-5.138586760E-1,6.340979785E-2,9.771091461E0
1.465934705E0,-5.335994363E-1,4.426721856E-2,9.771091461E0
1.468171888E0,-5.335994363E-1,5.383851007E-2,9.766305923E0
1.470408399E0,-5.431707501E-1,3.529413417E-2,9.761520386E0
1.472645521E0,-5.521438122E-1,7.836493850E-2,9.765707016E0
1.474878676E0,-5.521438122E-1,6.400800496E-2,9.770493507E0
1.477101515E0,-5.234299302E-1,5.383851007E-2,9.756733894E0
1.479343946E0,-5.425725579E-1,4.486542568E-2,9.742377281E0
1.481594618E0,-5.335994363E-1,4.905286431E-2,9.756733894E0
1.483832778E0,-5.377869010E-1,7.298108935E-2,9.766305923E0
1.486068924E0,-5.186443329E-1,5.862415582E-2,9.761520386E0
1.488302322E0,-5.335994363E-1,5.383851007E-2,9.771091461E0
1.490539504E0,-5.335994363E-1,5.383851007E-2,9.790233612E0
1.492776566E0,-5.330012441E-1,8.255238086E-2,9.784850121E0
1.495013138E0,-5.138586760E-1,7.298108935E-2,9.775876999E0
1.497250748E0,-4.995017350E-1,6.281159073E-2,9.761520386E0
1.499488907E0,-5.138586760E-1,5.862415582E-2,9.766305923E0
1.501723527E0,-5.335994363E-1,4.426721856E-2,9.751948357E0
1.503960100E0,-5.186443329E-1,5.862415582E-2,9.761520386E0
1.506196611E0,-5.330012441E-1,6.819544733E-2,9.756733894E0
1.508433793E0,-5.569294691E-1,6.400800496E-2,9.741779327E0
1.510670854E0,-5.383850932E-1,4.905286431E-2,9.771091461E0
1.512907366E0,-5.521438122E-1,7.357929647E-2,9.760921478E0
1.515144732E0,-5.431707501E-1,4.965107143E-2,9.766305923E0
1.517382952E0,-5.479564071E-1,5.922235921E-2,9.770493507E0
1.519615740E0,-5.521438122E-1,5.922235921E-2,9.760921478E0
1.521846088E0,-5.330012441E-1,5.862415582E-2,9.761520386E0
1.524090717E0,-5.288137794E-1,5.383851007E-2,9.780662537E0
1.526328022E0,-5.288137794E-1,4.426721856E-2,9.766305923E0
1.528566913E0,-5.240281820E-1,5.862415582E-2,9.775876999E0
1.530801471E0,-5.096712112E-1,5.862415582E-2,9.775876999E0
1.533039082E0,-5.186443329E-1,6.340979785E-2,9.771091461E0
1.535277485E0,-5.288137794E-1,4.426721856E-2,9.775876999E0
1.537511921E0,-5.090730190E-1,5.862415582E-2,9.747162819E0
1.539748677E0,-5.335994363E-1,4.426721856E-2,9.751948357E0
1.541984945E0,-5.377869010E-1,6.819544733E-2,9.751948357E0
1.544222372E0,-5.186443329E-1,6.819544733E-2,9.756733894E0
1.546457784E0,-5.431707501E-1,4.486542568E-2,9.747162819E0
1.548690389E0,-5.282155871E-1,6.340979785E-2,9.766305923E0
1.550933370E0,-5.282155871E-1,5.862415582E-2,9.761520386E0
1.553171775E0,-5.234299302E-1,7.776673883E-2,9.761520386E0
1.555407615E0,-5.138586760E-1,6.819544733E-2,9.756733894E0
1.557643210E0,-5.377869010E-1,5.862415582E-2,9.756733894E0
1.559879172E0,-5.138586760E-1,6.340979785E-2,9.751948357E0
1.562116417E0,-5.144568682E-1,3.469592705E-2,9.756733894E0
1.564350486E0,-5.090730190E-1,6.340979785E-2,9.771091461E0
1.566575584E0,-5.288137794E-1,4.426721856E-2,9.775876999E0
1.568815696E0,-4.995017350E-1,4.905286431E-2,9.742377281E0
1.571065819E0,-5.000999570E-1,5.324030295E-2,9.799804688E0
1.573303369E0,-5.138586760E-1,6.340979785E-2,9.761520386E0
1.575540246E0,-5.330012441E-1,6.819544733E-2,9.756733894E0
1.577773583E0,-5.377869010E-1,7.836493850E-2,9.737591743E0
1.580010949E0,-5.282155871E-1,7.298108935E-2,9.766305923E0
1.582247705E0,-5.527420044E-1,4.965107143E-2,9.756733894E0
1.584484278E0,-5.282155871E-1,7.298108935E-2,9.766305923E0
1.586721643E0,-5.479564071E-1,5.443671346E-2,9.765707016E0
1.588960108E0,-5.521438122E-1,5.922235921E-2,9.746564865E0
1.591194788E0,-5.282155871E-1,6.819544733E-2,9.766305923E0
1.593431605E0,-5.383850932E-1,4.905286431E-2,9.766305923E0
1.595667812E0,-5.425725579E-1,6.879365444E-2,9.756135941E0
1.597904994E0,-5.234299302E-1,5.862415582E-2,9.737591743E0
1.600142054E0,-5.288137794E-1,3.948157281E-2,9.747162819E0
1.602375393E0,-5.042873621E-1,3.948157281E-2,9.737591743E0
1.604602321E0,-5.234299302E-1,6.819544733E-2,9.771091461E0
1.606854336E0,-5.186443329E-1,4.905286431E-2,9.756733894E0
1.609088772E0,-5.138586760E-1,7.776673883E-2,9.780662537E0
1.611329311E0,-5.138586760E-1,5.383851007E-2,9.766305923E0
1.613562101E0,-5.335994363E-1,4.905286431E-2,9.771091461E0
1.615799344E0,-5.377869010E-1,5.922235921E-2,9.751948357E0
1.618033352E0,-5.473581553E-1,5.922235921E-2,9.770493507E0
1.620258206E0,-5.521438122E-1,6.400800496E-2,9.765707016E0
1.622498563E0,-5.521438122E-1,5.922235921E-2,9.760921478E0
1.624748625E0,-5.814558864E-1,4.965107143E-2,9.794421196E0
1.626983122E0,-5.575276613E-1,4.486542568E-2,9.784850121E0
1.629211455E0,-5.335994363E-1,5.862415582E-2,9.785448074E0
1.631456694E0,-4.947160780E-1,5.802594870E-2,9.756733894E0
1.633693877E0,-5.335994363E-1,3.469592705E-2,9.766305923E0
1.635933502E0,-5.138586760E-1,4.905286431E-2,9.751948357E0
1.638167083E0,-5.138586760E-1,6.340979785E-2,9.771091461E0
1.640404509E0,-5.240281820E-1,3.948157281E-2,9.785448074E0
1.642640106E0,-5.335994363E-1,4.905286431E-2,9.775876999E0
1.644862152E0,-5.383850932E-1,4.426721856E-2,9.766305923E0
1.647098297E0,-5.240281820E-1,5.383851007E-2,9.761520386E0
1.649347504E0,-5.144568682E-1,4.905286431E-2,9.761520386E0
1.651578949E0,-5.431707501E-1,6.340979785E-2,9.780064583E0
1.653828645E0,-5.575276613E-1,5.922235921E-2,9.765707016E0
1.656061555E0,-5.527420044E-1,4.965107143E-2,9.751350403E0
1.658302034E0,-5.473581553E-1,5.922235921E-2,9.760921478E0
1.660537324E0,-5.479564071E-1,4.486542568E-2,9.770493507E0
1.662767488E0,-5.431707501E-1,4.965107143E-2,9.756733894E0
1.664990816E0,-5.527420044E-1,4.965107143E-2,9.751350403E0
1.667244723E0,-5.425725579E-1,6.400800496E-2,9.751948357E0
1.669479097E0,-5.473581553E-1,7.836493850E-2,9.746564865E0
1.671711399E0,-5.138586760E-1,7.298108935E-2,9.751948357E0
1.673955783E0,-5.090730190E-1,8.255238086E-2,9.761520386E0
1.676193087E0,-5.186443329E-1,6.340979785E-2,9.756733894E0
1.678434360E0,-4.995017350E-1,4.905286431E-2,9.756733894E0
1.680666232E0,-5.096712112E-1,4.426721856E-2,9.771091461E0
1.682902989E0,-5.240281820E-1,3.469592705E-2,9.756733894E0
1.685138707E0,-5.096712112E-1,5.383851007E-2,9.775876999E0
1.687374852E0,-5.138586760E-1,7.298108935E-2,9.790233612E0
1.689609959E0,-5.377869010E-1,6.340979785E-2,9.771091461E0
1.691838109E0,-5.431707501E-1,5.443671346E-2,9.765707016E0
1.694087743E0,-5.383850932E-1,4.905286431E-2,9.784850121E0
1.696325719E0,-5.425725579E-1,5.922235921E-2,9.765707016E0
1.698563512E0,-5.479564071E-1,4.965107143E-2,9.760921478E0
1.700797338E0,-5.186443329E-1,5.383851007E-2,9.761520386E0
1.703033606E0,-5.192425251E-1,5.862415582E-2,9.775876999E0
1.705270727E0,-5.240281820E-1,4.426721856E-2,9.771091461E0
1.707507666E0,-5.383850932E-1,4.905286431E-2,9.766305923E0
1.709743994E0,-5.282155871E-1,7.298108935E-2,9.756733894E0
1.711979713E0,-5.042873621E-1,6.340979785E-2,9.751948357E0
1.714210120E0,-5.192425251E-1,4.426721856E-2,9.785448074E0
1.716439979E0,-5.192425251E-1,4.905286431E-2,9.775876999E0
1.718678993E0,-5.288137794E-1,5.383851007E-2,9.775876999E0
1.720929542E0,-5.377869010E-1,5.862415582E-2,9.766305923E0
1.723167641E0,-5.186443329E-1,6.819544733E-2,9.766305923E0
1.725404885E0,-5.527420044E-1,4.007977992E-2,9.770493507E0
1.727638283E0,-5.186443329E-1,5.862415582E-2,9.771091461E0
1.729871499E0,-5.431707501E-1,4.965107143E-2,9.765707016E0
1.732094095E0,-5.282155871E-1,5.862415582E-2,9.747162819E0
1.734336893E0,-5.144568682E-1,5.383851007E-2,9.780662537E0
1.736582681E0,-5.377869010E-1,7.298108935E-2,9.770493507E0
1.738814248E0,-5.377869010E-1,6.819544733E-2,9.751948357E0
1.741062296E0,-5.192425251E-1,5.383851007E-2,9.766305923E0
1.743296122E0,-5.240281820E-1,3.469592705E-2,9.766305923E0
1.745535930E0,-5.473581553E-1,5.922235921E-2,9.751350403E0
1.747770243E0,-5.288137794E-1,2.512463741E-2,9.775876999E0
1.750008463E0,-5.383850932E-1,4.905286431E-2,9.780064583E0
1.752243084E0,-5.096712112E-1,4.905286431E-2,9.775876999E0
1.754479961E0,-5.240281820E-1,5.383851007E-2,9.771091461E0
1.756713482E0,-5.240281820E-1,4.426721856E-2,9.761520386E0
1.758941570E0,-5.282155871E-1,4.905286431E-2,9.751948357E0
1.761190105E0,-5.425725579E-1,7.298108935E-2,9.780064583E0
1.763426861E0,-5.330012441E-1,6.819544733E-2,9.775876999E0
1.765667279E0,-5.479564071E-1,4.965107143E-2,9.780064583E0
1.767902875E0,-5.144568682E-1,4.426721856E-2,9.771091461E0
1.770137677E0,-5.479564071E-1,5.443671346E-2,9.760921478E0
1.772374250E0,-5.575276613E-1,4.007977992E-2,9.770493507E0
1.774610457E0,-5.288137794E-1,5.383851007E-2,9.766305923E0
1.776847578E0,-5.240281820E-1,4.426721856E-2,9.756733894E0
1.779084638E0,-5.096712112E-1,4.426721856E-2,9.766305923E0
1.781321272E0,-5.479564071E-1,5.922235921E-2,9.780064583E0
1.783558882E0,-5.335994363E-1,6.819544733E-2,9.789635658E0
1.785797103E0,-5.288137794E-1,4.905286431E-2,9.756733894E0
1.788031966E0,-5.234299302E-1,5.862415582E-2,9.761520386E0
1.790268477E0,-5.330012441E-1,5.862415582E-2,9.771091461E0
1.792504807E0,-5.335994363E-1,5.383851007E-2,9.785448074E0
1.794742111E0,-5.144568682E-1,4.905286431E-2,9.775876999E0
1.796978988E0,-5.383850932E-1,5.383851007E-2,9.789635658E0
1.799215805E0,-5.617151260E-1,5.922235921E-2,9.741779327E0
1.801453048E0,-5.670989752E-1,4.486542568E-2,9.756135941E0
1.803691087E0,-5.330012441E-1,7.298108935E-2,9.775876999E0
1.805926011E0,-5.431707501E-1,5.443671346E-2,9.766305923E0
1.808161545E0,-5.234299302E-1,5.383851007E-2,9.751948357E0
1.810390183E0,-5.335994363E-1,5.383851007E-2,9.775876999E0
1.812624010E0,-5.377869010E-1,6.819544733E-2,9.780064583E0
1.814873156E0,-5.186443329E-1,5.383851007E-2,9.747162819E0
1.817111315E0,-5.335994363E-1,5.383851007E-2,9.775876999E0
1.819350511E0,-5.234299302E-1,4.905286431E-2,9.751948357E0
1.821585619E0,-5.234299302E-1,5.383851007E-2,9.756733894E0
1.823820300E0,-5.383850932E-1,4.426721856E-2,9.761520386E0
1.826057055E0,-5.431707501E-1,6.340979785E-2,9.780064583E0
1.828293323E0,-5.048855543E-1,5.802594870E-2,9.780662537E0
1.830530505E0,-5.288137794E-1,5.862415582E-2,9.775876999E0
1.832767506E0,-5.330012441E-1,5.383851007E-2,9.761520386E0
1.835004139E0,-5.042873621E-1,6.819544733E-2,9.766305923E0
1.837241748E0,-5.431707501E-1,3.469592705E-2,9.775876999E0
1.839479908E0,-5.383850932E-1,2.991028316E-2,9.766305923E0
1.841714589E0,-5.192425251E-1,4.426721856E-2,9.780662537E0
1.843951284E0,-5.330012441E-1,6.819544733E-2,9.771091461E0
1.846187368E0,-5.090730190E-1,6.340979785E-2,9.761520386E0
1.848424733E0,-5.383850932E-1,4.905286431E-2,9.775876999E0
1.850661550E0,-5.144568682E-1,4.426721856E-2,9.771091461E0
1.852896109E0,-5.575276613E-1,4.486542568E-2,9.760921478E0
1.855126516E0,-5.234299302E-1,5.383851007E-2,9.761520386E0
1.857374258E0,-5.192425251E-1,4.905286431E-2,9.771091461E0
1.859608877E0,-5.048855543E-1,4.905286431E-2,9.771091461E0
1.861848014E0,-5.330012441E-1,6.819544733E-2,9.780064583E0
1.864081962E0,-5.282155871E-1,5.383851007E-2,9.742377281E0
1.866319266E0,-5.431707501E-1,5.862415582E-2,9.803992271E0
1.868555839E0,-5.330012441E-1,6.340979785E-2,9.766305923E0
1.870792655E0,-5.479564071E-1,4.486542568E-2,9.770493507E0
1.873029961E0,-5.527420044E-1,4.965107143E-2,9.765707016E0
1.875268303E0,-5.335994363E-1,6.340979785E-2,9.785448074E0
1.877503166E0,-5.330012441E-1,6.819544733E-2,9.785448074E0
1.879739922E0,-5.383850932E-1,3.948157281E-2,9.775876999E0
1.881976007E0,-5.527420044E-1,6.400800496E-2,9.780064583E0
1.884213311E0,-5.335994363E-1,5.862415582E-2,9.780662537E0
1.886450128E0,-4.995017350E-1,6.759724021E-2,9.780662537E0
1.888687066E0,-5.383850932E-1,5.862415582E-2,9.794421196E0
1.890924615E0,-5.288137794E-1,5.383851007E-2,9.771091461E0
1.893162836E0,-5.335994363E-1,4.426721856E-2,9.775876999E0
1.895398126E0,-5.096712112E-1,4.905286431E-2,9.761520386E0
1.897636713E0,-5.096712112E-1,4.426721856E-2,9.766305923E0
1.899869746E0,-5.288137794E-1,5.383851007E-2,9.785448074E0
1.902107662E0,-5.425725579E-1,5.922235921E-2,9.742377281E0
1.904343990E0,-5.425725579E-1,5.922235921E-2,9.765707016E0
1.906578425E0,-5.383850932E-1,5.383851007E-2,9.794421196E0
1.908806636E0,-5.288137794E-1,3.948157281E-2,9.795019150E0
1.911056758E0,-5.383850932E-1,4.905286431E-2,9.780064583E0
1.913291500E0,-5.330012441E-1,6.819544733E-2,9.761520386E0
1.915531491E0,-5.234299302E-1,5.383851007E-2,9.756733894E0
1.917764584E0,-5.431707501E-1,5.862415582E-2,9.770493507E0
1.920001950E0,-5.240281820E-1,5.383851007E-2,9.771091461E0
1.922238706E0,-5.240281820E-1,4.905286431E-2,9.761520386E0
1.924475583E0,-5.240281820E-1,5.862415582E-2,9.775876999E0
1.926712888E0,-5.234299302E-1,6.819544733E-2,9.761520386E0
1.928951169E0,-5.096712112E-1,4.905286431E-2,9.766305923E0
1.931186033E0,-5.288137794E-1,2.991028316E-2,9.785448074E0
1.933422789E0,-5.240281820E-1,4.426721856E-2,9.756733894E0
1.935658812E0,-5.288137794E-1,5.862415582E-2,9.795019150E0
1.937895934E0,-5.473581553E-1,6.400800496E-2,9.760921478E0
1.940132933E0,-5.425725579E-1,7.298108935E-2,9.775279045E0
1.942369628E0,-5.431707501E-1,5.862415582E-2,9.780064583E0
1.944607238E0,-5.623133183E-1,5.443671346E-2,9.770493507E0
1.946845398E0,-5.521438122E-1,6.400800496E-2,9.760921478E0
1.949080078E0,-5.575276613E-1,4.965107143E-2,9.775279045E0
1.951316833E0,-5.335994363E-1,5.383851007E-2,9.794421196E0
1.953553101E0,-5.425725579E-1,6.340979785E-2,9.775279045E0
1.955790345E0,-5.282155871E-1,5.383851007E-2,9.751948357E0
1.958027527E0,-5.335994363E-1,4.426721856E-2,9.789635658E0
1.960263917E0,-5.000999570E-1,5.324030295E-2,9.766305923E0
1.962501527E0,-5.282155871E-1,6.340979785E-2,9.756733894E0
1.964739626E0,-5.090730190E-1,6.819544733E-2,9.751948357E0
1.966974367E0,-5.192425251E-1,4.905286431E-2,9.766305923E0
1.969211183E0,-5.330012441E-1,6.340979785E-2,9.766305923E0
1.971447695E0,-5.096712112E-1,5.383851007E-2,9.780662537E0
1.973682803E0,-5.234299302E-1,6.819544733E-2,9.756733894E0
1.975913516E0,-5.186443329E-1,5.862415582E-2,9.766305923E0
1.978158084E0,-5.138586760E-1,6.819544733E-2,9.775876999E0
1.980395510E0,-5.527420044E-1,5.443671346E-2,9.789635658E0
1.982637089E0,-5.479564071E-1,4.965107143E-2,9.751350403E0
1.984873111E0,-5.335994363E-1,4.426721856E-2,9.775876999E0
1.987105716E0,-5.240281820E-1,4.426721856E-2,9.780662537E0
1.989337711E0,-5.431707501E-1,4.426721856E-2,9.775279045E0
1.991561832E0,-5.335994363E-1,5.383851007E-2,9.771091461E0
1.993815556E0,-5.330012441E-1,6.340979785E-2,9.775876999E0
1.996052495E0,-5.431707501E-1,4.486542568E-2,9.765707016E0
1.998294072E0,-5.288137794E-1,5.383851007E-2,9.785448074E0
2.000528325E0,-5.240281820E-1,4.905286431E-2,9.766305923E0
2.002760748E0,-4.995017350E-1,5.802594870E-2,9.761520386E0
2.004990911E0,-4.947160780E-1,5.802594870E-2,9.775876999E0
2.007235968E0,-5.234299302E-1,5.383851007E-2,9.756733894E0
2.009470098E0,-5.282155871E-1,6.340979785E-2,9.771091461E0
2.011700141E0,-5.288137794E-1,5.862415582E-2,9.775876999E0
2.013946784E0,-5.569294691E-1,5.443671346E-2,9.746564865E0
2.016184393E0,-5.383850932E-1,4.905286431E-2,9.766305923E0
2.018422980E0,-5.521438122E-1,6.879365444E-2,9.780064583E0
2.020646735E0,-5.473581553E-1,6.879365444E-2,9.765707016E0
2.022893990E0,-5.383850932E-1,5.383851007E-2,9.784850121E0
2.025130257E0,-5.288137794E-1,3.469592705E-2,9.785448074E0
2.027370003E0,-5.425725579E-1,5.922235921E-2,9.751948357E0
2.029601326E0,-5.521438122E-1,6.400800496E-2,9.765707016E0
2.031829598E0,-5.240281820E-1,4.426721856E-2,9.766305923E0
2.034078683E0,-5.096712112E-1,4.905286431E-2,9.766305923E0
2.036316903E0,-5.096712112E-1,5.862415582E-2,9.780662537E0
2.038554391E0,-5.192425251E-1,4.426721856E-2,9.766305923E0
2.040788278E0,-5.383850932E-1,4.905286431E-2,9.780064583E0
2.043024546E0,-5.096712112E-1,3.948157281E-2,9.771091461E0
2.045261667E0,-5.192425251E-1,6.340979785E-2,9.780662537E0
2.047498484E0,-5.048855543E-1,4.845465720E-2,9.780662537E0
2.049735300E0,-5.335994363E-1,5.383851007E-2,9.766305923E0
2.051972728E0,-5.144568682E-1,5.383851007E-2,9.785448074E0
2.054211192E0,-5.377869010E-1,6.340979785E-2,9.766305923E0
2.056445811E0,-5.186443329E-1,5.862415582E-2,9.771091461E0
2.058682628E0,-5.288137794E-1,5.862415582E-2,9.780662537E0
2.060918834E0,-5.192425251E-1,3.948157281E-2,9.766305923E0
2.063153026E0,-5.383850932E-1,5.862415582E-2,9.780064583E0
2.065381054E0,-5.192425251E-1,2.991028316E-2,9.795019150E0
2.067629589E0,-5.575276613E-1,5.443671346E-2,9.808777809E0
2.069864026E0,-5.383850932E-1,5.862415582E-2,9.789635658E0
2.072096448E0,-5.240281820E-1,4.905286431E-2,9.790233612E0
2.074340100E0,-5.282155871E-1,5.383851007E-2,9.761520386E0
2.076573926E0,-5.479564071E-1,4.426721856E-2,9.784850121E0
2.078804212E0,-5.623133183E-1,4.486542568E-2,9.770493507E0
2.081050550E0,-5.473581553E-1,6.400800496E-2,9.765707016E0
2.083287306E0,-5.240281820E-1,4.426721856E-2,9.790233612E0
2.085526930E0,-5.431707501E-1,3.948157281E-2,9.780064583E0
2.087761488E0,-5.527420044E-1,5.443671346E-2,9.765707016E0
2.089999708E0,-5.479564071E-1,5.443671346E-2,9.775279045E0
2.092234390E0,-5.527420044E-1,4.965107143E-2,9.765707016E0
2.094471145E0,-5.240281820E-1,3.948157281E-2,9.795019150E0
2.096704482E0,-5.288137794E-1,5.383851007E-2,9.794421196E0
2.098932876E0,-5.473581553E-1,6.879365444E-2,9.770493507E0
2.101179458E0,-5.288137794E-1,4.905286431E-2,9.775876999E0
2.103409623E0,-5.138586760E-1,5.862415582E-2,9.771091461E0
2.105658463E0,-5.192425251E-1,4.426721856E-2,9.751948357E0
2.107893814E0,-5.240281820E-1,4.426721856E-2,9.756733894E0
2.110131058E0,-5.000999570E-1,5.324030295E-2,9.771091461E0
2.112365495E0,-5.192425251E-1,5.383851007E-2,9.775876999E0
2.114601762E0,-5.282155871E-1,7.298108935E-2,9.785448074E0
2.116835832E0,-5.192425251E-1,5.383851007E-2,9.785448074E0
2.119060990E0,-5.240281820E-1,6.340979785E-2,9.799804688E0
2.121300737E0,-5.282155871E-1,5.383851007E-2,9.761520386E0
2.123549822E0,-5.425725579E-1,7.836493850E-2,9.751350403E0
2.125790972E0,-5.527420044E-1,5.922235921E-2,9.789635658E0
2.128025653E0,-5.527420044E-1,5.443671346E-2,9.760921478E0
2.130259722E0,-5.521438122E-1,6.400800496E-2,9.751350403E0
2.132495807E0,-5.288137794E-1,5.862415582E-2,9.771091461E0
2.134733234E0,-5.479564071E-1,4.007977992E-2,9.747162819E0
2.136967242E0,-5.144568682E-1,4.905286431E-2,9.766305923E0
2.139195148E0,-5.234299302E-1,6.340979785E-2,9.761520386E0
2.141441303E0,-5.330012441E-1,6.340979785E-2,9.771091461E0
2.143667073E0,-5.240281820E-1,5.383851007E-2,9.775876999E0
2.145907979E0,-4.995017350E-1,6.281159073E-2,9.775876999E0
2.148154011E0,-5.144568682E-1,3.948157281E-2,9.766305923E0
2.150393391E0,-5.138586760E-1,5.862415582E-2,9.761520386E0
2.152630453E0,-5.330012441E-1,6.819544733E-2,9.784850121E0
2.154864217E0,-5.282155871E-1,5.383851007E-2,9.742377281E0
2.157101034E0,-5.575276613E-1,4.486542568E-2,9.760921478E0
2.159338399E0,-5.623133183E-1,4.486542568E-2,9.780064583E0
2.161576681E0,-5.617151260E-1,6.400800496E-2,9.741779327E0
2.163811484E0,-5.425725579E-1,5.922235921E-2,9.751948357E0
2.166048117E0,-5.575276613E-1,4.007977992E-2,9.794421196E0
2.168284629E0,-5.473581553E-1,5.443671346E-2,9.756135941E0
2.170521689E0,-5.335994363E-1,4.426721856E-2,9.775876999E0
2.172758506E0,-5.335994363E-1,6.340979785E-2,9.789635658E0
2.174995079E0,-5.090730190E-1,5.862415582E-2,9.766305923E0
2.177232749E0,-5.431707501E-1,4.905286431E-2,9.784850121E0
2.179471153E0,-5.138586760E-1,6.340979785E-2,9.775876999E0
2.181705590E0,-5.138586760E-1,7.298108935E-2,9.761520386E0
2.183939354E0,-5.240281820E-1,5.862415582E-2,9.785448074E0
2.186166650E0,-5.090730190E-1,7.238288224E-2,9.780662537E0
2.188416100E0,-5.288137794E-1,5.862415582E-2,9.780662537E0
2.190653100E0,-5.335994363E-1,5.862415582E-2,9.784850121E0
2.192892725E0,-5.282155871E-1,6.340979785E-2,9.771091461E0
2.195127283E0,-5.288137794E-1,4.905286431E-2,9.766305923E0
2.197365442E0,-5.330012441E-1,6.340979785E-2,9.766305923E0
2.199600061E0,-5.623133183E-1,4.965107143E-2,9.770493507E0
2.201836573E0,-5.479564071E-1,4.007977992E-2,9.732806206E0
2.204072902E0,-5.383850932E-1,6.340979785E-2,9.784850121E0
2.206310267E0,-5.479564071E-1,5.443671346E-2,9.760921478E0
2.208547084E0,-5.240281820E-1,6.340979785E-2,9.780662537E0
2.210784022E0,-5.192425251E-1,4.905286431E-2,9.775876999E0
2.213019619E0,-5.335994363E-1,4.905286431E-2,9.780662537E0
2.215245082E0,-5.425725579E-1,5.443671346E-2,9.756135941E0
2.217482509E0,-5.527420044E-1,6.400800496E-2,9.780064583E0
2.219730862E0,-5.234299302E-1,5.383851007E-2,9.751948357E0
2.221970120E0,-5.383850932E-1,4.905286431E-2,9.766305923E0
2.224207547E0,-5.330012441E-1,5.383851007E-2,9.751948357E0
2.226441312E0,-5.479564071E-1,5.443671346E-2,9.765707016E0
2.228673489E0,-5.186443329E-1,7.298108935E-2,9.761520386E0
2.230897488E0,-5.383850932E-1,5.383851007E-2,9.761520386E0
2.233153776E0,-5.479564071E-1,5.862415582E-2,9.789635658E0
2.235388517E0,-5.288137794E-1,4.905286431E-2,9.780662537E0
2.237629973E0,-5.335994363E-1,5.383851007E-2,9.780064583E0
2.239861479E0,-5.282155871E-1,6.819544733E-2,9.766305923E0
2.242098723E0,-5.425725579E-1,6.340979785E-2,9.770493507E0
2.244335906E0,-5.090730190E-1,6.340979785E-2,9.766305923E0
2.246569487E0,-5.282155871E-1,6.819544733E-2,9.751948357E0
2.248797698E0,-5.192425251E-1,4.905286431E-2,9.775876999E0
2.251048064E0,-5.138586760E-1,6.340979785E-2,9.771091461E0
2.253282929E0,-5.240281820E-1,5.862415582E-2,9.775876999E0
2.255522553E0,-5.383850932E-1,4.905286431E-2,9.775279045E0
2.257755829E0,-5.383850932E-1,5.383851007E-2,9.760921478E0
2.259993134E0,-5.479564071E-1,5.922235921E-2,9.775279045E0
2.262229951E0,-5.383850932E-1,3.948157281E-2,9.784850121E0
2.264466584E0,-5.575276613E-1,5.443671346E-2,9.775279045E0
2.266705842E0,-5.479564071E-1,5.443671346E-2,9.770493507E0
2.268948151E0,-5.479564071E-1,4.486542568E-2,9.770493507E0
2.271172883E0,-5.527420044E-1,5.922235921E-2,9.780064583E0
2.273413790E0,-5.575276613E-1,5.443671346E-2,9.780064583E0
2.275648409E0,-5.521438122E-1,5.922235921E-2,9.751350403E0
2.277888522E0,-5.186443329E-1,4.905286431E-2,9.742377281E0
2.280124239E0,-5.288137794E-1,5.383851007E-2,9.761520386E0
2.282360873E0,-5.234299302E-1,5.383851007E-2,9.751948357E0
2.284598422E0,-5.377869010E-1,5.383851007E-2,9.756733894E0
2.286836703E0,-5.090730190E-1,5.383851007E-2,9.761520386E0
2.289071567E0,-5.144568682E-1,4.905286431E-2,9.761520386E0
2.291308078E0,-5.240281820E-1,4.426721856E-2,9.766305923E0
2.293544407E0,-5.144568682E-1,4.905286431E-2,9.761520386E0
2.295781712E0,-5.186443329E-1,5.862415582E-2,9.732806206E0
2.298018589E0,-5.383850932E-1,3.469592705E-2,9.761520386E0
2.300255406E0,-5.479564071E-1,4.486542568E-2,9.765707016E0
2.302492711E0,-5.335994363E-1,3.948157281E-2,9.785448074E0
2.304730932E0,-5.288137794E-1,4.426721856E-2,9.771091461E0
2.306965551E0,-5.527420044E-1,6.400800496E-2,9.780064583E0
2.309199987E0,-5.383850932E-1,4.426721856E-2,9.761520386E0
2.311429174E0,-5.383850932E-1,4.426721856E-2,9.766305923E0
2.313676062E0,-5.000999570E-1,4.845465720E-2,9.771091461E0
2.315912817E0,-5.240281820E-1,4.905286431E-2,9.795019150E0
2.318151831E0,-5.240281820E-1,5.383851007E-2,9.771091461E0
2.320386999E0,-5.425725579E-1,6.340979785E-2,9.765707016E0
2.322621315E0,-5.048855543E-1,6.281159073E-2,9.780662537E0
2.324844276E0,-5.138586760E-1,6.340979785E-2,9.771091461E0
2.327096595E0,-4.899304509E-1,5.802594870E-2,9.771091461E0
2.329332679E0,-5.090730190E-1,5.383851007E-2,9.747162819E0
2.331574012E0,-5.383850932E-1,4.426721856E-2,9.756733894E0
2.333807167E0,-5.473581553E-1,7.357929647E-2,9.775279045E0
2.336044045E0,-5.383850932E-1,4.905286431E-2,9.766305923E0
2.338281410E0,-5.473581553E-1,5.443671346E-2,9.741779327E0
2.340519753E0,-5.383850932E-1,5.383851007E-2,9.761520386E0
2.342753946E0,-5.527420044E-1,4.965107143E-2,9.775279045E0
2.344990213E0,-5.623133183E-1,5.922235921E-2,9.770493507E0
2.347227152E0,-5.670989752E-1,4.965107143E-2,9.770493507E0
2.349461343E0,-5.425725579E-1,5.922235921E-2,9.751350403E0
2.351689371E0,-5.569294691E-1,5.443671346E-2,9.756135941E0
2.353937968E0,-5.288137794E-1,5.383851007E-2,9.761520386E0
2.356175333E0,-5.234299302E-1,4.905286431E-2,9.751948357E0
2.358416606E0,-5.282155871E-1,4.426721856E-2,9.737591743E0
2.360648478E0,-5.144568682E-1,4.905286431E-2,9.766305923E0
2.362885234E0,-5.186443329E-1,6.340979785E-2,9.751948357E0
2.365121380E0,-5.330012441E-1,6.340979785E-2,9.756733894E0
2.367358867E0,-5.288137794E-1,6.340979785E-2,9.785448074E0
2.369592449E0,-5.042873621E-1,6.819544733E-2,9.766305923E0
2.371820416E0,-5.234299302E-1,6.340979785E-2,9.761520386E0
2.374069866E0,-5.138586760E-1,6.819544733E-2,9.785448074E0
2.376308148E0,-5.431707501E-1,4.486542568E-2,9.760921478E0
2.378543927E0,-5.330012441E-1,7.776673883E-2,9.775279045E0
2.380772076E0,-5.473581553E-1,7.836493850E-2,9.765707016E0
2.383015303E0,-5.383850932E-1,4.905286431E-2,9.780064583E0
2.385252973E0,-5.431707501E-1,5.862415582E-2,9.780064583E0
2.387491804E0,-5.479564071E-1,6.340979785E-2,9.799206734E0
2.389726667E0,-5.377869010E-1,6.819544733E-2,9.765707016E0
2.391963972E0,-5.527420044E-1,5.443671346E-2,9.765707016E0
2.394202376E0,-5.473581553E-1,7.357929647E-2,9.775279045E0
2.396437056E0,-5.282155871E-1,5.862415582E-2,9.766305923E0
2.398673873E0,-5.288137794E-1,5.862415582E-2,9.771091461E0
2.400910079E0,-5.335994363E-1,5.383851007E-2,9.771091461E0
2.403147201E0,-5.234299302E-1,5.862415582E-2,9.732806206E0
2.405384018E0,-5.240281820E-1,5.862415582E-2,9.775876999E0
2.407620773E0,-5.234299302E-1,5.862415582E-2,9.742377281E0
2.409858016E0,-5.240281820E-1,4.905286431E-2,9.761520386E0
2.412096726E0,-5.186443329E-1,5.383851007E-2,9.751948357E0
2.414331345E0,-5.377869010E-1,7.298108935E-2,9.780064583E0
2.416565232E0,-5.425725579E-1,6.340979785E-2,9.775279045E0
2.418792832E0,-5.288137794E-1,4.905286431E-2,9.785448074E0
2.421043259E0,-5.377869010E-1,7.298108935E-2,9.784850121E0
2.423278551E0,-5.670989752E-1,5.443671346E-2,9.760921478E0
2.425518175E0,-5.617151260E-1,5.922235921E-2,9.751350403E0
2.427752306E0,-5.431707501E-1,4.905286431E-2,9.775279045E0
2.429990709E0,-5.521438122E-1,5.443671346E-2,9.756135941E0
2.432225634E0,-5.431707501E-1,4.965107143E-2,9.765707016E0
2.434462390E0,-5.473581553E-1,6.879365444E-2,9.775279045E0
2.436695849E0,-5.288137794E-1,4.905286431E-2,9.790233612E0
2.438924365E0,-5.425725579E-1,6.340979785E-2,9.775279045E0
2.441172839E0,-5.186443329E-1,5.862415582E-2,9.766305923E0
2.443409412E0,-5.377869010E-1,6.340979785E-2,9.770493507E0
2.445649708E0,-5.240281820E-1,5.862415582E-2,9.771091461E0
2.447885242E0,-5.330012441E-1,6.819544733E-2,9.780064583E0
2.450119923E0,-5.288137794E-1,4.905286431E-2,9.766305923E0
2.452356740E0,-5.479564071E-1,5.383851007E-2,9.799206734E0
2.454592946E0,-5.377869010E-1,6.340979785E-2,9.756733894E0
2.456826833E0,-5.431707501E-1,5.383851007E-2,9.770493507E0
2.459053884E0,-5.234299302E-1,5.383851007E-2,9.761520386E0
2.461303456E0,-5.479564071E-1,4.007977992E-2,9.775279045E0
2.463541128E0,-5.473581553E-1,5.922235921E-2,9.751350403E0
2.465782828E0,-5.479564071E-1,3.050848842E-2,9.770493507E0
2.468014273E0,-5.282155871E-1,6.340979785E-2,9.737591743E0
2.470250967E0,-5.288137794E-1,5.383851007E-2,9.771091461E0
2.472487052E0,-5.431707501E-1,4.486542568E-2,9.751948357E0
2.474724662E0,-5.425725579E-1,4.965107143E-2,9.747162819E0
2.476961417E0,-5.192425251E-1,3.948157281E-2,9.780662537E0
2.479198112E0,-5.096712112E-1,3.469592705E-2,9.756733894E0
2.481435599E0,-5.377869010E-1,4.965107143E-2,9.751948357E0
2.483673760E0,-5.192425251E-1,3.948157281E-2,9.756733894E0
2.485908257E0,-5.288137794E-1,5.383851007E-2,9.771091461E0
2.488145256E0,-5.288137794E-1,3.948157281E-2,9.780662537E0
2.490381585E0,-5.569294691E-1,5.443671346E-2,9.746564865E0
2.492619012E0,-5.575276613E-1,4.486542568E-2,9.756135941E0
2.494855706E0,-5.521438122E-1,5.922235921E-2,9.741779327E0
2.497092279E0,-5.425725579E-1,6.400800496E-2,9.760921478E0
2.499329583E0,-5.766702294E-1,5.443671346E-2,9.765707016E0
2.501564874E0,-5.431707501E-1,5.862415582E-2,9.770493507E0
2.503790766E0,-5.425725579E-1,7.298108935E-2,9.770493507E0
2.506039362E0,-5.240281820E-1,5.383851007E-2,9.771091461E0
2.508275874E0,-5.330012441E-1,8.255238086E-2,9.784850121E0
2.510515925E0,-5.431707501E-1,4.905286431E-2,9.784850121E0
2.512749812E0,-5.282155871E-1,7.776673883E-2,9.761520386E0
2.514986568E0,-5.383850932E-1,3.948157281E-2,9.770493507E0
2.517224055E0,-5.240281820E-1,6.340979785E-2,9.780662537E0
2.519462703E0,-5.335994363E-1,5.383851007E-2,9.771091461E0
2.521697018E0,-5.527420044E-1,4.965107143E-2,9.765707016E0
2.523933651E0,-5.527420044E-1,5.922235921E-2,9.775279045E0
2.526170102E0,-5.335994363E-1,4.905286431E-2,9.794421196E0
2.528407467E0,-5.288137794E-1,4.905286431E-2,9.766305923E0
2.530644101E0,-5.527420044E-1,4.965107143E-2,9.780064583E0
2.532880918E0,-5.330012441E-1,6.819544733E-2,9.784850121E0
2.535118466E0,-5.288137794E-1,4.905286431E-2,9.771091461E0
2.537356748E0,-5.138586760E-1,6.340979785E-2,9.775876999E0
2.539591306E0,-5.383850932E-1,6.340979785E-2,9.794421196E0
2.541827879E0,-5.282155871E-1,5.862415582E-2,9.756733894E0
2.544062132E0,-5.431707501E-1,5.383851007E-2,9.775279045E0
2.546289488E0,-5.138586760E-1,5.383851007E-2,9.761520386E0
2.548526427E0,-5.335994363E-1,4.905286431E-2,9.789635658E0
2.550775145E0,-5.383850932E-1,5.383851007E-2,9.766305923E0
2.553014770E0,-5.575276613E-1,6.400800496E-2,9.784850121E0
2.555253784E0,-5.282155871E-1,7.298108935E-2,9.780662537E0
2.557485656E0,-5.192425251E-1,6.340979785E-2,9.799804688E0
2.559722473E0,-5.479564071E-1,5.862415582E-2,9.794421196E0
2.561958863E0,-5.282155871E-1,6.340979785E-2,9.775876999E0
2.564196290E0,-5.431707501E-1,4.486542568E-2,9.766305923E0
2.566432618E0,-5.377869010E-1,7.298108935E-2,9.766305923E0
2.568669373E0,-5.186443329E-1,5.862415582E-2,9.756733894E0
2.570903748E0,-5.234299302E-1,6.819544733E-2,9.766305923E0
2.573134340E0,-5.383850932E-1,5.383851007E-2,9.780064583E0
2.575379945E0,-5.138586760E-1,5.383851007E-2,9.761520386E0
2.577616823E0,-5.240281820E-1,4.905286431E-2,9.771091461E0
2.579855714E0,-5.431707501E-1,4.905286431E-2,9.780064583E0
2.582090090E0,-5.479564071E-1,6.340979785E-2,9.789635658E0
2.584326907E0,-5.431707501E-1,5.383851007E-2,9.780064583E0
2.586560732E0,-5.383850932E-1,5.862415582E-2,9.789635658E0
2.588789187E0,-5.431707501E-1,4.905286431E-2,9.808777809E0
2.591039614E0,-5.521438122E-1,6.879365444E-2,9.765707016E0
2.593274234E0,-5.330012441E-1,8.733802289E-2,9.775279045E0
2.595514042E0,-5.670989752E-1,5.443671346E-2,9.794421196E0
2.597747318E0,-5.479564071E-1,5.922235921E-2,9.775279045E0
2.599984623E0,-5.581258535E-1,3.050848842E-2,9.794421196E0
2.602221196E0,-5.527420044E-1,4.486542568E-2,9.756135941E0
2.604458012E0,-5.234299302E-1,5.862415582E-2,9.751948357E0
2.606696355E0,-5.048855543E-1,5.324030295E-2,9.790233612E0
2.608937810E0,-5.479564071E-1,5.862415582E-2,9.789635658E0
2.611168523E0,-5.138586760E-1,6.819544733E-2,9.766305923E0
2.613405340E0,-5.144568682E-1,4.905286431E-2,9.771091461E0
2.615637700E0,-5.240281820E-1,4.905286431E-2,9.756733894E0
2.617864263E0,-5.288137794E-1,4.426721856E-2,9.771091461E0
2.620103765E0,-5.335994363E-1,3.948157281E-2,9.766305923E0
2.622349921E0,-5.521438122E-1,5.922235921E-2,9.765707016E0
2.624583014E0,-5.234299302E-1,7.776673883E-2,9.790233612E0
2.626827338E0,-5.383850932E-1,4.905286431E-2,9.789635658E0
2.629048591E0,-5.617151260E-1,5.922235921E-2,9.756135941E0
2.631301703E0,-5.670989752E-1,4.486542568E-2,9.775279045E0
2.633535652E0,-5.623133183E-1,5.922235921E-2,9.784850121E0
2.635776558E0,-5.288137794E-1,3.948157281E-2,9.790233612E0
2.638010139E0,-5.473581553E-1,7.298108935E-2,9.780064583E0
2.640246895E0,-5.533402562E-1,3.050848842E-2,9.799206734E0
2.642483956E0,-5.479564071E-1,5.443671346E-2,9.760921478E0
2.644722177E0,-5.240281820E-1,4.905286431E-2,9.766305923E0
2.646956979E0,-5.192425251E-1,4.905286431E-2,9.771091461E0
2.649193673E0,-5.383850932E-1,5.383851007E-2,9.794421196E0
2.651430185E0,-5.240281820E-1,5.862415582E-2,9.775876999E0
2.653667307E0,-5.234299302E-1,6.340979785E-2,9.766305923E0
2.655904306E0,-5.234299302E-1,6.819544733E-2,9.766305923E0
2.658140696E0,-5.527420044E-1,5.862415582E-2,9.799206734E0
2.660378488E0,-5.282155871E-1,6.819544733E-2,9.780662537E0
2.662614696E0,-5.377869010E-1,7.298108935E-2,9.770493507E0
2.664844371E0,-5.569294691E-1,7.357929647E-2,9.756135941E0
2.667085093E0,-5.575276613E-1,5.922235921E-2,9.794421196E0
2.669312267E0,-5.527420044E-1,6.819544733E-2,9.794421196E0
2.671563304E0,-5.575276613E-1,5.922235921E-2,9.789635658E0
2.673798351E0,-5.617151260E-1,8.793623000E-2,9.775279045E0
2.676038220E0,-5.234299302E-1,8.733802289E-2,9.799206734E0
2.678272594E0,-5.186443329E-1,8.255238086E-2,9.803992271E0
2.680511059E0,-5.282155871E-1,7.298108935E-2,9.775876999E0
2.682745618E0,-5.234299302E-1,6.340979785E-2,9.766305923E0
2.684982251E0,-5.330012441E-1,7.776673883E-2,9.799206734E0
2.687218702E0,-5.335994363E-1,7.298108935E-2,9.799206734E0
2.689452893E0,-5.138586760E-1,8.255238086E-2,9.790233612E0
2.691680982E0,-5.180460811E-1,1.064806059E-1,9.766305923E0
2.693929457E0,-5.569294691E-1,1.112662554E-1,9.808777809E0
2.696166822E0,-5.282155871E-1,8.733802289E-2,9.756733894E0
2.698408034E0,-5.563312769E-1,1.118644550E-1,9.784850121E0
2.700639906E0,-5.425725579E-1,1.064806059E-1,9.818349838E0
2.702876479E0,-5.425725579E-1,7.298108935E-2,9.784850121E0
2.705112808E0,-5.527420044E-1,4.965107143E-2,9.751350403E0
2.707350051E0,-5.569294691E-1,8.793623000E-2,9.775279045E0
2.709586806E0,-5.617151260E-1,1.214357466E-1,9.813564301E0
2.711821121E0,-5.228317380E-1,1.112662554E-1,9.789635658E0
2.714046403E0,-5.425725579E-1,9.212367237E-2,9.780064583E0
2.716284439E0,-5.569294691E-1,9.272187948E-2,9.775279045E0
2.718521988E0,-5.090730190E-1,7.238288224E-2,9.790233612E0
2.720774003E0,-5.425725579E-1,8.255238086E-2,9.789635658E0
2.723010331E0,-5.473581553E-1,9.272187948E-2,9.756135941E0
2.725247453E0,-5.473581553E-1,1.016949639E-1,9.780064583E0
2.727481218E0,-5.042873621E-1,1.010967568E-1,9.790233612E0
2.729718034E0,-5.282155871E-1,9.690931439E-2,9.789635658E0
2.731955401E0,-5.132604837E-1,1.160518974E-1,9.785448074E0
2.734193682E0,-5.276173949E-1,1.160518974E-1,9.765707016E0
2.736428545E0,-5.084748268E-1,9.690931439E-2,9.761520386E0
2.738665301E0,-5.425725579E-1,1.064806059E-1,9.780064583E0
2.740901385E0,-5.617151260E-1,9.272187948E-2,9.760921478E0
2.743138690E0,-5.473581553E-1,7.298108935E-2,9.775279045E0
2.745375507E0,-5.617151260E-1,7.836493850E-2,9.789635658E0
2.747612384E0,-5.473581553E-1,8.733802289E-2,9.803992271E0
2.749849750E0,-5.521438122E-1,1.016949639E-1,9.799206734E0
2.752088215E0,-5.228317380E-1,1.304088384E-1,9.775279045E0
2.754322834E0,-5.228317380E-1,1.160518974E-1,9.784850121E0
2.756556538E0,-5.611169338E-1,1.262213886E-1,9.780064583E0
2.758783467E0,-5.413761139E-1,1.262213886E-1,9.727422714E0
2.761033284E0,-5.186443329E-1,9.212367237E-2,9.756733894E0
2.763270040E0,-5.569294691E-1,1.022931710E-1,9.784850121E0
2.765509725E0,-5.665007830E-1,8.793623000E-2,9.780064583E0
2.767743917E0,-5.659025311E-1,1.118644550E-1,9.780064583E0
2.769982137E0,-5.138586760E-1,9.690931439E-2,9.775876999E0
2.772216879E0,-5.042873621E-1,1.106680483E-1,9.795019150E0
2.774453879E0,-5.467599630E-1,1.543370634E-1,9.808777809E0
2.776687033E0,-5.324030519E-1,1.351944804E-1,9.808777809E0
2.778915671E0,-5.521438122E-1,9.750752151E-2,9.770493507E0
2.781164328E0,-5.419743061E-1,1.112662554E-1,9.780064583E0
2.783400962E0,-5.419743061E-1,1.351944804E-1,9.789635658E0
2.785641197E0,-5.617151260E-1,1.208375469E-1,9.827920914E0
2.787876487E0,-5.132604837E-1,1.351944804E-1,9.766305923E0
2.790111412E0,-5.371887088E-1,1.591227055E-1,9.803992271E0
2.792348229E0,-5.084748268E-1,1.537388563E-1,9.794421196E0
2.794584496E0,-4.839483798E-1,1.680957973E-1,9.785448074E0
2.796821557E0,-5.276173949E-1,1.495514214E-1,9.784850121E0
2.799058373E0,-5.461617708E-1,1.543370634E-1,9.784850121E0
2.801295190E0,-5.371887088E-1,1.399801224E-1,9.789635658E0
2.803532556E0,-5.234299302E-1,1.160518974E-1,9.808777809E0
2.805770776E0,-5.180460811E-1,1.441675574E-1,9.818349838E0
2.808002405E0,-5.419743061E-1,1.256231815E-1,9.808777809E0
2.810230310E0,-5.515456200E-1,1.639083475E-1,9.808777809E0
2.812478786E0,-5.706881881E-1,1.262213886E-1,9.760921478E0
2.814715968E0,-5.742774606E-1,1.788634956E-1,9.751350403E0
2.816955958E0,-5.461617708E-1,1.686939895E-1,9.780064583E0
2.819189479E0,-5.078766346E-1,1.585244983E-1,9.771091461E0
2.821426844E0,-5.365904570E-1,1.543370634E-1,9.789635658E0
2.823665005E0,-5.467599630E-1,1.112662554E-1,9.775279045E0
2.825899746E0,-5.563312769E-1,1.214357466E-1,9.784850121E0
2.828136806E0,-5.132604837E-1,1.298106313E-1,9.808777809E0
2.830373135E0,-5.132604837E-1,1.393819153E-1,9.827920914E0
2.832610501E0,-5.276173949E-1,1.633101404E-1,9.827920914E0
2.834847135E0,-5.419743061E-1,1.782652885E-1,9.837491989E0
2.837083524E0,-5.605186820E-1,1.782652885E-1,9.823135376E0
2.839321072E0,-5.318048596E-1,1.782652885E-1,9.789635658E0
2.841559354E0,-5.413761139E-1,1.639083475E-1,9.775279045E0
2.843794279E0,-5.509474277E-1,1.405783296E-1,9.760921478E0
2.846030851E0,-5.228317380E-1,1.208375469E-1,9.742377281E0
2.848267363E0,-5.509474277E-1,1.645065546E-1,9.736993790E0
2.850504423E0,-5.557330847E-1,1.788634956E-1,9.784850121E0
2.852741301E0,-5.174478889E-1,1.686939895E-1,9.775279045E0
2.854978057E0,-5.413761139E-1,1.830509305E-1,9.780064583E0
2.857215483E0,-5.455635786E-1,1.974078715E-1,9.775279045E0
2.859453948E0,-5.700899959E-1,1.692921966E-1,9.780064583E0
2.861688567E0,-5.796613097E-1,1.740778536E-1,9.774680138E0
2.863925324E0,-5.365904570E-1,1.734796464E-1,9.780064583E0
2.866161347E0,-5.509474277E-1,1.543370634E-1,9.784850121E0
2.868398773E0,-5.222335458E-1,1.686939895E-1,9.765707016E0
2.870635773E0,-5.270192027E-1,1.686939895E-1,9.775279045E0
2.872872407E0,-5.126622319E-1,1.920240223E-1,9.803992271E0
2.875109711E0,-5.413761139E-1,1.782652885E-1,9.808777809E0
2.877347932E0,-5.120640397E-1,2.015953064E-1,9.770493507E0
2.879582856E0,-5.365904570E-1,1.878365725E-1,9.784850121E0
2.881819674E0,-5.461617708E-1,1.782652885E-1,9.799206734E0
2.884055941E0,-5.796613097E-1,1.597209126E-1,9.779465675E0
2.886293062E0,-5.461617708E-1,1.543370634E-1,9.770493507E0
2.888530062E0,-5.461617708E-1,1.543370634E-1,9.784850121E0
2.890766634E0,-5.270192027E-1,1.782652885E-1,9.780064583E0
2.893004490E0,-4.935196638E-1,1.728814393E-1,9.761520386E0
2.895244113E0,-5.024927258E-1,2.111666054E-1,9.766305923E0
2.897476901E0,-4.971089065E-1,2.350948304E-1,9.775876999E0
2.899713962E0,-4.881358147E-1,1.968096644E-1,9.766305923E0
2.901949741E0,-5.359922647E-1,2.117647976E-1,9.760921478E0
2.904187351E0,-5.413761139E-1,1.639083475E-1,9.765707016E0
2.906424046E0,-5.599204898E-1,1.836491376E-1,9.741779327E0
2.908660740E0,-5.647061467E-1,1.788634956E-1,9.756135941E0
2.910898594E0,-5.742774606E-1,1.932204217E-1,9.756135941E0
2.913136815E0,-5.168496966E-1,2.069791555E-1,9.775279045E0
2.915371495E0,-5.078766346E-1,1.920240223E-1,9.813564301E0
2.917608190E0,-4.983053207E-1,1.872383654E-1,9.803992271E0
2.919844457E0,-5.365904570E-1,1.830509305E-1,9.808777809E0
2.922081580E0,-5.407779217E-1,2.021935135E-1,9.784850121E0
2.924318396E0,-5.850451589E-1,1.740778536E-1,9.832108498E0
2.926552160E0,-5.994020700E-1,1.788634956E-1,9.836894035E0
2.928780371E0,-5.844469070E-1,1.836491376E-1,9.832108498E0
2.931030798E0,-6.131607890E-1,1.794617027E-1,9.812965393E0
2.933260779E0,-5.742774606E-1,2.027917206E-1,9.784252167E0
2.935486732E0,-5.551348329E-1,2.219343036E-1,9.770493507E0
2.937738563E0,-5.162515044E-1,2.117647976E-1,9.704092026E0
2.939975990E0,-5.012963414E-1,2.165504545E-1,9.670592308E0
2.942217629E0,-4.444667995E-1,1.824527234E-1,9.647262573E0
2.944449562E0,-4.259224236E-1,1.483550072E-1,9.680762291E0
2.946683938E0,-4.408775866E-1,1.387837082E-1,9.719047546E0
2.948913430E0,-5.078766346E-1,1.495514214E-1,9.751948357E0
2.951160256E0,-4.887340367E-1,1.914258152E-1,9.827920914E0
2.953396829E0,-5.515456200E-1,1.830509305E-1,9.841679573E0
2.955636025E0,-5.850451589E-1,1.788634956E-1,9.832108498E0
2.957870157E0,-6.329016089E-1,1.842473447E-1,9.841081619E0
2.960107217E0,-6.233302951E-1,1.651047617E-1,9.831509590E0
2.962343852E0,-5.934200287E-1,1.986042857E-1,9.779465675E0
2.964581461E0,-5.599204898E-1,1.788634956E-1,9.693922997E0
2.966819621E0,-5.114658475E-1,1.878365725E-1,9.699306488E0
2.969054301E0,-4.923232496E-1,1.591227055E-1,9.642477036E0
2.971292399E0,-4.833501875E-1,1.447657645E-1,9.666405678E0
2.973529400E0,-4.881358147E-1,1.543370634E-1,9.704092026E0
2.975751262E0,-4.743770957E-1,1.250249892E-1,9.737591743E0
2.978001323E0,-5.036891699E-1,1.345962733E-1,9.790233612E0
2.980236980E0,-5.180460811E-1,1.585244983E-1,9.837491989E0
2.982478802E0,-5.850451589E-1,1.645065546E-1,9.841679573E0
2.984713971E0,-6.329016089E-1,1.794617027E-1,9.855438232E0
2.986948468E0,-6.376872063E-1,1.794617027E-1,9.845867157E0
2.989185162E0,-6.323033571E-1,1.848455518E-1,9.765109062E0
2.991421674E0,-5.940182209E-1,1.555334777E-1,9.736993790E0
2.993659040E0,-5.455635786E-1,1.740778536E-1,9.713065147E0
2.995895856E0,-5.407779217E-1,1.692921966E-1,9.699306488E0
2.998132429E0,-5.407779217E-1,1.549352705E-1,9.704092026E0
3.000369916E0,-5.509474277E-1,1.501496136E-1,9.732208252E0
3.002607955E0,-5.509474277E-1,1.453639716E-1,9.732208252E0
3.004842879E0,-5.264210105E-1,1.830509305E-1,9.760921478E0
3.007079573E0,-5.024927258E-1,1.872383654E-1,9.780662537E0
3.009315719E0,-4.887340367E-1,1.680957973E-1,9.761520386E0
3.011553084E0,-4.552344978E-1,1.627119333E-1,9.804591179E0
3.013790085E0,-4.408775866E-1,1.722832322E-1,9.790832520E0
3.016026718E0,-4.504488707E-1,1.770688742E-1,9.818947792E0
3.018264022E0,-4.600201547E-1,1.722832322E-1,9.823733330E0
3.020502243E0,-4.833501875E-1,1.824527234E-1,9.771091461E0
3.022737168E0,-5.503492355E-1,2.117647976E-1,9.794421196E0
3.024973923E0,-5.940182209E-1,1.746760458E-1,9.769894600E0
3.027210008E0,-6.604190469E-1,1.992024779E-1,9.745368004E0
3.029444321E0,-7.088736892E-1,1.764706671E-1,9.750154495E0
3.031672166E0,-6.508477330E-1,1.944168359E-1,9.726823807E0
3.033921068E0,-5.838487148E-1,1.842473447E-1,9.713065147E0
3.036158617E0,-4.785645306E-1,1.776670814E-1,9.718449593E0
3.038399828E0,-4.307080805E-1,1.866401732E-1,9.742975235E0
3.040631395E0,-4.115654826E-1,1.860419661E-1,9.747760773E0
3.042867968E0,-3.349951804E-1,1.800599098E-1,9.767501831E0
3.045104480E0,-3.690928817E-1,1.806581169E-1,9.814760208E0
3.047341601E0,-4.408775866E-1,1.860419661E-1,9.809376717E0
3.049575549E0,-5.318048596E-1,1.734796464E-1,9.784850121E0
3.051803516E0,-6.089733839E-1,1.459621787E-1,9.769894600E0
3.054052600E0,-6.179464459E-1,1.369891018E-1,9.726823807E0
3.056290882E0,-6.610172391E-1,1.328016520E-1,9.707681656E0
3.058528675E0,-6.083751321E-1,1.603191197E-1,9.722038269E0
3.060759632E0,-5.892325640E-1,1.555334777E-1,9.732208252E0
3.062984120E0,-5.796613097E-1,1.603191197E-1,9.722636223E0
3.065223988E0,-5.509474277E-1,1.310070455E-1,9.736993790E0
3.067472951E0,-5.174478889E-1,1.399801224E-1,9.737591743E0
3.069712453E0,-5.132604837E-1,1.064806059E-1,9.728020668E0
3.071949942E0,-5.222335458E-1,1.351944804E-1,9.737591743E0
3.074185354E0,-5.515456200E-1,1.022931710E-1,9.751350403E0
3.076420034E0,-5.605186820E-1,1.357926875E-1,9.732208252E0
3.078656851E0,-5.706881881E-1,9.750752151E-2,9.746564865E0
3.080893057E0,-5.563312769E-1,1.022931710E-1,9.741779327E0
3.083130179E0,-5.467599630E-1,1.070788130E-1,9.722636223E0
3.085366996E0,-5.371887088E-1,1.118644550E-1,9.736993790E0
3.087603751E0,-5.324030519E-1,1.160518974E-1,9.732806206E0
3.089840995E0,-5.659025311E-1,9.750752151E-2,9.717850685E0
3.092079704E0,-5.371887088E-1,8.793623000E-2,9.718449593E0
3.094314324E0,-5.330012441E-1,7.776673883E-2,9.770493507E0
3.096548637E0,-5.138586760E-1,8.255238086E-2,9.771091461E0
3.098777092E0,-5.665007830E-1,7.357929647E-2,9.780064583E0
3.101024529E0,-5.521438122E-1,8.793623000E-2,9.746564865E0
3.103261529E0,-5.330012441E-1,8.733802289E-2,9.756135941E0
3.105500665E0,-4.995017350E-1,8.195417374E-2,9.771091461E0
3.107735528E0,-4.755735099E-1,8.195417374E-2,9.761520386E0
3.109973931E0,-4.468596280E-1,6.699903309E-2,9.771689415E0
3.112208613E0,-4.277170599E-1,7.118647546E-2,9.771689415E0
3.114442499E0,-4.325026870E-1,6.221338734E-2,9.757332802E0
3.116667048E0,-4.851447940E-1,7.716853172E-2,9.780662537E0
3.118907343E0,-5.425725579E-1,7.776673883E-2,9.765707016E0
3.121152826E0,-5.808576941E-1,8.315058798E-2,9.770493507E0
3.123383358E0,-6.239284873E-1,6.999006122E-2,9.760323524E0
3.125632686E0,-6.574280262E-1,6.580262631E-2,9.750752449E0
3.127868221E0,-6.430711150E-1,4.666004330E-2,9.707681656E0
3.130105892E0,-6.041877270E-1,7.896314561E-2,9.708279610E0
3.132339718E0,-5.377869010E-1,5.383851007E-2,9.756733894E0
3.134575925E0,-4.995017350E-1,5.324030295E-2,9.756733894E0
3.136813595E0,-4.654040039E-1,8.673982322E-2,9.742975235E0
3.139049068E0,-4.612165689E-1,8.614161611E-2,9.771689415E0
3.141271725E0,-4.468596280E-1,6.221338734E-2,9.757332802E0
3.143512143E0,-4.755735099E-1,6.281159073E-2,9.766305923E0
3.145762022E0,-5.330012441E-1,7.776673883E-2,9.756135941E0
3.147997190E0,-5.670989752E-1,5.443671346E-2,9.760921478E0
3.150225034E0,-5.473581553E-1,6.879365444E-2,9.756135941E0
3.152470275E0,-5.330012441E-1,8.733802289E-2,9.747162819E0
3.154707640E0,-5.377869010E-1,8.255238086E-2,9.756135941E0
3.156947386E0,-5.377869010E-1,8.255238086E-2,9.751350403E0
3.159181029E0,-5.138586760E-1,7.298108935E-2,9.761520386E0
3.161418516E0,-4.995017350E-1,6.281159073E-2,9.771091461E0
3.163656494E0,-5.042873621E-1,6.340979785E-2,9.747162819E0
3.165891235E0,-5.282155871E-1,6.340979785E-2,9.742377281E0
3.168128234E0,-5.090730190E-1,9.212367237E-2,9.756733894E0
3.170364624E0,-5.330012441E-1,8.733802289E-2,9.761520386E0
3.172601990E0,-5.419743061E-1,1.016949639E-1,9.760921478E0
3.174838685E0,-5.856433511E-1,9.332008660E-2,9.760921478E0
3.177075318E0,-5.659025311E-1,1.022931710E-1,9.746564865E0
3.179312866E0,-5.563312769E-1,1.118644550E-1,9.765707016E0
3.181548096E0,-5.324030519E-1,1.016949639E-1,9.751948357E0
3.183770753E0,-5.228317380E-1,9.690931439E-2,9.751948357E0
3.186010255E0,-5.377869010E-1,8.255238086E-2,9.760921478E0
3.188258608E0,-5.419743061E-1,1.112662554E-1,9.780064583E0
3.190499147E0,-5.330012441E-1,1.064806059E-1,9.794421196E0
3.192735782E0,-5.282155871E-1,1.064806059E-1,9.780064583E0
3.194969668E0,-5.569294691E-1,1.070788130E-1,9.784850121E0
3.197207217E0,-6.041877270E-1,1.124626622E-1,9.774680138E0
3.199445742E0,-5.850451589E-1,1.405783296E-1,9.765707016E0
3.201680300E0,-5.324030519E-1,1.160518974E-1,9.775279045E0
3.203916813E0,-4.791627228E-1,1.441675574E-1,9.756733894E0
3.206153019E0,-4.313062727E-1,1.387837082E-1,9.766903877E0
3.208390201E0,-4.743770957E-1,1.531406492E-1,9.795019150E0
3.210624393E0,-5.084748268E-1,1.441675574E-1,9.795019150E0
3.212849430E0,-5.228317380E-1,1.208375469E-1,9.775279045E0
3.215089604E0,-5.425725579E-1,1.016949639E-1,9.775279045E0
3.217339909E0,-5.952146053E-1,1.166501045E-1,9.803394318E0
3.219577214E0,-5.754738450E-1,1.262213886E-1,9.756135941E0
3.221814093E0,-5.419743061E-1,1.256231815E-1,9.760921478E0
3.224047308E0,-5.270192027E-1,1.351944804E-1,9.742377281E0
3.226281072E0,-5.072783828E-1,1.734796464E-1,9.747162819E0
3.228506231E0,-4.833501875E-1,1.680957973E-1,9.737591743E0
3.230752508E0,-4.642075896E-1,1.776670814E-1,9.732806206E0
3.232995551E0,-4.552344978E-1,1.770688742E-1,9.766305923E0
3.235237494E0,-4.791627228E-1,1.585244983E-1,9.785448074E0
3.237470344E0,-4.935196638E-1,1.537388563E-1,9.771091461E0
3.239705695E0,-5.036891699E-1,1.489532143E-1,9.803992271E0
3.241941658E0,-4.839483798E-1,1.818545163E-1,9.823733330E0
3.244178779E0,-5.318048596E-1,1.782652885E-1,9.794421196E0
3.246415779E0,-5.659025311E-1,1.692921966E-1,9.812965393E0
3.248652473E0,-5.844469070E-1,1.788634956E-1,9.793823242E0
3.250890083E0,-5.790630579E-1,1.932204217E-1,9.774680138E0
3.253128304E0,-5.653043389E-1,1.740778536E-1,9.784850121E0
3.255363168E0,-5.413761139E-1,1.639083475E-1,9.780064583E0
3.257599679E0,-5.503492355E-1,1.932204217E-1,9.751350403E0
3.259835946E0,-5.455635786E-1,1.974078715E-1,9.756135941E0
3.262073069E0,-5.503492355E-1,1.974078715E-1,9.770493507E0
3.264310129E0,-5.264210105E-1,2.069791555E-1,9.765707016E0
3.266545053E0,-5.359922647E-1,2.021935135E-1,9.780064583E0
3.268777536E0,-5.168496966E-1,2.111666054E-1,9.799206734E0
3.271022592E0,-5.024927258E-1,1.920240223E-1,9.775876999E0
3.273257518E0,-5.318048596E-1,1.830509305E-1,9.789635658E0
3.275495921E0,-5.174478889E-1,1.824527234E-1,9.799206734E0
3.277730296E0,-4.881358147E-1,2.015953064E-1,9.799804688E0
3.279967601E0,-4.977070987E-1,2.159522474E-1,9.790233612E0
3.282204357E0,-5.120640397E-1,2.159522474E-1,9.784850121E0
3.284440991E0,-5.359922647E-1,2.261217386E-1,9.784850121E0
3.286675366E0,-5.353940725E-1,2.356930375E-1,9.775279045E0
3.288904858E0,-5.306084156E-1,2.356930375E-1,9.775279045E0
3.291151501E0,-5.216353536E-1,2.261217386E-1,9.794421196E0
3.293388318E0,-4.881358147E-1,2.207378894E-1,9.775876999E0
3.295627576E0,-4.636093974E-1,2.297109663E-1,9.771091461E0
3.297861951E0,-4.492524564E-1,2.344966233E-1,9.790233612E0
3.300098706E0,-4.731806815E-1,2.398804724E-1,9.766305923E0
3.302335341E0,-4.827519655E-1,2.350948304E-1,9.775876999E0
3.304572889E0,-5.066801906E-1,2.542374134E-1,9.803992271E0
3.306809279E0,-5.353940725E-1,2.356930375E-1,9.784850121E0
3.309038405E0,-5.401797295E-1,2.404786795E-1,9.780064583E0
3.311282301E0,-5.545366406E-1,2.500499785E-1,9.789635658E0
3.313518875E0,-5.641079545E-1,2.554338276E-1,9.774680138E0
3.315758071E0,-5.497509837E-1,2.548356056E-1,9.780064583E0
3.317993117E0,-5.641079545E-1,2.602194548E-1,9.789037704E0
3.320229873E0,-5.449653864E-1,2.596212626E-1,9.784850121E0
3.322467178E0,-5.497509837E-1,2.644068897E-1,9.798608780E0
3.324705399E0,-5.395814776E-1,2.787638307E-1,9.784850121E0
3.326939957E0,-5.306084156E-1,2.739782035E-1,9.784850121E0
3.329176651E0,-5.252245665E-1,2.931207716E-1,9.765707016E0
3.331413468E0,-5.401797295E-1,2.787638307E-1,9.789635658E0
3.333650773E0,-5.593222976E-1,2.691925466E-1,9.798608780E0
3.335887346E0,-5.635097623E-1,2.985046208E-1,9.784252167E0
3.338123857E0,-5.060819983E-1,3.116651475E-1,9.789635658E0
3.340361405E0,-4.869394004E-1,3.014956415E-1,9.803992271E0
3.342599749E0,-4.821537733E-1,3.014956415E-1,9.808777809E0
3.344834612E0,-4.815555513E-1,3.206382394E-1,9.789635658E0
3.347071123E0,-4.959124923E-1,3.116651475E-1,9.760921478E0
3.349307391E0,-4.911268353E-1,3.116651475E-1,9.765707016E0
3.351544512E0,-5.156532526E-1,3.212364316E-1,9.799206734E0
3.353781696E0,-5.443671346E-1,3.218346536E-1,9.803394318E0
3.356018695E0,-5.485545993E-1,3.266202807E-1,9.770493507E0
3.358255816E0,-5.587241054E-1,3.218346536E-1,9.803394318E0
3.360494037E0,-5.587241054E-1,3.314059377E-1,9.827322960E0
3.362728779E0,-5.533402562E-1,3.601198196E-1,9.812965393E0
3.364965413E0,-5.389832854E-1,3.553341627E-1,9.817750931E0
3.367201680E0,-5.389832854E-1,3.553341627E-1,9.812965393E0
3.369435749E0,-5.006981492E-1,3.355933726E-1,9.813564301E0
3.371663655E0,-4.767699242E-1,3.445664644E-1,9.803992271E0
3.373912496E0,-4.863412082E-1,3.445664644E-1,9.823135376E0
3.376147116E0,-4.671986103E-1,3.637090325E-1,9.803992271E0
3.378376790E0,-4.624129832E-1,3.493520916E-1,9.804591179E0
3.380612630E0,-4.528416991E-1,3.397808075E-1,9.809376717E0
3.382859519E0,-4.719842672E-1,3.541377485E-1,9.808777809E0
3.385099264E0,-5.048855543E-1,3.547359705E-1,9.780064583E0
3.387335959E0,-4.905286431E-1,3.643072546E-1,9.789635658E0
3.389567282E0,-5.150550604E-1,3.595215976E-1,9.808777809E0
3.391795005E0,-5.395814776E-1,3.266202807E-1,9.808179855E0
3.394044334E0,-5.389832854E-1,3.361915946E-1,9.812965393E0
3.396282615E0,-5.144568682E-1,3.930211067E-1,9.813564301E0
3.398520470E0,-5.431707501E-1,3.936193287E-1,9.808179855E0
3.400754234E0,-5.198407173E-1,3.547359705E-1,9.836894035E0
3.402990258E0,-5.808576941E-1,4.085744619E-1,9.769894600E0
3.405227379E0,-5.682953596E-1,3.032902777E-1,9.760323524E0
3.407464440E0,-5.479564071E-1,3.744767308E-1,9.746564865E0
3.409701317E0,-4.654040039E-1,3.978067636E-1,9.641879082E0
3.411938684E0,-4.127618968E-1,3.780659735E-1,9.675976753E0
3.414176904E0,-3.750749528E-1,3.768695593E-1,9.733404160E0
3.416408777E0,-4.043870270E-1,3.678964674E-1,9.757332802E0
3.418636560E0,-4.719842672E-1,3.445664644E-1,9.813564301E0
3.420884607E0,-5.479564071E-1,3.888336718E-1,9.798608780E0
3.423121913E0,-5.335994363E-1,3.744767308E-1,9.780064583E0
3.425361720E0,-5.676971674E-1,3.840480447E-1,9.841679573E0
3.427595668E0,-6.490531564E-1,3.571287692E-1,9.783653259E0
3.429833216E0,-6.299105883E-1,3.661018610E-1,9.788438797E0
3.432071438E0,-5.868397355E-1,3.750749528E-1,9.841081619E0
3.434305996E0,-5.772684813E-1,3.702892959E-1,9.822537422E0
3.436542080E0,-6.149554253E-1,4.187439680E-1,9.807581902E0
3.438777126E0,-6.430711150E-1,4.289134443E-1,9.754940033E0
3.441016262E0,-6.532405615E-1,3.810569942E-1,9.778867722E0
3.443253262E0,-5.718846321E-1,3.894318938E-1,9.789037704E0
3.445490078E0,-5.096712112E-1,3.834498227E-1,9.760921478E0
3.447727200E0,-4.468596280E-1,4.019941986E-1,9.771091461E0
3.449965421E0,-3.846462369E-1,4.007977843E-1,9.742975235E0
3.452200407E0,-3.798605800E-1,3.912265003E-1,9.766903877E0
3.454436002E0,-4.235295951E-1,3.535395563E-1,9.766305923E0
3.456665800E0,-4.857429862E-1,3.643072546E-1,9.775279045E0
3.458898527E0,-4.761717021E-1,3.876372576E-1,9.794421196E0
3.461147306E0,-4.857429862E-1,3.924229145E-1,9.832706451E0
3.463385284E0,-5.144568682E-1,4.025924206E-1,9.803992271E0
3.465624480E0,-5.670989752E-1,4.079762697E-1,9.798608780E0
3.467859771E0,-5.479564071E-1,4.031906128E-1,9.817750931E0
3.470094634E0,-5.569294691E-1,4.181457460E-1,9.736394882E0
3.472331512E0,-5.282155871E-1,4.127618968E-1,9.756135941E0
3.474567963E0,-4.516452849E-1,3.828516304E-1,9.699306488E0
3.476804840E0,-4.516452849E-1,3.876372576E-1,9.723235130E0
3.479041840E0,-4.283152521E-1,3.774677813E-1,9.766305923E0
3.481278412E0,-4.372883439E-1,4.109672904E-1,9.761520386E0
3.483516022E0,-4.229314029E-1,4.013960063E-1,9.799804688E0
3.485753999E0,-4.666004181E-1,3.924229145E-1,9.832706451E0
3.487988923E0,-4.761717021E-1,3.828516304E-1,9.827920914E0
3.490225678E0,-5.623133183E-1,3.936193287E-1,9.812965393E0
3.492462008E0,-5.623133183E-1,3.744767308E-1,9.784252167E0
3.494699129E0,-6.143572330E-1,4.139583111E-1,9.764511108E0
3.496936190E0,-5.521438122E-1,3.894318938E-1,9.727422714E0
3.499172945E0,-6.000002623E-1,3.900300860E-1,9.726823807E0
3.501410127E0,-5.712863803E-1,3.894318938E-1,9.712467194E0
3.503648471E0,-5.425725579E-1,3.942175210E-1,9.708279610E0
3.505882907E0,-5.377869010E-1,3.744767308E-1,9.727422714E0
3.508120029E0,-5.425725579E-1,3.888336718E-1,9.760323524E0
3.510356296E0,-5.383850932E-1,3.744767308E-1,9.746564865E0
3.512593723E0,-5.144568682E-1,3.696911037E-1,9.736993790E0
3.514830418E0,-4.899304509E-1,4.121637046E-1,9.741779327E0
3.517067051E0,-4.271188378E-1,4.157529473E-1,9.732806206E0
3.519304600E0,-4.366901219E-1,4.354937077E-1,9.737591743E0
3.521542820E0,-4.516452849E-1,4.115654826E-1,9.742377281E0
3.523777501E0,-4.660021961E-1,3.828516304E-1,9.751948357E0
3.526014257E0,-4.965106845E-1,3.068794906E-1,9.803992271E0
3.528250524E0,-5.377869010E-1,4.414757788E-1,9.784252167E0
3.530487706E0,-5.102694035E-1,3.595215976E-1,9.794421196E0
3.532724707E0,-5.808576941E-1,4.319044948E-1,9.831509590E0
3.534961340E0,-5.808576941E-1,3.846462369E-1,9.731609344E0
3.537199011E0,-6.334998012E-1,4.091726840E-1,9.750154495E0
3.539437353E0,-5.575276613E-1,3.750749528E-1,9.736394882E0
3.541669958E0,-5.611169338E-1,4.037888348E-1,9.693324089E0
3.543898231E0,-4.277170599E-1,3.870390654E-1,9.732806206E0
3.546132789E0,-4.229314029E-1,3.966103494E-1,9.780662537E0
3.548381995E0,-3.852444589E-1,3.529413342E-1,9.762118340E0
3.550620826E0,-3.613162339E-1,3.858426511E-1,9.814760208E0
3.552858620E0,-4.133601189E-1,4.013960063E-1,9.771091461E0
3.555093239E0,-4.803591371E-1,4.019941986E-1,9.770493507E0
3.557331459E0,-5.521438122E-1,4.031906128E-1,9.765109062E0
3.559566323E0,-5.952146053E-1,3.900300860E-1,9.678967476E0
3.561802835E0,-6.191428304E-1,3.906283081E-1,9.698110580E0
3.564039163E0,-5.521438122E-1,3.846462369E-1,9.698708534E0
3.566276468E0,-5.282155871E-1,3.744767308E-1,9.703494072E0
3.568513284E0,-4.947160780E-1,3.786641955E-1,9.741779327E0
3.570749856E0,-5.042873621E-1,3.834498227E-1,9.736993790E0
3.572987223E0,-4.707878530E-1,4.067798555E-1,9.751948357E0
3.575225687E0,-4.707878530E-1,3.972085714E-1,9.784850121E0
3.577460368E0,-4.516452849E-1,3.780659735E-1,9.747162819E0
3.579697245E0,-4.707878530E-1,3.738785386E-1,9.737591743E0
3.581930950E0,-4.606183469E-1,3.978067636E-1,9.699306488E0
3.584159832E0,-4.516452849E-1,3.732803464E-1,9.713663101E0
3.586407573E0,-4.660021961E-1,3.690928817E-1,9.728020668E0
3.588644146E0,-4.995017350E-1,3.978067636E-1,9.717850685E0
3.590884502E0,-4.905286431E-1,3.690928817E-1,9.737591743E0
3.593120038E0,-5.288137794E-1,3.601198196E-1,9.751350403E0
3.595354962E0,-5.192425251E-1,3.744767308E-1,9.741779327E0
3.597591656E0,-5.521438122E-1,4.127618968E-1,9.750752449E0
3.599827741E0,-5.425725579E-1,4.127618968E-1,9.751350403E0
3.602065046E0,-5.521438122E-1,3.990031779E-1,9.745966911E0
3.604301801E0,-5.575276613E-1,3.511467278E-1,9.708279610E0
3.606538984E0,-5.629115105E-1,3.176472187E-1,9.732208252E0
3.608777997E0,-5.850451589E-1,4.516452849E-1,9.722038269E0
3.611014326E0,-4.719842672E-1,3.445664644E-1,9.771091461E0
3.613246321E0,-4.893322289E-1,4.600201547E-1,9.760921478E0
3.615471114E0,-4.516452849E-1,3.684946895E-1,9.713663101E0
3.617711532E0,-4.462614357E-1,4.450650215E-1,9.756733894E0
3.619959334E0,-4.091726840E-1,3.631108403E-1,9.733404160E0
3.622196090E0,-4.606183469E-1,4.211367965E-1,9.737591743E0
3.624423629E0,-4.325026870E-1,3.924229145E-1,9.732806206E0
3.626667160E0,-5.036891699E-1,4.217349887E-1,9.736993790E0
3.628896896E0,-4.941178858E-1,4.127618968E-1,9.684949875E0
3.631146408E0,-5.706881881E-1,4.229314029E-1,9.736394882E0
3.633380051E0,-5.324030519E-1,4.079762697E-1,9.689137459E0
3.635619248E0,-5.090730190E-1,4.121637046E-1,9.736993790E0
3.637853623E0,-4.947160780E-1,4.025924206E-1,9.756135941E0
3.640090440E0,-5.330012441E-1,4.127618968E-1,9.741779327E0
3.642327135E0,-5.659025311E-1,4.325026870E-1,9.741181374E0
3.644564867E0,-5.186443329E-1,4.127618968E-1,9.732208252E0
3.646802904E0,-5.563312769E-1,4.133601189E-1,9.717252731E0
3.649037767E0,-5.228317380E-1,4.366901219E-1,9.741779327E0
3.651274278E0,-5.090730190E-1,4.217349887E-1,9.756135941E0
3.653510852E0,-4.797609448E-1,4.360919297E-1,9.713065147E0
3.655747912E0,-4.648058116E-1,4.546363056E-1,9.723235130E0
3.657984851E0,-4.654040039E-1,4.307080805E-1,9.742377281E0
3.660221789E0,-5.132604837E-1,4.313062727E-1,9.741779327E0
3.662458972E0,-4.558327198E-1,4.307080805E-1,9.723235130E0
3.664694385E0,-4.462614357E-1,4.354937077E-1,9.747162819E0
3.666919727E0,-4.468596280E-1,3.972085714E-1,9.761520386E0
3.669168629E0,-4.845465720E-1,4.313062727E-1,9.727422714E0
3.671405079E0,-4.749752879E-1,4.169493318E-1,9.741779327E0
3.673645253E0,-5.036891699E-1,4.552344978E-1,9.751350403E0
3.675879079E0,-4.983053207E-1,4.504488707E-1,9.698708534E0
3.678115834E0,-4.887340367E-1,4.504488707E-1,9.722636223E0
3.680353200E0,-5.084748268E-1,4.414757788E-1,9.722636223E0
3.682591482E0,-5.276173949E-1,4.319044948E-1,9.717850685E0
3.684826345E0,-5.222335458E-1,4.510470629E-1,9.717850685E0
3.687063101E0,-4.893322289E-1,4.217349887E-1,9.732208252E0
3.689299185E0,-4.654040039E-1,4.450650215E-1,9.732806206E0
3.691536489E0,-4.462614357E-1,4.163511395E-1,9.718449593E0
3.693773307E0,-4.893322289E-1,4.265206456E-1,9.704092026E0
3.696010184E0,-4.941178858E-1,4.217349887E-1,9.722636223E0
3.698247550E0,-5.270192027E-1,4.414757788E-1,9.708279610E0
3.700486014E0,-5.324030519E-1,4.271188378E-1,9.727422714E0
3.702720574E0,-5.467599630E-1,4.366901219E-1,9.736394882E0
3.704957207E0,-5.132604837E-1,4.127618968E-1,9.684351921E0
3.707191826E0,-5.371887088E-1,4.271188378E-1,9.741779327E0
3.709422844E0,-4.707878530E-1,4.115654826E-1,9.770493507E0
3.711663079E0,-5.084748268E-1,4.414757788E-1,9.717850685E0
3.713892876E0,-4.797609448E-1,4.265206456E-1,9.694520950E0
3.716128656E0,-4.797609448E-1,4.360919297E-1,9.736993790E0
3.718368767E0,-4.839483798E-1,4.360919297E-1,9.675378799E0
3.720617303E0,-5.084748268E-1,4.223332107E-1,9.698708534E0
3.722854731E0,-5.036891699E-1,4.271188378E-1,9.698708534E0
3.725090998E0,-5.180460811E-1,4.223332107E-1,9.746564865E0
3.727325007E0,-5.084748268E-1,4.217349887E-1,9.736993790E0
3.729558893E0,-4.701896608E-1,4.354937077E-1,9.747162819E0
3.731786739E0,-4.366901219E-1,4.205385745E-1,9.756733894E0
3.734036128E0,-4.420739710E-1,4.163511395E-1,9.756733894E0
3.736274593E0,-4.558327198E-1,4.354937077E-1,9.756733894E0
3.738512203E0,-4.654040039E-1,4.217349887E-1,9.718449593E0
3.740746028E0,-5.084748268E-1,4.265206456E-1,9.741779327E0
3.742982236E0,-5.132604837E-1,4.360919297E-1,9.746564865E0
3.745219418E0,-5.521438122E-1,4.175475538E-1,9.745966911E0
3.747456417E0,-5.515456200E-1,4.277170599E-1,9.713065147E0
3.749693051E0,-5.180460811E-1,4.175475538E-1,9.722636223E0
3.751930661E0,-4.797609448E-1,4.265206456E-1,9.756135941E0
3.754168821E0,-4.989035130E-1,4.313062727E-1,9.736993790E0
3.756403501E0,-4.462614357E-1,4.402793646E-1,9.756733894E0
3.758640256E0,-4.755735099E-1,4.211367965E-1,9.770493507E0
3.760876524E0,-4.654040039E-1,4.354937077E-1,9.742377281E0
3.763113646E0,-5.132604837E-1,4.366901219E-1,9.741779327E0
3.765347471E0,-4.845465720E-1,4.456632137E-1,9.746564865E0
3.767575316E0,-5.138586760E-1,4.121637046E-1,9.765707016E0
3.769824705E0,-5.222335458E-1,4.558327198E-1,9.722636223E0
3.772063232E0,-5.084748268E-1,4.360919297E-1,9.727422714E0
3.774301025E0,-5.180460811E-1,4.271188378E-1,9.736993790E0
3.776531005E0,-5.084748268E-1,4.313062727E-1,9.751350403E0
3.778756469E0,-5.132604837E-1,4.510470629E-1,9.732208252E0
3.781008178E0,-5.180460811E-1,4.462614357E-1,9.722636223E0
3.783244996E0,-5.084748268E-1,4.319044948E-1,9.717850685E0
3.785485230E0,-5.180460811E-1,4.319044948E-1,9.736993790E0
3.787719177E0,-5.276173949E-1,4.414757788E-1,9.736993790E0
3.789957398E0,-5.276173949E-1,4.462614357E-1,9.741779327E0
3.792192079E0,-5.180460811E-1,4.414757788E-1,9.736993790E0
3.794428834E0,-5.036891699E-1,4.600201547E-1,9.751350403E0
3.796662172E0,-4.941178858E-1,4.313062727E-1,9.765707016E0
3.798890626E0,-4.845465720E-1,4.456632137E-1,9.756135941E0
3.801139528E0,-4.654040039E-1,4.354937077E-1,9.751948357E0
3.803375857E0,-4.558327198E-1,4.498506486E-1,9.761520386E0
3.805613528E0,-4.223332107E-1,4.205385745E-1,9.742377281E0
3.807840884E0,-4.606183469E-1,4.211367965E-1,9.747162819E0
3.810086367E0,-4.701896608E-1,4.313062727E-1,9.699306488E0
3.812323246E0,-4.899304509E-1,3.978067636E-1,9.718449593E0
3.814562320E0,-5.222335458E-1,4.606183469E-1,9.717850685E0
3.816796756E0,-5.138586760E-1,3.792623878E-1,9.722636223E0
3.819034305E0,-5.084748268E-1,4.456632137E-1,9.736993790E0
3.821270145E0,-5.228317380E-1,4.127618968E-1,9.703494072E0
3.823507817E0,-4.893322289E-1,4.265206456E-1,9.751350403E0
3.825745854E0,-4.893322289E-1,4.169493318E-1,9.732208252E0
3.827980900E0,-4.707878530E-1,3.780659735E-1,9.747162819E0
3.830217412E0,-4.989035130E-1,4.313062727E-1,9.746564865E0
3.832453741E0,-5.090730190E-1,3.930211067E-1,9.751350403E0
3.834691107E0,-4.893322289E-1,4.313062727E-1,9.736993790E0
3.836928167E0,-4.504488707E-1,4.594219327E-1,9.728020668E0
3.839164739E0,-4.935196638E-1,4.791627228E-1,9.775279045E0
3.841402044E0,-4.749752879E-1,4.307080805E-1,9.760921478E0
3.843640204E0,-5.174478889E-1,4.558327198E-1,9.708279610E0
3.845874945E0,-4.510470629E-1,4.211367965E-1,9.689735413E0
3.848110358E0,-4.079762697E-1,4.061816335E-1,9.733404160E0
3.850341682E0,-3.936193287E-1,4.061816335E-1,9.709476471E0
3.852585396E0,-4.462614357E-1,4.259224236E-1,9.747162819E0
3.854822090E0,-5.096712112E-1,4.073780477E-1,9.803992271E0
3.857060371E0,-5.288137794E-1,4.121637046E-1,9.808179855E0
3.859296333E0,-5.862415433E-1,4.229314029E-1,9.826724052E0
3.861534614E0,-6.239284873E-1,4.331009090E-1,9.783653259E0
3.863769479E0,-5.850451589E-1,4.426721931E-1,9.707681656E0
3.866006051E0,-5.330012441E-1,4.223332107E-1,9.751350403E0
3.868242562E0,-5.276173949E-1,4.319044948E-1,9.727422714E0
3.870479623E0,-5.132604837E-1,4.175475538E-1,9.698708534E0
3.872716501E0,-4.755735099E-1,4.067798555E-1,9.751948357E0
3.874953257E0,-4.468596280E-1,3.972085714E-1,9.766305923E0
3.877190683E0,-4.995017350E-1,4.025924206E-1,9.727422714E0
3.879429148E0,-4.989035130E-1,4.169493318E-1,9.732208252E0
3.881663767E0,-4.809573591E-1,3.924229145E-1,9.775279045E0
3.883900523E0,-4.331009090E-1,3.822534084E-1,9.780662537E0
3.886136546E0,-4.618147612E-1,3.924229145E-1,9.818349838E0
3.888373973E0,-4.809573591E-1,4.019941986E-1,9.808777809E0
3.890610911E0,-5.330012441E-1,4.223332107E-1,9.798608780E0
3.892847302E0,-5.521438122E-1,4.271188378E-1,9.755537987E0
3.895084667E0,-5.473581553E-1,4.079762697E-1,9.779465675E0
3.897323132E0,-5.473581553E-1,4.175475538E-1,9.736394882E0
3.899558117E0,-4.845465720E-1,4.217349887E-1,9.751350403E0
3.901794934E0,-4.899304509E-1,3.978067636E-1,9.775279045E0
3.904031141E0,-4.755735099E-1,4.067798555E-1,9.756135941E0
3.906268201E0,-4.707878530E-1,4.115654826E-1,9.747162819E0
3.908505078E0,-4.845465720E-1,4.169493318E-1,9.736993790E0
3.910742139E0,-4.947160780E-1,4.025924206E-1,9.751350403E0
3.912979505E0,-5.036891699E-1,4.408775866E-1,9.722636223E0
3.915217726E0,-4.797609448E-1,4.265206456E-1,9.728020668E0
3.917452223E0,-4.654040039E-1,4.163511395E-1,9.742377281E0
3.919688856E0,-4.462614357E-1,4.307080805E-1,9.756733894E0
3.921925369E0,-4.749752879E-1,4.259224236E-1,9.760921478E0
3.924162490E0,-5.234299302E-1,4.319044948E-1,9.770493507E0
3.926399367E0,-5.515456200E-1,4.606183469E-1,9.784252167E0
3.928636123E0,-5.802595019E-1,4.564309120E-1,9.755537987E0
3.930872512E0,-5.754738450E-1,4.516452849E-1,9.755537987E0
3.933104874E0,-5.706881881E-1,4.468596280E-1,9.769894600E0
3.935334671E0,-5.623133183E-1,3.984049559E-1,9.779465675E0
3.937583450E0,-5.186443329E-1,4.265206456E-1,9.770493507E0
3.939820694E0,-5.186443329E-1,4.408775866E-1,9.803394318E0
3.942059831E0,-4.797609448E-1,4.689932466E-1,9.818349838E0
3.944293840E0,-4.755735099E-1,4.594219327E-1,9.842277527E0
3.946527848E0,-4.947160780E-1,4.546363056E-1,9.823135376E0
3.948757584E0,-5.042873621E-1,4.456632137E-1,9.813564301E0
3.951006303E0,-5.186443329E-1,4.552344978E-1,9.832108498E0
3.953241167E0,-4.845465720E-1,4.498506486E-1,9.784850121E0
3.955480304E0,-4.504488707E-1,4.689932466E-1,9.728020668E0
3.957714007E0,-4.558327198E-1,4.354937077E-1,9.708877563E0
3.959951311E0,-4.552344978E-1,4.552344978E-1,9.675378799E0
3.962188129E0,-4.695914388E-1,4.552344978E-1,9.694520950E0
3.964424701E0,-4.319044948E-1,4.259224236E-1,9.704092026E0
3.966659137E0,-4.558327198E-1,4.163511395E-1,9.708877563E0
3.968888812E0,-4.606183469E-1,4.402793646E-1,9.771091461E0
3.971131854E0,-4.995017350E-1,4.360919297E-1,9.780064583E0
3.973358479E0,-5.330012441E-1,4.319044948E-1,9.789037704E0
3.975610676E0,-5.521438122E-1,4.462614357E-1,9.812965393E0
3.977845417E0,-5.521438122E-1,4.701896608E-1,9.836894035E0
3.980085774E0,-5.324030519E-1,4.791627228E-1,9.841679573E0
3.982319173E0,-5.090730190E-1,4.552344978E-1,9.812965393E0
3.984556600E0,-5.180460811E-1,4.456632137E-1,9.789037704E0
3.986794576E0,-4.935196638E-1,4.648058116E-1,9.727422714E0
3.989029500E0,-4.797609448E-1,4.360919297E-1,9.704092026E0
3.991266256E0,-4.845465720E-1,4.265206456E-1,9.699306488E0
3.993502585E0,-4.749752879E-1,4.217349887E-1,9.713663101E0
3.995739706E0,-4.654040039E-1,4.354937077E-1,9.728020668E0
3.997976767E0,-4.851447940E-1,4.265206456E-1,9.760921478E0
4.000213583E0,-5.042873621E-1,4.265206456E-1,9.799206734E0
4.002450950E0,-5.234299302E-1,4.169493318E-1,9.812965393E0
4.004689170E0,-5.282155871E-1,4.265206456E-1,9.808179855E0
4.006923973E0,-5.425725579E-1,4.462614357E-1,9.817750931E0
4.009160606E0,-5.521438122E-1,4.462614357E-1,9.812965393E0
4.011397117E0,-5.754738450E-1,4.612165689E-1,9.798608780E0
4.013632470E0,-5.563312769E-1,4.510470629E-1,9.760323524E0
4.015864159E0,-5.419743061E-1,4.510470629E-1,9.750752449E0
4.018107567E0,-5.365904570E-1,4.701896608E-1,9.736993790E0
4.020345177E0,-5.120640397E-1,4.701896608E-1,9.679565430E0
4.022585168E0,-4.695914388E-1,4.504488707E-1,9.708877563E0
4.024818323E0,-4.462614357E-1,4.402793646E-1,9.737591743E0
4.027054834E0,-4.510470629E-1,4.354937077E-1,9.747162819E0
4.029291162E0,-4.319044948E-1,4.396811724E-1,9.771091461E0
4.031528467E0,-4.420739710E-1,4.348955154E-1,9.827920914E0
4.033765345E0,-4.277170599E-1,4.295116663E-1,9.837491989E0
4.036002223E0,-4.761717021E-1,4.348955154E-1,9.894321442E0
4.038239771E0,-5.234299302E-1,4.552344978E-1,9.856036186E0
4.040477931E0,-5.234299302E-1,4.648058116E-1,9.851250648E0
4.042712307E0,-5.802595019E-1,4.797609448E-1,9.836296082E0
4.044949123E0,-6.179464459E-1,5.144568682E-1,9.778867722E0
4.047185635E0,-6.185446382E-1,4.570291340E-1,9.774082184E0
4.049419765E0,-6.233302951E-1,4.666004181E-1,9.759725571E0
4.051647426E0,-5.653043389E-1,4.660021961E-1,9.722038269E0
4.053896451E0,-5.078766346E-1,4.839483798E-1,9.756135941E0
4.056134060E0,-4.067798555E-1,4.971089065E-1,9.728020668E0
4.058372769E0,-4.025924206E-1,4.827519655E-1,9.751948357E0
4.060592801E0,-3.840480447E-1,4.911268353E-1,9.818947792E0
4.062828215E0,-4.271188378E-1,4.779663086E-1,9.804591179E0
4.065079680E0,-4.319044948E-1,4.683950245E-1,9.804591179E0
4.067319608E0,-4.468596280E-1,4.588237405E-1,9.856635094E0
4.069554715E0,-5.276173949E-1,4.743770957E-1,9.817750931E0
4.071778777E0,-5.515456200E-1,4.749752879E-1,9.793823242E0
4.074028044E0,-5.952146053E-1,4.612165689E-1,9.831509590E0
4.076266326E0,-6.221339107E-1,5.192425251E-1,9.745368004E0
4.078504119E0,-6.029912829E-1,5.240281820E-1,9.740582466E0
4.080737761E0,-5.754738450E-1,4.612165689E-1,9.774680138E0
4.082974274E0,-6.029912829E-1,4.953143001E-1,9.711869240E0
4.085211395E0,-5.557330847E-1,4.612165689E-1,9.717252731E0
4.087448456E0,-4.552344978E-1,4.642075896E-1,9.747162819E0
4.089684967E0,-3.930211067E-1,4.677968323E-1,9.752547264E0
4.091922394E0,-3.696911037E-1,4.576273263E-1,9.800403595E0
4.094160859E0,-4.037888348E-1,4.630111754E-1,9.852447510E0
4.096392304E0,-4.558327198E-1,4.731806815E-1,9.808777809E0
4.098618562E0,-4.989035130E-1,4.839483798E-1,9.794421196E0
4.100868257E0,-4.989035130E-1,4.833501875E-1,9.827322960E0
4.103105562E0,-5.521438122E-1,4.510470629E-1,9.822537422E0
4.105345797E0,-5.706881881E-1,4.803591371E-1,9.774680138E0
4.107579073E0,-5.994020700E-1,4.755735099E-1,9.769296646E0
4.109816683E0,-5.886343718E-1,5.138586760E-1,9.750154495E0
4.112052218E0,-5.844469070E-1,4.995017350E-1,9.769296646E0
4.114279514E0,-5.605186820E-1,4.899304509E-1,9.755537987E0
4.116530673E0,-5.796613097E-1,5.042873621E-1,9.760323524E0
4.118756748E0,-5.222335458E-1,4.887340367E-1,9.765109062E0
4.121003086E0,-4.546363056E-1,5.168496966E-1,9.751350403E0
4.123235325E0,-4.121637046E-1,5.060819983E-1,9.799804688E0
4.125475132E0,-3.882354796E-1,4.917250574E-1,9.799804688E0
4.127711155E0,-3.924229145E-1,5.300102234E-1,9.804591179E0
4.129949436E0,-4.360919297E-1,5.162515044E-1,9.808777809E0
4.132184056E0,-4.642075896E-1,5.264210105E-1,9.765707016E0
4.134420873E0,-4.887340367E-1,5.168496966E-1,9.808777809E0
4.136654393E0,-5.653043389E-1,5.180460811E-1,9.784252167E0
4.138882482E0,-5.886343718E-1,5.186443329E-1,9.731011391E0
4.141131017E0,-6.035895348E-1,5.138586760E-1,9.793225288E0
4.143367773E0,-6.179464459E-1,5.240281820E-1,9.783653259E0
4.145608191E0,-6.077769399E-1,5.096712112E-1,9.740582466E0
4.147843786E0,-5.796613097E-1,5.138586760E-1,9.769296646E0
4.150078589E0,-5.455635786E-1,5.563312769E-1,9.769894600E0
4.152315162E0,-5.024927258E-1,5.365904570E-1,9.775279045E0
4.154551429E0,-4.785645306E-1,5.312066078E-1,9.784850121E0
4.156785743E0,-4.540380836E-1,5.742774606E-1,9.775279045E0
4.159013648E0,-4.013960063E-1,5.682953596E-1,9.771091461E0
4.161262428E0,-4.067798555E-1,5.347958803E-1,9.809376717E0
4.163499733E0,-4.067798555E-1,5.635097623E-1,9.809376717E0
4.165741006E0,-4.983053207E-1,5.312066078E-1,9.798608780E0
4.167972817E0,-5.264210105E-1,5.700899959E-1,9.798608780E0
4.170209450E0,-5.790630579E-1,5.611169338E-1,9.821938515E0
4.172445963E0,-5.886343718E-1,5.712863803E-1,9.802796364E0
4.174683023E0,-5.742774606E-1,5.665007830E-1,9.774082184E0
4.176919900E0,-5.694918036E-1,5.521438122E-1,9.769296646E0
4.179156656E0,-5.736792088E-1,5.569294691E-1,9.750154495E0
4.181394021E0,-5.593222976E-1,5.611169338E-1,9.765109062E0
4.183632243E0,-5.264210105E-1,5.324030519E-1,9.755537987E0
4.185866862E0,-5.120640397E-1,5.605186820E-1,9.784252167E0
4.188103678E0,-5.072783828E-1,5.461617708E-1,9.784252167E0
4.190340007E0,-4.971089065E-1,5.748756528E-1,9.789037704E0
4.192577434E0,-4.636093974E-1,5.982056856E-1,9.789635658E0
4.194814373E0,-4.253242314E-1,5.880361795E-1,9.789635658E0
4.197050823E0,-4.594219327E-1,5.503492355E-1,9.770493507E0
4.199288554E0,-4.683950245E-1,5.647061467E-1,9.780064583E0
4.201526531E0,-5.264210105E-1,5.653043389E-1,9.803394318E0
4.203761456E0,-5.258227587E-1,5.748756528E-1,9.765109062E0
4.205997967E0,-5.312066078E-1,5.557330847E-1,9.779465675E0
4.208231610E0,-5.497509837E-1,5.754738450E-1,9.789037704E0
4.210456951E0,-5.838487148E-1,5.665007830E-1,9.774082184E0
4.212696760E0,-5.455635786E-1,5.515456200E-1,9.769894600E0
4.214945234E0,-5.114658475E-1,5.653043389E-1,9.750752449E0
4.217185590E0,-5.312066078E-1,5.563312769E-1,9.769894600E0
4.219424055E0,-5.210371017E-1,5.700899959E-1,9.769894600E0
4.221655744E0,-5.018945336E-1,5.748756528E-1,9.784252167E0
4.223890792E0,-4.971089065E-1,5.892325640E-1,9.769894600E0
4.226121688E0,-4.875376225E-1,5.838487148E-1,9.784850121E0
4.228365889E0,-4.827519655E-1,5.742774606E-1,9.760921478E0
4.230602706E0,-4.827519655E-1,5.934200287E-1,9.770493507E0
4.232841354E0,-5.024927258E-1,5.700899959E-1,9.793823242E0
4.235077194E0,-5.306084156E-1,5.988038778E-1,9.779465675E0
4.237315414E0,-5.545366406E-1,5.850451589E-1,9.765109062E0
4.239550033E0,-5.353940725E-1,5.850451589E-1,9.750752449E0
4.241786790E0,-5.545366406E-1,5.754738450E-1,9.760323524E0
4.244023057E0,-5.306084156E-1,5.659025311E-1,9.765109062E0
4.246260239E0,-5.210371017E-1,5.802595019E-1,9.736394882E0
4.248497178E0,-5.156532526E-1,5.754738450E-1,9.717252731E0
4.250733567E0,-5.018945336E-1,5.653043389E-1,9.756135941E0
4.252971239E0,-4.923232496E-1,5.988038778E-1,9.770493507E0
4.255209642E0,-4.923232496E-1,6.029912829E-1,9.789037704E0
4.257444383E0,-5.012963414E-1,6.131607890E-1,9.774680138E0
4.259681139E0,-4.965106845E-1,6.083751321E-1,9.784252167E0
4.261917346E0,-5.108676553E-1,6.131607890E-1,9.784252167E0
4.264151904E0,-5.258227587E-1,5.940182209E-1,9.760323524E0
4.266378161E0,-5.401797295E-1,6.089733839E-1,9.784252167E0
4.268616626E0,-5.114658475E-1,5.892325640E-1,9.784252167E0
4.270862659E0,-5.401797295E-1,5.754738450E-1,9.765109062E0
4.273095081E0,-5.641079545E-1,5.760720372E-1,9.750752449E0
4.275341480E0,-5.401797295E-1,5.898307562E-1,9.755537987E0
4.277575489E0,-5.210371017E-1,5.796613097E-1,9.784252167E0
4.279814807E0,-5.156532526E-1,5.988038778E-1,9.741181374E0
4.282049062E0,-5.545366406E-1,5.802595019E-1,9.750752449E0
4.284285878E0,-5.347958803E-1,6.089733839E-1,9.741181374E0
4.286521840E0,-5.347958803E-1,5.946164131E-1,9.750752449E0
4.288756825E0,-5.300102234E-1,6.185446382E-1,9.745966911E0
4.290998219E0,-5.635097623E-1,6.137589812E-1,9.764511108E0
4.293232901E0,-5.443671346E-1,6.281159520E-1,9.755537987E0
4.295470755E0,-5.108676553E-1,6.083751321E-1,9.769894600E0
4.297706229E0,-4.917250574E-1,6.131607890E-1,9.770493507E0
4.299943350E0,-5.306084156E-1,6.083751321E-1,9.803394318E0
4.302176200E0,-5.443671346E-1,6.041877270E-1,9.774680138E0
4.304401176E0,-5.593222976E-1,5.898307562E-1,9.750752449E0
4.306650810E0,-5.449653864E-1,5.802595019E-1,9.760323524E0
4.308880607E0,-5.252245665E-1,6.083751321E-1,9.760323524E0
4.311131278E0,-5.012963414E-1,6.323033571E-1,9.774680138E0
4.313364128E0,-5.012963414E-1,6.083751321E-1,9.736993790E0
4.315603447E0,-5.054838061E-1,6.275177598E-1,9.736394882E0
4.317837334E0,-5.383850932E-1,6.616154313E-1,9.717252731E0
4.320074394E0,-5.491527915E-1,6.185446382E-1,9.769894600E0
4.322310968E0,-5.491527915E-1,6.329016089E-1,9.798010826E0
4.324548638E0,-5.635097623E-1,6.281159520E-1,9.754940033E0
4.326783868E0,-5.587241054E-1,6.329016089E-1,9.788438797E0
4.329006890E0,-5.347958803E-1,6.323033571E-1,9.793823242E0
4.331243829E0,-5.102694035E-1,6.370890141E-1,9.755537987E0
4.333479914E0,-5.156532526E-1,6.323033571E-1,9.812965393E0
4.335720209E0,-5.294120312E-1,6.466603279E-1,9.765109062E0
4.337956965E0,-5.156532526E-1,6.227321029E-1,9.765109062E0
4.340193781E0,-4.917250574E-1,6.317051649E-1,9.784252167E0
4.342430964E0,-4.959124923E-1,6.562315822E-1,9.755537987E0
4.344669612E0,-4.917250574E-1,6.131607890E-1,9.765707016E0
4.346903987E0,-5.000999570E-1,6.993024349E-1,9.760323524E0
4.349140804E0,-4.953143001E-1,6.897311211E-1,9.769894600E0
4.351376888E0,-5.054838061E-1,6.705885530E-1,9.793823242E0
4.353614742E0,-5.347958803E-1,6.329016089E-1,9.750752449E0
4.355851315E0,-5.718846321E-1,6.717849374E-1,9.726225853E0
4.358088192E0,-5.587241054E-1,6.520441771E-1,9.783653259E0
4.360326413E0,-5.676971674E-1,6.669993401E-1,9.740582466E0
4.362569821E0,-5.150550604E-1,6.562315822E-1,9.731609344E0
4.364807554E0,-5.198407173E-1,6.801598072E-1,9.774680138E0
4.367040036E0,-5.150550604E-1,6.323033571E-1,9.736394882E0
4.369270566E0,-5.294120312E-1,6.610172391E-1,9.760323524E0
4.371506589E0,-5.048855543E-1,6.753742099E-1,9.750752449E0
4.373744627E0,-5.000999570E-1,6.801598072E-1,9.765109062E0
4.375982298E0,-5.096712112E-1,7.040880919E-1,9.774680138E0
4.378219603E0,-5.569294691E-1,7.381857634E-1,9.731011391E0
4.380458189E0,-5.294120312E-1,6.418746710E-1,9.765109062E0
4.382695800E0,-5.389832854E-1,6.945167780E-1,9.812367439E0
4.384944397E0,-5.724828243E-1,6.717849374E-1,9.740582466E0
4.387180541E0,-5.868397355E-1,6.813562512E-1,9.798010826E0
4.389416625E0,-5.533402562E-1,6.664010882E-1,9.764511108E0
4.391644347E0,-5.533402562E-1,6.711867452E-1,9.759725571E0
4.393876160E0,-5.533402562E-1,6.855437160E-1,9.788438797E0
4.396125794E0,-5.629115105E-1,6.478567123E-1,9.731609344E0
4.398365296E0,-5.240281820E-1,6.801598072E-1,9.741181374E0
4.400601929E0,-5.246263742E-1,6.801598072E-1,9.765109062E0
4.402835634E0,-5.000999570E-1,6.849454641E-1,9.726823807E0
4.405071657E0,-4.953143001E-1,6.987041831E-1,9.779465675E0
4.407309022E0,-5.036891699E-1,7.663014531E-1,9.765109062E0
4.409542848E0,-5.096712112E-1,6.897311211E-1,9.760323524E0
4.411770754E0,-5.054838061E-1,6.939185858E-1,9.832108498E0
4.414020083E0,-5.341976285E-1,6.658028960E-1,9.789037704E0
4.416258608E0,-5.868397355E-1,6.909275651E-1,9.783653259E0
4.418496402E0,-5.437689424E-1,6.705885530E-1,9.807581902E0
4.420729983E0,-5.150550604E-1,6.849454641E-1,9.779465675E0
4.422966190E0,-5.246263742E-1,6.658028960E-1,9.774680138E0
4.425203312E0,-5.144568682E-1,7.136593461E-1,9.779465675E0
4.427440372E0,-5.150550604E-1,6.801598072E-1,9.765109062E0
4.429673953E0,-5.000999570E-1,6.897311211E-1,9.769894600E0
4.431902409E0,-5.000999570E-1,6.945167780E-1,9.760323524E0
4.434152775E0,-4.707878530E-1,7.178468108E-1,9.708279610E0
4.436387456E0,-4.809573591E-1,6.939185858E-1,9.769894600E0
4.438627263E0,-4.995017350E-1,7.136593461E-1,9.750752449E0
4.440860478E0,-5.096712112E-1,7.280163169E-1,9.803394318E0
4.443097662E0,-5.006981492E-1,6.939185858E-1,9.817750931E0
4.445334661E0,-5.144568682E-1,6.897311211E-1,9.769894600E0
4.447571233E0,-5.676971674E-1,6.568298340E-1,9.778867722E0
4.449808660E0,-5.916253924E-1,6.861419082E-1,9.769296646E0
4.452047126E0,-5.623133183E-1,6.999006271E-1,9.745368004E0
4.454282050E0,-5.282155871E-1,7.190431952E-1,9.722038269E0
4.456515021E0,-4.947160780E-1,7.423732281E-1,9.741181374E0
4.458739692E0,-5.425725579E-1,7.429714203E-1,9.745368004E0
4.460992133E0,-5.431707501E-1,7.094719410E-1,9.750154495E0
4.463228889E0,-5.521438122E-1,7.142575383E-1,9.731011391E0
4.465469368E0,-5.952146053E-1,7.339983582E-1,9.750154495E0
4.467703132E0,-5.904290080E-1,7.292127013E-1,9.754940033E0
4.469941353E0,-5.665007830E-1,7.334001660E-1,9.769296646E0
4.472175302E0,-5.623133183E-1,7.142575383E-1,9.750154495E0
4.474409860E0,-5.629115105E-1,6.855437160E-1,9.778867722E0
4.476646310E0,-5.635097623E-1,6.664010882E-1,9.817152977E0
4.478875314E0,-6.047859192E-1,7.579265833E-1,9.768698692E0
4.481124215E0,-5.916253924E-1,6.861419082E-1,9.774082184E0
4.483359873E0,-6.245267391E-1,7.339983582E-1,9.797411919E0
4.485600351E0,-5.850451589E-1,7.483552694E-1,9.711869240E0
4.487836130E0,-5.569294691E-1,7.573283911E-1,9.774082184E0
4.490070566E0,-4.947160780E-1,7.423732281E-1,9.726823807E0
4.492307139E0,-4.845465720E-1,7.375875711E-1,9.698708534E0
4.494543529E0,-4.133601189E-1,7.363911867E-1,9.746564865E0
4.496777781E0,-4.229314029E-1,7.172485590E-1,9.751350403E0
4.499005870E0,-4.366901219E-1,7.651050687E-1,9.732208252E0
4.501254405E0,-4.378865361E-1,7.220342159E-1,9.784850121E0
4.503491954E0,-4.947160780E-1,7.657032609E-1,9.803394318E0
4.505732922E0,-5.282155871E-1,7.280163169E-1,9.760323524E0
4.507964855E0,-5.527420044E-1,7.381857634E-1,9.798010826E0
4.510201550E0,-5.569294691E-1,7.334001660E-1,9.754940033E0
4.512436536E0,-5.425725579E-1,7.477570772E-1,9.750154495E0
4.514670362E0,-4.995017350E-1,7.423732281E-1,9.760323524E0
4.516911817E0,-5.330012441E-1,7.375875711E-1,9.760323524E0
4.519148694E0,-5.563312769E-1,7.668996453E-1,9.759725571E0
