"Time (s)","Linear Acceleration x (m/s^2)","Linear Acceleration y (m/s^2)","Linear Acceleration z (m/s^2)"
1.574201700E-1,-9.920895100E-3,-3.240518272E-3,-2.318286896E-2
1.753144590E-1,-3.549277782E-3,1.187622547E-3,-3.686046600E-2
1.932029500E-1,6.085932255E-3,3.347869962E-3,-2.627849579E-2
2.111030360E-1,6.973743439E-4,-3.832377493E-3,-3.744888306E-2
2.290003770E-1,-3.211140633E-3,-1.937989146E-3,-2.739238739E-2
2.468913090E-1,-8.945643902E-3,2.958726138E-3,-3.654193878E-2
2.647858420E-1,-2.583801746E-3,-2.938404679E-3,-2.722835541E-2
2.826771400E-1,1.133531332E-2,-3.800019622E-4,-3.727722168E-2
3.005742970E-1,-1.111274958E-2,-4.551474005E-3,-2.653503418E-2
3.184715170E-1,4.398226738E-4,2.081878483E-4,-2.352333069E-2
3.363629370E-1,-1.507639885E-3,-7.395900786E-3,-2.623748779E-2
3.542569210E-1,8.025765419E-4,-2.056632191E-3,-2.982521057E-2
3.721512100E-1,-2.913475037E-4,2.374321222E-3,-3.539848328E-2
3.900451930E-1,-2.333641052E-3,-2.611123025E-3,-2.593040466E-2
4.079433880E-1,4.323899746E-3,1.495257020E-4,-2.248477936E-2
4.258337710E-1,6.777703762E-3,-5.098804832E-4,-2.876472473E-2
4.437280600E-1,2.159714699E-3,4.731416702E-4,-3.272247314E-2
4.616224090E-1,-2.111804485E-2,9.204734117E-3,-2.644348145E-2
4.795136460E-1,-8.689761162E-4,-1.595430076E-4,-2.951908112E-2
4.974109260E-1,-9.343326092E-3,-1.717165112E-3,-2.645111084E-2
5.153050320E-1,-9.675502777E-3,-7.396973670E-4,-1.887798309E-2
5.331993210E-1,-2.022624016E-2,-3.243710846E-3,-2.621555328E-2
5.510936100E-1,1.911103725E-3,-5.641616881E-4,-2.393341064E-2
5.689763020E-1,2.933502197E-3,-1.574568450E-3,-2.667903900E-2
5.868818830E-1,3.872096539E-3,4.174690694E-3,-1.914405823E-2
6.047761720E-1,-1.083099842E-2,-1.408249140E-3,-2.939891815E-2
6.226674090E-1,-7.426857948E-3,-3.619566560E-4,-2.943515778E-2
6.405647490E-1,2.225637436E-4,6.406642497E-4,-2.345561981E-2
6.584618460E-1,2.406060696E-3,2.101011574E-3,-2.878665924E-2
6.763532050E-1,-1.293349266E-2,-3.126002848E-3,-2.402210236E-2
6.942319910E-1,1.745700836E-3,-3.040559590E-3,-1.697349548E-2
7.121419050E-1,-2.732634544E-3,-2.396628261E-4,-2.881622314E-2
7.300242310E-1,-8.458375931E-3,-1.122429967E-4,-2.579402924E-2
7.479302380E-1,-1.478010416E-2,1.659628004E-3,-3.127670288E-2
7.658244050E-1,-1.345992088E-3,2.276800573E-3,-3.173923492E-2
7.837186340E-1,-1.028907299E-2,-5.060210824E-3,-2.984046936E-2
8.016128610E-1,-1.903653145E-3,1.071460545E-3,-2.861499786E-2
8.195117280E-1,-1.115256548E-2,5.900442600E-3,-2.347373962E-2
8.374015000E-1,5.591511726E-3,1.144036651E-3,-2.483177185E-2
8.552926760E-1,-2.312797308E-2,-1.989163458E-3,-2.817058563E-2
8.731900780E-1,1.080626249E-2,1.011438668E-3,-3.170299530E-2
8.910841220E-1,-3.657597303E-2,3.664162010E-3,-2.619838715E-2
9.089805470E-1,6.608188152E-3,5.283437669E-3,-3.013801575E-2
9.268728830E-1,8.084774017E-4,1.565273851E-3,-3.095340729E-2
9.447669280E-1,-2.098828554E-2,5.870882422E-3,-2.564430237E-2
9.626581650E-1,1.970648766E-3,9.413115680E-3,-2.227592468E-2
9.805452520E-1,-1.442313194E-2,2.805694938E-3,-2.587127686E-2
9.984525420E-1,4.472136497E-4,-4.924036562E-3,-2.141284943E-2
1.016340971E0,-1.807683706E-2,6.022710353E-3,-2.574729919E-2
1.034238190E0,-1.287657022E-2,-1.612424850E-3,-2.156352997E-2
1.052132418E0,-7.526278496E-3,-3.295917064E-3,-1.834106445E-2
1.070026706E0,3.960072994E-3,-2.192128450E-3,-1.566028595E-2
1.087920751E0,-1.624011993E-2,1.686222851E-3,-2.138614655E-2
1.105807045E0,-7.869243622E-3,-9.015053511E-4,-3.000354767E-2
1.123697550E0,-1.098018885E-2,-7.589884102E-3,-2.907752991E-2
1.141594950E0,4.153609276E-3,3.184739500E-3,-3.184413910E-2
1.159486188E0,-4.677653313E-3,3.786176443E-3,-1.992988586E-2
1.177392440E0,-4.280745983E-3,2.635765821E-3,-1.950645447E-2
1.195286911E0,-3.935039043E-3,-1.801151782E-3,-1.841163635E-2
1.213177783E0,6.218135357E-3,3.703340888E-3,-2.807426453E-2
1.231071888E0,-1.668423414E-2,-4.631284624E-3,-2.858161926E-2
1.248969107E0,-2.453863621E-3,5.922559649E-3,-2.437877655E-2
1.266863396E0,-1.988273859E-2,5.854032934E-4,-3.081417084E-2
1.284757746E0,7.169723511E-3,5.263138562E-3,-1.876354218E-2
1.302648861E0,-1.370906830E-5,3.898572177E-3,-2.522182465E-2
1.320549253E0,-1.999908686E-2,1.642372459E-3,-2.439498901E-2
1.338443237E0,-2.206563950E-3,-2.835806459E-3,-2.703380585E-2
1.356334962E0,-5.734324455E-3,3.945894539E-3,-2.764797211E-2
1.374228946E0,-1.016873121E-2,3.395594656E-3,-3.644466400E-2
1.392123480E0,-1.456522942E-2,3.154762089E-4,-2.563858032E-2
1.410017829E0,-1.058578491E-4,4.661891609E-3,-2.151679993E-2
1.427911508E0,1.195085049E-2,1.710020006E-4,-3.161907196E-2
1.445809093E0,-1.301109791E-2,-6.891865283E-3,-3.055000305E-2
1.463700025E0,2.820312977E-3,4.361405969E-3,-2.863121033E-2
1.481594618E0,-9.315609932E-3,-1.865088940E-3,-3.812313080E-2
1.499488907E0,9.623587132E-3,8.919231594E-3,-2.591514587E-2
1.517382952E0,-1.537674665E-2,4.516690969E-3,-3.132343292E-2
1.535277485E0,2.092778683E-3,-1.772642136E-4,-2.317428589E-2
1.553171775E0,-4.432201385E-4,9.004522115E-3,-3.599357605E-2
1.571065819E0,1.655584574E-2,-2.053644508E-3,-2.563762665E-2
1.588960108E0,-1.339435577E-2,6.592117250E-3,-3.800964355E-2
1.606854336E0,4.226803780E-3,-9.108968079E-4,-4.076099396E-2
1.624748625E0,-2.624976635E-2,1.782868057E-3,-2.358627319E-2
1.642640106E0,3.184676170E-4,-5.427259952E-3,-2.262878418E-2
1.660537324E0,-1.775938272E-2,-2.858173102E-3,-3.063201904E-2
1.678434360E0,8.387029171E-3,7.528338581E-3,-3.956222534E-2
1.696325719E0,-6.832420826E-3,1.307703555E-3,-2.418327332E-2
1.714210120E0,5.504846573E-3,-3.380067647E-4,-2.753162384E-2
1.732094095E0,-4.246950150E-3,-5.779340863E-4,-3.315162659E-2
1.750008463E0,-6.504654884E-3,-8.351128548E-3,-2.637767792E-2
1.767902875E0,-3.032445908E-3,-2.678744495E-3,-2.325534821E-2
1.785797103E0,-4.759907722E-3,-1.822762191E-3,-2.578353882E-2
1.803691087E0,-1.585233212E-2,2.440564334E-3,-2.797698975E-2
1.821585619E0,-7.284283638E-4,-1.546598971E-3,-3.465461731E-2
1.839479908E0,-3.377795219E-3,-9.812775999E-3,-2.657032013E-2
1.857374258E0,2.425909042E-5,-5.882509053E-3,-2.818202972E-2
1.875268303E0,-1.128274202E-2,-2.719983459E-4,-2.135181427E-2
1.893162836E0,-3.790974617E-3,-2.034973353E-3,-1.697540283E-2
1.911056758E0,-6.655514240E-3,-6.256915629E-3,-1.581096649E-2
1.928951169E0,5.901157856E-3,-3.639943898E-4,-2.854061127E-2
1.946845398E0,-1.870924234E-2,3.395609558E-3,-2.587699890E-2
1.964739626E0,5.468130112E-3,3.318380564E-3,-3.206062317E-2
1.982637089E0,-5.816757679E-3,1.051750034E-3,-2.772712708E-2
2.000528325E0,-3.389358521E-3,-4.851706326E-3,-2.292537689E-2
2.018422980E0,-1.076447964E-2,2.272084355E-3,-2.692699432E-2
2.036316903E0,4.627108574E-3,-2.225298434E-3,-2.465057373E-2
2.054211192E0,3.693282604E-3,-8.742660284E-4,-2.190208435E-2
2.072096448E0,-3.837943077E-3,-5.398534238E-3,-6.583213806E-3
2.089999708E0,-1.637428999E-2,-5.710259080E-3,-2.018737793E-2
2.107893814E0,2.163708210E-3,-6.980214268E-3,-2.980518341E-2
2.125790972E0,-6.924748421E-3,5.584657192E-3,-2.016448975E-2
2.143667073E0,-1.019716263E-3,4.895776510E-4,-2.774810791E-2
2.161576681E0,-1.868164539E-2,-1.439254731E-3,-3.536415100E-2
2.179471153E0,-8.468031883E-4,-4.544481635E-5,-2.014636993E-2
2.197365442E0,-3.516077995E-4,3.470726311E-3,-2.373123169E-2
2.215245082E0,-6.911933422E-3,-2.544887364E-3,-2.672386169E-2
2.233153776E0,-9.847462177E-3,1.718778163E-3,-2.567195892E-2
2.251048064E0,6.479144096E-3,3.784019500E-3,-2.674102783E-2
2.268948151E0,-1.581811905E-2,-5.798853934E-3,-2.297973633E-2
2.286836703E0,1.524329185E-3,-3.052897751E-3,-3.653335571E-2
2.304730932E0,-2.109587193E-3,-1.213567331E-2,-2.819442749E-2
2.322621315E0,6.051540375E-3,-4.564896226E-4,-2.116584778E-2
2.340519753E0,-6.353139877E-3,-1.312013716E-3,-3.563880920E-2
2.358416606E0,-6.249308586E-3,-6.093561649E-3,-4.308700562E-2
2.376308148E0,3.555297852E-3,1.574464142E-3,-2.832889557E-2
2.394202376E0,-1.428753138E-2,7.905993611E-3,-2.155303955E-2
2.412096726E0,5.389928818E-3,-1.228835434E-3,-3.839969635E-2
2.429990709E0,-1.815074682E-2,-5.202330649E-4,-3.066158295E-2
2.447885242E0,-2.615094185E-3,5.197037011E-3,-2.172374725E-2
2.465782828E0,-1.268917322E-2,-9.351816028E-3,-2.881717682E-2
2.483673760E0,2.954542637E-3,-1.305995136E-2,-3.767395020E-2
2.501564874E0,-2.045392990E-2,-1.292105764E-3,-3.339099884E-2
2.519462703E0,-3.602325916E-3,1.134768128E-3,-2.261924744E-2
2.537356748E0,3.361105919E-4,-1.073554158E-4,-1.925373077E-2
2.555253784E0,-6.029427052E-3,4.346285015E-3,-1.788425446E-2
2.573134340E0,-1.640915871E-3,3.027178347E-3,-2.353954315E-2
2.591039614E0,-1.303577423E-2,1.227915287E-3,-1.317596436E-2
2.608937810E0,-7.020592690E-3,-2.547468990E-3,-1.604747772E-2
2.626827338E0,-3.499984741E-3,-1.442741603E-3,-1.706981659E-2
2.644722177E0,-1.113128662E-2,-6.964735687E-3,-2.051830292E-2
2.662614696E0,-4.227876663E-3,7.598605007E-3,-1.814270020E-2
2.680511059E0,-4.941344261E-3,1.904614270E-2,-8.478164673E-3
2.698408034E0,-9.041786194E-3,3.962381929E-2,-1.361179352E-2
2.716284439E0,-1.761597395E-2,3.823134303E-2,-1.262855530E-2
2.734193682E0,3.027379513E-3,4.801681265E-2,-1.658725739E-2
2.752088215E0,-1.177936792E-2,4.530746117E-2,-1.063728333E-2
2.769982137E0,-1.336622238E-2,4.477597401E-2,-2.045345306E-2
2.787876487E0,-8.486449718E-3,6.681055576E-2,-6.471633911E-3
2.805770776E0,3.110289574E-3,8.196136355E-2,5.307197571E-3
2.823665005E0,-1.277327538E-2,8.478976786E-2,-1.623058319E-2
2.841559354E0,-1.116025448E-2,1.065288335E-1,4.477500916E-3
2.859453948E0,-2.133625746E-2,1.158341542E-1,-1.974391937E-2
2.877347932E0,-9.676218033E-4,1.244214326E-1,-1.093864441E-2
2.895244113E0,5.957722664E-3,1.225385293E-1,-2.246856689E-2
2.913136815E0,-1.522272825E-2,1.339570880E-1,-3.271484375E-2
2.931030798E0,-5.465990305E-2,1.238209605E-1,2.023029327E-2
2.948913430E0,4.063850641E-2,1.060606390E-1,-7.445240021E-2
2.966819621E0,-3.180664778E-2,1.229573190E-1,-4.385948181E-2
2.984713971E0,-3.330349922E-2,1.013127714E-1,9.799957275E-3
3.002607955E0,-3.154927492E-2,9.573718905E-2,-6.281948090E-2
3.020502243E0,4.960680008E-2,1.137425601E-1,-5.807876587E-3
3.038399828E0,-7.740080357E-3,1.236138940E-1,-5.755615234E-2
3.056290882E0,-4.701894522E-2,9.188561141E-2,-4.838562012E-2
3.074185354E0,-1.953756809E-2,6.443096697E-2,-5.675315857E-2
3.092079704E0,-2.387708426E-2,4.120982066E-2,-6.920528412E-2
3.109973931E0,2.612853050E-2,1.778747514E-2,-3.284072876E-2
3.127868221E0,-7.452523708E-2,3.409665078E-3,-4.960536957E-2
3.145762022E0,1.985377073E-2,8.988767862E-3,-3.909587860E-2
3.163656494E0,5.076587200E-3,8.014287800E-3,-3.954124451E-2
3.181548096E0,-2.603816986E-2,3.660684451E-2,-3.986549377E-2
3.199445742E0,-4.672175646E-2,5.398909748E-2,-2.271652222E-2
3.217339909E0,-1.970088482E-2,6.001873314E-2,-1.079177856E-2
3.235237494E0,3.184986115E-2,9.918308258E-2,-3.430652618E-2
3.253128304E0,-3.614127636E-2,1.143558249E-1,-7.724761963E-3
3.271022592E0,-7.705032825E-3,1.355493069E-1,-1.758098602E-2
3.288904858E0,-7.997632027E-3,1.602099240E-1,-1.468658447E-2
3.306809279E0,1.411533356E-2,1.749135405E-1,-1.154899597E-2
3.324705399E0,-2.925872803E-2,2.001298070E-1,-9.200096130E-3
3.342599749E0,3.796696663E-3,2.318404019E-1,3.795623779E-4
3.360494037E0,-2.645182610E-2,2.587486506E-1,4.050254822E-3
3.378376790E0,2.753674984E-2,2.850586176E-1,1.217174530E-2
3.396282615E0,-2.005219460E-3,2.936235964E-1,1.139068604E-2
3.414176904E0,5.314400792E-2,3.094827533E-1,-7.139682770E-2
3.432071438E0,-6.577169895E-2,3.055338264E-1,7.114410400E-3
3.449965421E0,1.493164897E-2,3.291604519E-1,-2.818965912E-2
3.467859771E0,-7.314324379E-3,3.303857744E-1,5.891799927E-3
3.485753999E0,5.472832918E-2,3.294129670E-1,-1.103115082E-2
3.503648471E0,-4.656082392E-2,3.246884942E-1,-6.171131134E-2
3.521542820E0,3.781229258E-2,3.403200805E-1,-5.717468262E-2
3.539437353E0,-5.406105518E-2,3.228783906E-1,-3.812217712E-2
3.557331459E0,3.434866667E-2,3.258988857E-1,-2.758312225E-2
3.575225687E0,1.178264618E-2,3.221112490E-1,-4.816722870E-2
3.593120038E0,1.348331571E-2,3.040510416E-1,-6.200027466E-2
3.611014326E0,-2.558690310E-2,3.053650558E-1,-5.496788025E-2
3.628896896E0,3.125500679E-2,3.359748125E-1,-7.415199280E-2
3.646802904E0,-2.770596743E-2,3.426217735E-1,-6.671047211E-2
3.664694385E0,3.219139576E-2,3.606963754E-1,-6.045722961E-2
3.682591482E0,2.958476543E-3,3.657100499E-1,-7.266807556E-2
3.700486014E0,-1.855671406E-3,3.575054407E-1,-7.716751099E-2
3.718368767E0,1.352912188E-2,3.580918312E-1,-8.596134186E-2
3.736274593E0,4.003599286E-2,3.528296351E-1,-5.028629303E-2
3.754168821E0,-3.560185432E-4,3.523007631E-1,-5.908966064E-2
3.772063232E0,2.473592758E-4,3.619640172E-1,-5.780792236E-2
3.789957398E0,-1.559960842E-2,3.653513193E-1,-6.120586395E-2
3.807840884E0,4.057639837E-2,3.572639227E-1,-4.740524292E-2
3.825745854E0,6.779670715E-3,3.458037674E-1,-6.622695923E-2
3.843640204E0,1.168251038E-2,3.676025569E-1,-5.758190155E-2
3.861534614E0,-3.844207525E-2,3.461298943E-1,-1.327800751E-2
3.879429148E0,5.562275648E-3,3.354558349E-1,-5.774879456E-2
3.897323132E0,-2.286010981E-2,3.351318240E-1,-2.969074249E-2
3.915217726E0,1.433449984E-2,3.427428007E-1,-5.744457245E-2
3.933104874E0,-4.421609640E-2,3.668084741E-1,-3.434371948E-2
3.951006303E0,-3.035128117E-3,3.714997172E-1,1.992321014E-2
3.968888812E0,4.599887133E-2,3.582202196E-1,-6.465053558E-2
3.986794576E0,-5.980908871E-3,3.762719333E-1,-1.557350159E-2
4.004689170E0,-1.708269119E-3,3.467704654E-1,-1.398944855E-2
4.022585168E0,-9.413301945E-3,3.749854267E-1,-6.443119049E-2
4.040477931E0,1.646387577E-2,3.672557473E-1,3.864383698E-2
4.058372769E0,2.342197299E-2,3.981421590E-1,-4.110431671E-2
4.076266326E0,-4.208511114E-2,4.015253782E-1,-2.732276917E-3
4.094160859E0,6.220835447E-2,3.844427466E-1,-8.242607117E-3
4.112052218E0,-5.432409048E-2,4.050623178E-1,-2.015209198E-2
4.129949436E0,6.621500850E-2,4.257385135E-1,-3.261566162E-3
4.147843786E0,-6.858795881E-2,4.305621386E-1,-2.751350403E-2
4.165741006E0,4.961195588E-2,4.596186280E-1,-3.408432007E-3
4.183632243E0,-3.973734379E-2,4.651625156E-1,-2.811241150E-2
4.201526531E0,2.056947351E-2,4.793911278E-1,-9.671211243E-3
4.219424055E0,-1.933473349E-2,4.762298167E-1,-2.666473389E-2
4.237315414E0,-1.027178764E-2,4.954746366E-1,-2.197360992E-2
4.255209642E0,4.083633423E-3,4.976820350E-1,-3.193283081E-2
4.273095081E0,-2.462953329E-2,4.972721934E-1,-2.900981903E-2
4.290998219E0,-3.114145994E-2,5.127332211E-1,-4.169178009E-2
4.308880607E0,-2.471947670E-2,5.077771544E-1,-3.237342834E-2
4.326783868E0,-3.592556715E-2,5.358389616E-1,-2.751445770E-2
4.344669612E0,6.746709347E-3,5.375078321E-1,-2.698421478E-2
4.362569821E0,-2.515292168E-2,5.640101433E-1,-4.620075226E-2
4.380458189E0,-1.466012001E-2,5.838172436E-1,-3.996944427E-2
4.398365296E0,-3.497147560E-2,5.757129788E-1,-4.044151306E-2
4.416258608E0,-2.467721701E-2,5.924452543E-1,-1.323318481E-2
4.434152775E0,1.242214441E-2,5.987373590E-1,-4.288291931E-2
4.452047126E0,-3.490179777E-2,5.913999677E-1,-2.863121033E-2
4.469941353E0,-5.313140154E-2,6.257805228E-1,-4.189205170E-2
4.487836130E0,-6.810557842E-2,6.320395470E-1,-3.132247925E-2
4.505732922E0,2.715361118E-2,6.367809772E-1,-3.095531464E-2
4.523624525E0,-3.665381670E-2,6.669672728E-1,-1.535129547E-2
4.541518447E0,-2.167814970E-2,6.580264568E-1,-1.721382141E-2
4.559401567E0,-4.057025909E-2,6.648777127E-1,-4.549503326E-2
4.577307330E0,1.384079456E-2,6.587495804E-1,-2.199172974E-2
4.595201620E0,-1.534718275E-2,6.496234536E-1,-1.776790619E-2
4.613081504E0,-1.542162895E-2,6.548961401E-1,-4.451656342E-2
4.630990136E0,-2.604931593E-2,6.633797288E-1,-2.594757080E-2
4.648873255E0,-3.416484594E-2,6.660963297E-1,-2.798652649E-2
4.666775845E0,4.820585251E-3,6.577301621E-1,-1.252174377E-2
4.684673308E0,-4.184740782E-2,6.486405730E-1,-1.793575287E-2
4.702567536E0,-1.380217075E-2,6.452486515E-1,-1.444816589E-2
4.720461885E0,-2.921730280E-2,6.473143697E-1,-3.272628784E-2
4.738357884E0,-2.736538649E-2,6.779321432E-1,-3.344249725E-2
4.756250525E0,-3.091585636E-2,7.010530829E-1,-2.311801910E-2
4.774145119E0,-2.424222231E-2,7.252675891E-1,-2.434539795E-2
4.792039408E0,-6.684124470E-3,7.267097235E-1,-3.180885315E-2
4.809933574E0,-3.960150480E-2,7.117447853E-1,-1.687908173E-2
4.827827924E0,-1.015037298E-2,7.049121261E-1,-3.842735291E-2
4.845725204E0,-2.674871683E-2,7.006236911E-1,-2.045917511E-2
4.863616380E0,-2.823334932E-2,7.031009197E-1,-3.157520294E-2
4.881511096E0,-1.155954599E-2,7.176072598E-1,-2.727508545E-2
4.899408376E0,-3.003257513E-2,7.051563263E-1,-1.337528229E-2
4.917299613E0,-1.043921709E-2,7.129108906E-1,-2.441215515E-2
4.935193902E0,-3.286081553E-2,6.961836815E-1,-2.648639679E-2
4.953088130E0,4.093289375E-3,6.973315477E-1,-4.456424713E-2
4.970967525E0,-1.872092485E-2,6.944518089E-1,-2.626514435E-2
4.988865477E0,-1.297175884E-2,6.783415079E-1,-4.097843170E-2
5.006771241E0,9.722590446E-3,6.831660271E-1,-4.174613953E-2
5.024665530E0,-2.055358887E-2,6.699389219E-1,-2.655506134E-2
5.042559819E0,2.144899964E-2,6.688081026E-1,-3.248023987E-2
5.060454412E0,-1.881432533E-2,6.669046879E-1,-3.151035309E-2
5.078350715E0,5.884379148E-3,6.645288467E-1,-4.040145874E-2
5.096230966E0,-1.927229762E-2,6.613231897E-1,-3.671646118E-2
5.114125805E0,1.131755114E-2,6.458755732E-1,-5.410480499E-2
5.132031813E0,-1.060765982E-2,6.791141033E-1,-5.561256409E-2
5.149925857E0,-7.458418608E-3,6.693145633E-1,-2.562236786E-2
5.167820390E0,1.566848159E-2,6.504945755E-1,-5.222034454E-2
5.185717609E0,-3.441154957E-3,6.189994812E-1,-2.633762360E-2
5.203608907E0,-6.003022194E-3,5.921185017E-1,-1.874256134E-2
5.221500204E0,-3.656640649E-2,5.833482146E-1,-6.010150909E-2
5.239397789E0,3.892695904E-2,6.325812936E-1,-4.650211334E-2
5.257292079E0,-3.992384672E-2,6.309671402E-1,-6.643486023E-2
5.275186368E0,1.219335198E-2,6.514889002E-1,-3.603363037E-2
5.293080657E0,-1.939368248E-2,6.474794149E-1,-3.414916992E-2
5.310976776E0,1.215586066E-2,6.285492778E-1,-4.130172729E-2
5.328857515E0,1.207873225E-2,6.306080818E-1,-6.168937683E-2
5.346763645E0,1.097914577E-2,6.390773058E-1,-4.862213135E-2
5.364657995E0,-7.487356663E-3,6.481179595E-1,-5.551433563E-2
5.382552406E0,2.934944630E-2,6.497463584E-1,-5.680847168E-2
5.400446634E0,3.855943680E-3,6.490230560E-1,-5.922126770E-2
5.418345562E0,3.237643838E-2,6.391522884E-1,-4.017353058E-2
5.436235456E0,8.799135685E-4,6.459363103E-1,-4.505157471E-2
5.454129440E0,1.282066107E-3,6.339901090E-1,-4.446697235E-2
5.472024095E0,1.355564594E-2,6.318317652E-1,-4.434585571E-2
5.489918322E0,-6.732612848E-3,6.439020634E-1,-5.202198029E-2
5.507812856E0,2.714195848E-2,6.255669594E-1,-4.625034332E-2
5.525710136E0,-3.853797913E-3,6.406660080E-1,-5.504608154E-2
5.543601373E0,3.668993711E-3,6.244809628E-1,-4.987335205E-2
5.561492548E0,2.917948365E-2,6.480149627E-1,-3.855800629E-2
5.579390255E0,-2.380609512E-3,6.437524557E-1,-5.341815948E-2
5.597284300E0,1.654341817E-2,6.460794210E-1,-4.821872711E-2
5.615178772E0,-4.225432873E-3,6.465290785E-1,-4.482555389E-2
5.633073122E0,-2.505719662E-3,6.384385228E-1,-2.418804169E-2
5.650967411E0,3.753849864E-2,6.419474483E-1,-2.949619293E-2
5.668850713E0,-1.681745052E-2,6.500515938E-1,-5.959224701E-2
5.686758919E0,-1.909551024E-2,6.596214175E-1,-3.150367737E-2
5.704647592E0,8.668690920E-3,6.602653265E-1,-5.375862122E-2
5.722544811E0,-5.291700363E-3,6.532855034E-1,-4.273796082E-2
5.740439343E0,1.004648209E-2,6.390888095E-1,-3.135490417E-2
5.758334182E0,-1.644074917E-3,6.337283254E-1,-5.145931244E-2
5.776227677E0,4.144331813E-2,6.366637945E-1,-1.533985138E-2
5.794122272E0,7.347643375E-3,6.610118151E-1,-2.981090546E-2
5.812016561E0,-9.275883436E-3,6.515302062E-1,-4.591655731E-2
5.829910788E0,8.792459965E-3,6.590530872E-1,-4.552936554E-2
5.847805382E0,-1.227948070E-2,6.495764256E-1,-3.900814056E-2
5.865702601E0,1.932284236E-2,6.450704336E-1,-3.788566589E-2
5.883593838E0,-3.079026937E-3,6.542755961E-1,-4.059886932E-2
5.901488127E0,-1.699301600E-2,6.605525613E-1,-4.449939728E-2
5.919382660E0,-1.347380877E-2,6.527505517E-1,-3.224372864E-2
5.937276949E0,1.730981469E-2,6.444523931E-1,-4.267024994E-2
5.955171299E0,2.733260393E-3,6.289386749E-1,-5.034923553E-2
5.973065771E0,-2.224555612E-2,6.404020786E-1,-3.079700470E-2
5.990959876E0,-1.783442497E-2,6.209204197E-1,-3.537464142E-2
6.008842386E0,-8.044153452E-3,6.313522458E-1,-2.204227448E-2
6.026748882E0,3.867298365E-3,6.340275407E-1,-1.811408997E-2
6.044638044E0,5.232483149E-3,6.227377057E-1,-1.384162903E-2
6.062537460E0,9.637862444E-3,6.169753075E-1,-2.982044220E-2
6.080431809E0,-1.538473368E-2,6.146774888E-1,-3.203964233E-2
6.098328783E0,7.964342833E-3,6.159018874E-1,-3.373146057E-2
6.116223317E0,2.496272326E-3,6.158978343E-1,-1.942920685E-2
6.134117667E0,1.769492030E-2,6.052575707E-1,-1.308345795E-2
6.152009149E0,2.928057313E-2,5.924875140E-1,-1.907253265E-2
6.169903437E0,-7.846146822E-3,5.782060623E-1,-2.207565308E-2
6.187794796E0,-9.219974279E-3,5.810771585E-1,-3.859329224E-2
6.205680662E0,1.430791616E-2,5.811787248E-1,-3.774356842E-2
6.223586548E0,-3.261011839E-2,5.829715133E-1,-1.674079895E-2
6.241480958E0,-6.260365248E-3,5.840912461E-1,-2.214908600E-2
6.259378422E0,-1.514747739E-2,5.878847837E-1,-3.752517700E-2
6.277269537E0,2.580344677E-3,5.718547106E-1,-1.754665375E-2
6.295163948E0,-4.807710648E-4,5.698065758E-1,-4.888439178E-2
6.313058298E0,-6.084164977E-2,5.784173012E-1,-3.501701355E-2
6.330952586E0,-3.312975168E-3,5.921649337E-1,-1.865196228E-2
6.348835156E0,-6.459742785E-3,5.901768208E-1,-2.935123444E-2
6.366744948E0,1.698243618E-2,6.003543139E-1,-2.269363403E-2
6.384635636E0,-3.787118196E-2,5.942167640E-1,-3.571510315E-2
6.402517658E0,-6.001797318E-2,5.881050825E-1,-3.961944580E-2
6.420424519E0,-3.417408466E-2,5.870082378E-1,-1.229953766E-2
6.438320761E0,2.089285851E-2,5.816489458E-1,4.053115845E-4
6.456213036E0,-1.357406378E-3,5.640236139E-1,-3.659248352E-3
6.474107386E0,1.767814159E-3,5.655522943E-1,-1.950359344E-2
6.492001980E0,-4.540029168E-2,5.725773573E-1,-3.424072266E-2
6.509896146E0,-2.083238959E-2,5.886269808E-1,-4.669094086E-2
6.527790497E0,-2.337253094E-2,6.037254930E-1,-5.794525146E-3
6.545687716E0,1.159396768E-2,5.909158587E-1,4.148483276E-4
6.563576511E0,1.913064718E-2,5.657430887E-1,-2.067470551E-2
6.581473607E0,-6.797552109E-3,5.723628402E-1,-3.299140930E-2
6.599368140E0,-4.829123616E-2,5.722655654E-1,-6.041145325E-2
6.617265420E0,-3.118094802E-2,5.909924507E-1,-3.812122345E-2
6.635156658E0,1.424181461E-2,5.961408615E-1,-8.641242981E-3
6.653047712E0,1.837167144E-2,5.881337523E-1,-2.244091034E-2
6.670945540E0,2.150979638E-2,5.745983720E-1,-3.343296051E-2
6.688829087E0,-4.318138957E-2,5.641524792E-1,-4.758358002E-2
6.706725513E0,-4.331186414E-2,5.709323883E-1,-4.113006592E-2
6.724628346E0,1.737952232E-3,5.714940429E-1,-3.095817566E-2
6.742525321E0,4.211458564E-2,5.777479410E-1,-1.724720001E-2
6.760417229E0,4.506170750E-3,5.777032375E-1,-2.832698822E-2
6.778316096E0,-1.194834709E-2,5.789609551E-1,-3.640460968E-2
6.796206295E0,-3.651052713E-2,5.743027925E-1,-3.887939453E-2
6.814100157E0,1.882809401E-2,5.724650621E-1,-3.834152222E-2
6.831994568E0,1.954984665E-2,5.688076615E-1,-2.040576935E-2
6.849891969E0,-6.828069687E-3,5.690968037E-1,-3.029251099E-2
6.867783206E0,-2.488589287E-2,5.558757782E-1,-2.213859558E-2
6.885668524E0,-2.622574568E-3,5.660800934E-1,-4.202842712E-2
6.903572029E0,2.088940144E-2,5.573539734E-1,-4.461097717E-2
6.921466317E0,-1.043647528E-2,5.656729341E-1,-5.377578735E-2
6.939360850E0,2.387940884E-3,5.678524375E-1,-4.181766510E-2
6.957255078E0,-2.320724726E-2,5.653101206E-1,-4.116153717E-2
6.975149672E0,7.542222738E-3,5.603365898E-1,-2.396583557E-2
6.993043901E0,2.244654298E-2,5.373407602E-1,-5.110168457E-2
7.010938189E0,1.020029187E-2,5.373786688E-1,-5.166625977E-2
7.028821247E0,3.627598286E-3,5.476617813E-1,-3.240871429E-2
7.046723776E0,-1.860126853E-2,5.429565907E-1,-3.297519684E-2
7.064621056E0,3.189370036E-2,5.596001148E-1,-4.664230347E-2
7.082515650E0,2.529647946E-2,5.521808863E-1,-4.057502747E-2
7.100410183E0,1.790937781E-2,5.605940819E-1,-4.456233978E-2
7.118306852E0,-2.196842432E-2,5.430832505E-1,-3.206253052E-2
7.136186981E0,9.555369616E-3,5.458996296E-1,-4.104137421E-2
7.154092928E0,2.637362480E-2,5.329947472E-1,-2.798938751E-2
7.171987583E0,4.371851683E-2,5.389553308E-1,-5.726337433E-2
7.189881566E0,-1.060232520E-2,5.287494659E-1,-2.950572968E-2
7.207773413E0,1.984912157E-2,5.218519568E-1,-1.540088654E-2
7.225673257E0,6.976515055E-3,5.411018133E-1,-3.061103821E-2
7.243564922E0,1.091969013E-2,5.397658348E-1,-6.274127960E-2
7.261459271E0,-2.720013261E-2,5.489827394E-1,-4.926490784E-2
7.279353682E0,1.461002231E-2,5.469198227E-1,-2.875518799E-2
7.297248032E0,5.061507225E-2,5.361295938E-1,-2.510452271E-2
7.315142382E0,2.480095625E-2,5.417192578E-1,-2.495384216E-2
7.333036976E0,-1.609396935E-2,5.415105820E-1,-4.788303375E-2
7.350930959E0,-2.932244539E-2,5.396547914E-1,-3.748226166E-2
7.368813469E0,2.383771539E-2,5.342710018E-1,-1.776981354E-2
7.386719721E0,3.414884210E-2,5.317150950E-1,-4.311561584E-2
7.404614010E0,-1.338183880E-2,5.299932957E-1,-4.838371277E-2
7.422504209E0,-1.684853435E-2,5.233395100E-1,-4.203796387E-2
7.440403136E0,1.113444567E-2,5.164605975E-1,-1.473522186E-2
7.458298525E0,4.887175560E-2,5.208550692E-1,-3.063297272E-2
7.476191715E0,1.165449619E-2,5.324493647E-1,-5.343818665E-2
7.494086004E0,-2.647745609E-2,5.125085115E-1,-3.011131287E-2
7.511980537E0,2.876707911E-2,5.079013109E-1,-8.552551270E-3
7.529874764E0,6.102624536E-2,5.293234587E-1,-3.361511230E-2
7.547753611E0,-1.002699137E-3,5.389370918E-1,-5.069541931E-2
7.565652234E0,-2.857774496E-2,5.326085091E-1,-3.460597992E-2
7.583546340E0,2.548488975E-2,5.275482535E-1,-2.388668060E-2
7.601438004E0,3.988689184E-2,5.133836269E-1,-3.165817261E-2
7.619337969E0,2.260997891E-2,5.091130733E-1,-4.388141632E-2
7.637241047E0,-3.399297595E-2,5.042904019E-1,-3.338432312E-2
7.655135336E0,2.065128088E-2,5.062513947E-1,-3.047752380E-2
7.673026817E0,1.925045252E-2,5.153989792E-1,-4.574108124E-2
7.690923852E0,-9.923994541E-3,5.133436918E-1,-5.072402954E-2
7.708809658E0,5.862623453E-3,5.118866563E-1,-5.184555054E-2
7.726715910E0,4.957589507E-2,5.041489005E-1,-2.848339081E-2
7.744607208E0,1.634648442E-2,4.945773780E-1,-4.208850861E-2
7.762501741E0,-3.412944078E-2,4.868713319E-1,-3.958225250E-2
7.780396090E0,-1.562300324E-2,4.951687753E-1,-3.164482117E-2
7.798291356E0,4.208457470E-2,5.134544969E-1,-2.193546295E-2
7.816184669E0,1.502561569E-2,5.237648487E-1,-1.289939880E-2
7.834078958E0,-3.169608116E-2,5.017000437E-1,-2.400302887E-2
7.851973552E0,4.730203748E-2,4.981203079E-1,-3.286361694E-2
7.869870220E0,1.012021303E-2,4.985582232E-1,-3.162288666E-2
7.887762007E0,-1.208341122E-2,4.997506738E-1,-1.298522949E-2
7.905658737E0,-4.793196917E-2,4.989109933E-1,-1.595020294E-2
7.923550769E0,5.318960547E-2,5.077697039E-1,-2.461528778E-2
7.941445423E0,2.855390310E-3,5.133512020E-1,-3.655433655E-2
7.959342642E0,-2.924725413E-2,4.900858700E-1,-3.332138062E-2
7.977234245E0,-6.596446037E-3,4.736492634E-1,-3.681945801E-2
7.995128473E0,9.914427996E-3,4.797060788E-1,-2.939701080E-2
8.013022823E0,2.518686652E-2,4.888536930E-1,-1.464843750E-2
8.030902585E0,-2.941739559E-2,4.774462879E-1,-7.332801819E-3
8.048799621E0,9.071767330E-3,4.798312187E-1,-3.268527985E-2
8.066706483E0,-7.222741842E-3,4.840213656E-1,-2.724933624E-2
8.084600406E0,-2.157139778E-2,4.793967009E-1,-1.361942291E-2
8.102491704E0,-1.942598820E-2,4.926703274E-1,-1.905250549E-2
8.120377020E0,-2.256542444E-3,4.951211512E-1,-2.369022369E-2
8.138283272E0,-6.524443626E-3,4.880487025E-1,-1.766586304E-2
8.156172923E0,-2.021580935E-3,4.761673212E-1,-1.605319977E-2
8.174072156E0,-2.540796995E-3,4.837713242E-1,-2.851295471E-2
8.191966689E0,-5.246311426E-2,5.039014220E-1,-5.419731140E-3
8.209863907E0,1.185756922E-2,4.974988699E-1,3.330230713E-3
8.227752275E0,1.905503869E-2,4.911795557E-1,-1.913738251E-2
8.245652546E0,3.562599421E-3,4.706725180E-1,-1.208686829E-2
8.263544028E0,-3.860396147E-2,4.386936128E-1,-1.875019073E-2
8.281435447E0,-7.963180542E-5,4.311215580E-1,-1.225185394E-2
8.299333154E0,-4.046222568E-2,4.606526494E-1,-1.186466217E-2
8.317227199E0,-1.182103157E-2,4.887525141E-1,-3.074645996E-3
8.335121732E0,2.158859372E-2,5.045618415E-1,-6.737709045E-3
8.353016082E0,-1.282095909E-3,4.853491485E-1,-2.002716064E-4
8.370910371E0,-1.623287797E-2,4.743725955E-1,-7.118225098E-3
8.388792575E0,4.896053672E-2,4.544672370E-1,-1.691818237E-2
8.406687901E0,-2.237355709E-2,4.662383199E-1,-7.845878601E-3
8.424593360E0,-2.250742912E-2,4.823837578E-1,3.344535828E-3
8.442488198E0,1.522770524E-2,4.815868437E-1,-2.562999725E-2
8.460382181E0,2.489739656E-2,4.738003314E-1,-3.491401672E-2
8.478276776E0,-1.539441943E-2,4.559825659E-1,-1.031684875E-2
8.496171187E0,4.355058074E-2,4.330361485E-1,-2.286815643E-2
8.514065354E0,-7.831156254E-4,4.436320364E-1,-3.600120544E-2
8.531959887E0,-5.365401506E-2,4.464653730E-1,-9.877204895E-3
8.549853870E0,1.552763581E-2,4.659579992E-1,-1.603507996E-2
8.567748464E0,3.565558791E-2,4.621536732E-1,-4.094028473E-2
8.585645989E0,-4.873633385E-2,4.462477565E-1,-2.193546295E-2
8.603522577E0,3.479078412E-2,4.500691295E-1,-4.370021820E-2
8.621431758E0,2.627521753E-2,4.634039998E-1,-5.023574829E-2
8.639326047E0,-5.768209696E-2,4.620808959E-1,-1.881980896E-2
8.657220336E0,1.942387223E-2,4.673510492E-1,-2.624416351E-2
8.675114625E0,7.085371017E-2,4.603071809E-1,-7.464504242E-2
8.693006045E0,-6.960973144E-2,4.384022355E-1,-1.833724976E-2
8.710903447E0,1.687440276E-2,4.406819642E-1,-4.090690613E-2
8.728786017E0,4.071322083E-2,4.549033046E-1,-5.940914154E-2
8.746692208E0,-2.423706651E-2,4.379332960E-1,-1.488208771E-2
8.764586741E0,2.155491710E-2,4.447368085E-1,-5.231380463E-2
8.782469067E0,5.207484961E-2,4.505261779E-1,-6.484127045E-2
8.800375685E0,-3.091958165E-2,4.342168868E-1,-7.647514343E-3
8.818269974E0,2.006059885E-2,4.559253752E-1,-3.991889954E-2
8.836164324E0,6.423711777E-2,4.720873535E-1,-4.588222504E-2
8.854058552E0,-6.327572465E-2,4.484960437E-1,-8.239746094E-4
8.871953146E0,4.021552205E-2,4.409388304E-1,-6.803417206E-2
8.889847373E0,2.865087986E-2,4.304111898E-1,-3.957939148E-2
8.907741967E0,-6.662976742E-2,4.306423068E-1,-9.092330933E-3
8.925639065E0,6.776246428E-2,4.440393746E-1,-3.769493103E-2
8.943530668E0,3.184592724E-2,4.668852091E-1,-1.924514771E-2
8.961425017E0,1.058012247E-3,4.343390167E-1,4.356861115E-2
8.979319489E0,3.941121697E-2,4.359300435E-1,-4.796791077E-2
8.997213656E0,-2.829015255E-3,4.135815203E-1,-2.088260651E-2
9.015108067E0,-1.417726278E-3,4.156793356E-1,-1.517105103E-2
9.033002662E0,6.760507822E-2,4.379496872E-1,-4.475593567E-2
9.050896706E0,1.469451189E-2,4.502097070E-1,-1.701641083E-2
9.068779642E0,1.078641415E-2,4.491830170E-1,-1.268959045E-2
9.086683025E0,7.500600815E-2,4.592442513E-1,-5.324649811E-2
9.104580366E0,-2.377471328E-2,4.186403751E-1,-7.935523987E-3
9.122477463E0,7.288172841E-2,4.288477898E-1,-3.419399261E-2
9.140368822E0,1.459440589E-2,4.246456027E-1,-5.158329010E-2
9.158263233E0,1.624995470E-2,4.155458510E-1,-1.280784607E-2
9.176157522E0,2.155593038E-2,4.492014647E-1,-5.533790588E-2
9.194050407E0,8.481353521E-3,4.604062140E-1,-4.092121124E-2
9.211946527E0,1.817756891E-2,4.314994812E-1,-3.948307037E-2
9.229840510E0,7.777768373E-2,4.409318566E-1,-8.558940887E-2
9.247732175E0,-3.133773804E-3,4.064361453E-1,-5.752372742E-2
9.265625915E0,5.933862925E-2,4.057615101E-1,-4.726600647E-2
9.283523927E0,2.066421509E-2,4.082563519E-1,-6.420326233E-2
9.301415346E0,1.141339540E-2,4.134945869E-1,-5.353641510E-2
9.319312992E0,7.991415262E-2,4.260669351E-1,-6.915950775E-2
9.337207037E0,-1.462301612E-2,4.194139838E-1,-5.556392670E-2
9.355101326E0,-1.056134701E-3,4.194832146E-1,-6.424236298E-2
9.372995921E0,7.315108180E-2,4.473761618E-1,-3.782653809E-2
9.390890331E0,-5.513477325E-2,4.365616441E-1,-4.830837250E-2
9.408778028E0,7.685029507E-2,4.215559661E-1,-4.891395569E-2
9.426675918E0,2.040570974E-2,3.916620314E-1,-1.700019836E-2
9.444573442E0,-3.712511063E-2,3.760991991E-1,-3.809070587E-2
9.462467793E0,5.491927266E-2,3.909209967E-1,-2.620697021E-2
9.480362264E0,-3.743574023E-2,4.235634506E-1,1.235961914E-3
9.498256309E0,4.923343658E-3,4.388926327E-1,-2.121734619E-2
9.516150964E0,6.335002184E-2,4.280973673E-1,1.673984528E-2
9.534045131E0,-3.979831934E-2,4.033277035E-1,-1.595497131E-2
9.551936918E0,4.317858815E-2,3.878411055E-1,-2.157020569E-2
9.569834258E0,-1.315701008E-2,3.596565425E-1,2.772998810E-2
9.587728791E0,-6.849527359E-3,3.716388941E-1,-9.157180786E-3
9.605625949E0,4.573997855E-2,4.057840407E-1,4.619789124E-2
9.623517369E0,-4.059624672E-2,4.142594039E-1,1.716709137E-2
9.641411352E0,2.046573162E-2,4.207141995E-1,-3.525733948E-3
9.659306251E0,4.743099213E-2,4.155389965E-1,5.508232117E-2
9.677200541E0,1.361382008E-2,3.971357346E-1,-2.010536194E-2
9.695091839E0,1.459813118E-2,3.785413802E-1,1.959896088E-2
9.712989302E0,4.802525043E-3,3.823091984E-1,-5.633354187E-3
9.730883773E0,1.519444585E-2,3.712433875E-1,-1.982498169E-2
9.748777879E0,1.473009586E-2,4.012789726E-1,5.599784851E-2
9.766672473E0,2.391764522E-2,4.109773636E-1,-3.301620483E-2
9.784566885E0,-1.390409470E-2,3.855859637E-1,1.574039459E-2
9.802457695E0,2.118334174E-2,3.875404894E-1,-5.493640900E-2
9.820355645E0,-1.054215431E-2,3.595287502E-1,-6.956577301E-2
9.838249995E0,-7.849812508E-3,3.830033839E-1,2.771377563E-3
9.856144345E0,7.093966007E-3,3.982574940E-1,-8.438968658E-2
9.874038878E0,-3.356909752E-2,4.025136828E-1,3.288173676E-2
9.891933168E0,2.327844501E-2,4.093532860E-1,-4.189109802E-2
9.909827456E0,-3.028166294E-2,3.763498068E-1,-3.657054901E-2
9.927721928E0,-1.266390085E-2,3.949624598E-1,-3.792190552E-2
9.945619513E0,-1.747548580E-2,3.997944593E-1,-6.208992004E-2
9.963510750E0,-4.445391893E-2,3.888461292E-1,2.180004120E-2
9.981405099E0,3.889757395E-2,4.005910158E-1,-6.864547729E-2
9.999300549E0,-5.509340763E-2,3.408204615E-1,-2.813148499E-2
1.001719386E1,4.793700576E-2,3.537320793E-1,-4.036808014E-2
1.003508522E1,-7.960718870E-2,3.327412307E-1,-4.042530060E-2
1.005298299E1,-1.077353954E-3,3.726270199E-1,-8.573532104E-4
1.007087703E1,-5.442553759E-2,3.847140670E-1,-3.802967072E-2
1.008875771E1,-2.761781216E-2,3.862981796E-1,2.153396606E-3
1.010665365E1,5.631640553E-2,3.943266273E-1,-5.095767975E-2
1.012456326E1,-6.291449070E-2,3.482479155E-1,-8.791923523E-3
1.014245456E1,2.189913392E-2,3.726197183E-1,-4.578113556E-2
1.016034890E1,-6.933373213E-2,3.465556204E-1,8.966445923E-3
1.017824344E1,-7.762193680E-3,3.640974164E-1,-3.125286102E-2
1.019612332E1,1.690885425E-2,3.713811934E-1,7.580757141E-3
1.021403202E1,-6.038606167E-2,3.769533336E-1,-1.834869385E-3
1.023192655E1,6.776571274E-2,3.913802505E-1,-1.721000671E-2
1.024982084E1,-1.070645452E-1,3.592014909E-1,1.284885406E-2
1.026771238E1,6.752455235E-2,3.793053925E-1,-5.446243286E-2
1.028561302E1,-4.953646660E-2,3.388744295E-1,3.880977631E-2
1.030350419E1,1.541274786E-2,3.524709046E-1,-5.710220337E-2
1.032139872E1,-1.946020126E-2,3.472418785E-1,5.064105988E-2
1.033929308E1,-7.181370258E-2,3.674383759E-1,-1.896667480E-2
1.035718761E1,3.332042694E-2,3.802728355E-1,1.067543030E-2
1.037508184E1,-4.888910055E-2,3.730363250E-1,-2.094268799E-3
1.039297313E1,5.042561889E-2,3.776422739E-1,-5.295562744E-2
1.041087072E1,-4.114723206E-2,3.586151004E-1,4.490375519E-2
1.042875744E1,3.380274773E-2,3.718927503E-1,-5.234241486E-2
1.044665661E1,-4.587769508E-4,3.404975832E-1,7.135486603E-2
1.046455389E1,3.795653582E-2,3.676548600E-1,-6.148910522E-2
1.048245044E1,-2.604705095E-2,3.536413312E-1,5.281829834E-2
1.050034284E1,1.357656717E-2,3.774987757E-1,-5.887031555E-2
1.051823712E1,-1.792997122E-2,3.760042191E-1,1.660060883E-2
1.053613129E1,8.488523960E-2,3.708354235E-1,-5.984020233E-2
1.055402576E1,-1.116657257E-2,3.379295766E-1,-4.043960571E-2
1.057191663E1,5.067032576E-2,3.292461932E-1,-3.971481323E-2
1.058981458E1,-4.515647888E-4,3.047209084E-1,-5.095958710E-2
1.060771186E1,-1.559436321E-2,3.383436501E-1,-1.184082031E-2
1.062560634E1,4.899892211E-2,3.477921784E-1,-6.842422485E-2
1.064349770E1,-2.466022968E-2,3.774348497E-1,-1.019382477E-2
1.066139217E1,1.155218482E-1,3.630751371E-1,-8.207035065E-2
1.067928676E1,-2.755630016E-2,3.439632058E-1,-4.345035553E-2
1.069716933E1,6.300291419E-2,3.348658681E-1,-1.113348007E-1
1.071507534E1,-5.622869730E-2,3.392951488E-1,-2.629280090E-2
1.073296987E1,5.322110653E-2,3.633381128E-1,-7.543087006E-2
1.075086410E1,4.653543234E-3,3.513911366E-1,3.453254700E-3
1.076874496E1,8.028745651E-2,3.507701755E-1,-7.847690582E-2
1.078664120E1,2.265489101E-2,3.122622371E-1,-6.638526917E-3
1.080453574E1,3.241011500E-2,3.107635379E-1,-1.337203979E-1
1.082243277E1,-1.610067487E-2,2.936787605E-1,-6.361007690E-4
1.084033927E1,1.876392961E-2,3.401808143E-1,-1.058721542E-1
1.085823252E1,1.380145550E-2,3.531161547E-1,4.800701141E-2
1.087612510E1,7.506406307E-2,3.957602978E-1,-5.953788757E-2
1.089401933E1,1.325398684E-2,3.630155325E-1,3.829669952E-2
1.091191374E1,9.531596303E-2,3.547556996E-1,-9.784317017E-2
1.092980827E1,-4.826515913E-3,3.102596998E-1,2.704811096E-2
1.094770274E1,8.290195465E-2,3.261935711E-1,-5.334377289E-2
1.096559978E1,-1.738718152E-2,2.770868540E-1,7.790279388E-2
1.098349157E1,1.030565798E-1,3.590266109E-1,-1.328182220E-2
1.100138567E1,-3.729552031E-2,3.294426799E-1,5.001640320E-2
1.101928020E1,6.658193469E-2,3.865625262E-1,-4.882812500E-2
1.103717468E1,6.047755480E-2,3.278796673E-1,5.401611328E-2
1.105506903E1,9.844991565E-2,3.468807936E-1,-4.016017914E-2
1.107296356E1,5.167454481E-3,2.766125202E-1,8.036518097E-2
1.109085779E1,1.010428667E-1,3.381776214E-1,-4.754257202E-2
1.110874347E1,3.201523423E-2,2.809140682E-1,1.026048660E-1
1.112664398E1,1.112609208E-1,3.680705428E-1,-5.374813080E-2
1.114454090E1,-6.897348166E-2,3.196052909E-1,6.650638580E-2
1.116243543E1,8.364561200E-2,3.534481525E-1,-4.709339142E-2
1.118032996E1,-9.440779686E-4,2.834825516E-1,1.037931442E-1
1.119822450E1,1.736255884E-1,3.378189802E-1,-7.239437103E-2
1.121611866E1,-1.467864215E-1,2.815790772E-1,6.247043610E-2
1.123401771E1,1.496331096E-1,3.565611243E-1,-1.051454544E-1
1.125190773E1,-9.743446112E-2,3.093514442E-1,8.885478973E-2
1.126980196E1,2.065989673E-1,3.595163822E-1,-5.588722229E-2
1.128769918E1,-1.300722361E-1,3.135226369E-1,7.651996613E-2
1.130557924E1,1.501614451E-1,3.289411068E-1,-9.444141388E-2
1.132348501E1,-1.504492462E-1,2.603299618E-1,6.990528107E-2
1.134137954E1,1.530570686E-1,2.926568985E-1,-1.186695099E-1
1.135927407E1,-1.239204705E-1,2.822549939E-1,4.163742065E-2
1.137715664E1,1.743190587E-1,3.548961878E-1,-1.214761734E-1
1.139506271E1,-1.591195166E-1,3.307267427E-1,-9.338378906E-3
1.141295731E1,2.102416754E-1,3.595309854E-1,-7.571601868E-2
1.143085147E1,-1.484688520E-1,3.127859831E-1,3.613948822E-2
1.144873410E1,2.328422219E-1,3.018004894E-1,-7.332229614E-2
1.146663743E1,-1.770223081E-1,2.688690424E-1,-1.380920410E-2
1.148453477E1,1.701800525E-1,2.997548580E-1,-9.252166748E-2
1.150242912E1,-1.319108009E-1,3.157283664E-1,-1.826095581E-2
1.152032371E1,2.140616477E-1,3.361669779E-1,-7.707786560E-2
1.153821794E1,-1.225984693E-1,3.580595255E-1,-5.784511566E-2
1.155611229E1,1.775670052E-1,3.370860815E-1,-6.895065308E-2
1.157400688E1,-8.681008220E-2,3.040114641E-1,-5.509567261E-2
1.159190142E1,1.626569033E-1,2.441073060E-1,-7.630348206E-3
1.160979540E1,-9.759834409E-2,2.645534277E-1,-9.781074524E-2
1.162769018E1,1.021735668E-1,2.822337151E-1,1.417541504E-2
1.164558715E1,-6.515812874E-2,3.276249170E-1,-1.094474792E-1
1.166347485E1,1.161970794E-1,3.110181689E-1,8.973121643E-3
1.168137304E1,1.412111521E-2,3.122903109E-1,-1.196146011E-1
1.169927075E1,6.124538183E-2,2.994096875E-1,3.227710724E-2
1.171716351E1,2.588266134E-2,2.795228958E-1,-6.768226624E-2
1.173505640E1,-1.514247060E-2,2.941425443E-1,1.361179352E-2
1.175295087E1,4.140180349E-2,2.979010940E-1,-8.783721924E-2
1.177084522E1,-2.350002527E-2,3.100626469E-1,-1.735401154E-2
1.178872736E1,1.112773120E-1,3.116357327E-1,-2.410030365E-2
1.180663123E1,-2.512899041E-2,3.215488195E-1,-6.233501434E-2
1.182452833E1,7.181364298E-2,3.109158874E-1,-2.072334290E-3
1.184242311E1,1.648944616E-2,2.837395072E-1,-7.392883301E-2
1.186031740E1,1.337289810E-2,2.721650004E-1,3.948688507E-2
1.187821773E1,2.462425828E-2,2.643471360E-1,-7.880878448E-2
1.189610652E1,-8.854687214E-3,2.825251818E-1,1.501941681E-2
1.191400032E1,9.921807051E-2,2.999872565E-1,-5.901908875E-2
1.193189504E1,1.233738661E-2,3.064113855E-1,-1.566219330E-2
1.194978933E1,8.297267556E-2,2.977452278E-1,-4.121112823E-2
1.196768362E1,1.181027293E-2,2.851504087E-1,-7.546615601E-2
1.198558114E1,9.506812692E-2,2.681352496E-1,8.121490479E-3
1.200347238E1,-1.047980785E-2,2.617147565E-1,-5.093955994E-2
1.202136722E1,2.590876818E-2,2.807629108E-1,1.438808441E-2
1.203925827E1,4.232078791E-2,3.104133606E-1,-7.383155823E-2
1.205715604E1,6.622144580E-2,3.360739350E-1,-3.866291046E-2
1.207505002E1,8.183187246E-2,3.050461411E-1,-4.370117188E-2
1.209294193E1,-2.202573419E-2,2.727277875E-1,-2.934741974E-2
1.211083891E1,5.797889829E-2,2.495874763E-1,-9.052276611E-3
1.212872471E1,1.311081648E-2,2.654480934E-1,-4.824638367E-2
1.214662517E1,2.636918426E-2,2.893310189E-1,-9.412765503E-4
1.216452196E1,2.495127916E-2,2.882663012E-1,-3.609752655E-2
1.218241680E1,-2.456605434E-3,3.046488762E-1,-2.662086487E-2
1.220031432E1,9.562507272E-2,2.828505039E-1,-7.940292358E-3
1.221820861E1,-1.203075051E-2,2.740049362E-1,-3.357410431E-2
1.223610021E1,6.203204393E-3,2.997728586E-1,-5.587577820E-3
1.225399438E1,-3.810566664E-2,3.227895498E-1,-2.178287506E-2
1.227188897E1,5.669793487E-2,3.479861021E-1,2.556037903E-2
1.228977685E1,4.871580005E-2,3.102579713E-1,-1.555919647E-2
1.230767779E1,-8.614063263E-3,3.008630872E-1,-4.990577698E-3
1.232557507E1,-5.723327398E-3,2.674264908E-1,-3.245353699E-3
1.234346656E1,1.537346840E-2,2.406252027E-1,-6.563186646E-3
1.236136084E1,5.871292949E-2,2.611755729E-1,2.583503723E-3
1.237925538E1,-4.319667816E-3,2.640065551E-1,-1.555538177E-2
1.239714973E1,1.695212722E-2,2.702451348E-1,1.194953918E-3
1.241504420E1,3.266662359E-3,2.641254663E-1,7.911682129E-3
1.243293879E1,3.666001558E-2,2.658814788E-1,9.889602661E-4
1.245083192E1,4.566282034E-2,2.698038816E-1,7.056236267E-3
1.246872151E1,6.124365330E-2,2.590037584E-1,-2.463245392E-2
1.248661916E1,1.379850507E-2,2.370315194E-1,-1.252269745E-2
1.250451613E1,4.779702425E-2,2.540047169E-1,-6.057739258E-3
1.252241091E1,1.904964447E-3,2.825324535E-1,4.772186279E-2
1.254029250E1,7.351613045E-2,3.174071312E-1,3.036975861E-2
1.255819979E1,3.124955297E-2,3.051682115E-1,-1.539230347E-3
1.257609683E1,3.357857466E-3,2.785389423E-1,-4.206085205E-2
1.259397390E1,8.902999759E-2,2.553923130E-1,-3.056335449E-2
1.261188290E1,2.878662944E-2,2.277821898E-1,-3.049564362E-2
1.262977744E1,6.174772978E-3,2.286563516E-1,-3.646373749E-2
1.264767178E1,2.201515436E-2,2.346337438E-1,-4.694938660E-2
1.266555570E1,3.830674291E-2,2.617796659E-1,-1.303863525E-2
1.268346049E1,1.567536592E-2,2.926869988E-1,-2.978420258E-2
1.270135502E1,2.565008402E-2,2.780606747E-1,-4.479026794E-2
1.271924937E1,5.535602570E-3,2.686429024E-1,-8.649444580E-2
1.273714390E1,2.639591694E-2,2.324257493E-1,-3.614139557E-2
1.275503825E1,4.909723997E-2,2.292023301E-1,-8.203029633E-2
1.277293303E1,-1.605123281E-2,2.517768145E-1,-8.640289307E-3
1.279082744E1,9.006232023E-3,2.910408378E-1,-5.059909821E-2
1.280872173E1,-3.017902374E-3,3.121679425E-1,-1.948738098E-2
1.282661278E1,4.074737430E-2,2.820799351E-1,-5.734062195E-2
1.284451031E1,3.180742264E-3,2.519734502E-1,-6.762409210E-2
1.286240490E1,4.213619232E-2,2.545795441E-1,-5.032253265E-2
1.288029943E1,9.335100651E-3,2.167609930E-1,-5.385303497E-2
1.289819366E1,4.474377632E-2,2.504228354E-1,-7.811546326E-3
1.291608801E1,-6.400990486E-2,2.272426486E-1,1.331806183E-2
1.293397870E1,1.644891500E-2,2.707829475E-1,-1.223850250E-2
1.295187714E1,-1.709955931E-2,2.744207382E-1,-3.296470642E-2
1.296977124E1,7.689410448E-2,2.831491828E-1,-1.465415955E-2
1.298766596E1,-9.870767593E-3,2.522058487E-1,-2.250576019E-2
1.300556318E1,-2.068281174E-5,2.474182844E-1,-3.529739380E-2
1.302344789E1,-7.047909498E-2,2.643061876E-1,-1.830005646E-2
1.304134931E1,1.476836205E-2,2.546977997E-1,3.753185272E-2
1.305924379E1,-4.935741425E-3,2.777545452E-1,5.412769318E-2
1.307713801E1,1.289129257E-2,2.634993196E-1,3.635692596E-2
1.309502089E1,-3.080916405E-2,2.504499555E-1,-1.680374146E-2
1.311292714E1,3.835839033E-2,2.362818718E-1,3.222084045E-2
1.313082137E1,5.390554667E-3,2.156221271E-1,3.154850006E-2
1.314872176E1,2.526712418E-2,2.009293437E-1,4.668426514E-2
1.316660720E1,-1.510655880E-2,2.288145423E-1,7.052898407E-2
1.318450454E1,1.700934768E-2,2.415699959E-1,1.085376740E-1
1.320239901E1,1.808404922E-3,2.600691319E-1,9.683990479E-2
1.322029361E1,5.334717035E-2,2.418521643E-1,4.177761078E-2
1.323818808E1,2.268660069E-2,2.620907426E-1,8.335113525E-2
1.325608249E1,4.193913937E-2,2.206463218E-1,3.386974335E-2
1.327397696E1,5.265799165E-2,2.465317249E-1,1.146469116E-1
1.329187125E1,-7.635706663E-2,2.158857584E-1,1.249570847E-1
1.330976572E1,7.422134280E-2,2.674634457E-1,1.324024200E-1
1.332765830E1,-1.326650381E-3,2.456166744E-1,5.854225159E-2
1.334555760E1,1.903894544E-2,2.511557341E-1,5.391025543E-2
1.336344914E1,8.328288794E-3,2.401300073E-1,7.369995117E-2
1.338134373E1,7.417070866E-2,2.144405842E-1,1.808357239E-2
1.339923790E1,-1.427584887E-2,2.072351575E-1,2.252101898E-2
1.341713243E1,8.326461911E-2,2.205411196E-1,3.687477112E-2
1.343502678E1,-5.443933606E-2,2.220714092E-1,3.982067108E-2
1.345290765E1,2.228617668E-2,2.240512371E-1,4.557704926E-2
1.347081554E1,1.049071550E-3,2.416241765E-1,-1.432895660E-2
1.348869164E1,5.333307385E-2,2.389690876E-1,-2.779293060E-2
1.350660168E1,1.442071795E-2,2.243683934E-1,-3.319835663E-2
1.352449914E1,1.967775822E-2,2.226668596E-1,-4.513072968E-2
1.354239636E1,4.480123520E-2,2.272324562E-1,-6.304645538E-2
1.356028827E1,-1.900476217E-2,2.219455838E-1,-2.745532990E-2
1.357816895E1,-3.176501393E-2,2.327728271E-1,-4.269599915E-2
1.359607715E1,2.038243413E-2,2.295579910E-1,-3.309154510E-2
1.361397132E1,6.168845296E-2,2.140300870E-1,-6.754302979E-2
1.363186842E1,4.976236820E-2,2.411897182E-1,-6.968116760E-2
1.364976014E1,3.934726119E-2,2.143369317E-1,-7.822704315E-2
1.366765468E1,-2.759546041E-3,2.077424526E-1,-6.370162964E-2
1.368554927E1,-4.280567169E-3,1.934580803E-1,-1.031351089E-1
1.370344374E1,3.614869714E-2,1.945849657E-1,-9.574508667E-2
1.372133803E1,1.374548674E-2,2.265576124E-1,-5.103206635E-2
1.373923262E1,1.953661442E-3,2.408672571E-1,-7.233810425E-2
1.375712691E1,4.202932119E-2,2.376166582E-1,-1.235809326E-1
1.377502151E1,5.334150791E-2,2.232799530E-1,-7.727718353E-2
1.379291903E1,3.509372473E-3,1.997683048E-1,-8.967494965E-2
1.381079879E1,1.424947381E-2,2.256958485E-1,-7.449817657E-2
1.382869174E1,-7.993370295E-3,2.477153540E-1,-7.667636871E-2
1.384659640E1,3.261730075E-2,2.603624463E-1,-4.153060913E-2
1.386449356E1,5.484393239E-2,2.450210452E-1,-7.952213287E-2
1.388238846E1,6.042367220E-2,2.273381948E-1,-5.887699127E-2
1.390028269E1,-6.689727306E-4,2.090388536E-1,-6.051921844E-2
1.391817832E1,3.526279330E-2,2.081900239E-1,-7.043647766E-2
1.393607182E1,5.741024017E-2,2.145350575E-1,-5.145454407E-2
1.395396598E1,6.749430299E-2,2.088274956E-1,-3.816890717E-2
1.397184886E1,-7.852613926E-4,1.939011812E-1,-4.736328125E-2
1.398975487E1,4.716312885E-2,2.118763924E-1,-2.913761139E-2
1.400764940E1,4.014354944E-2,2.168055177E-1,-1.360321045E-2
1.402553221E1,3.535503149E-2,2.017294168E-1,-3.846645355E-2
1.404342644E1,2.684736252E-2,2.084140182E-1,-4.801750183E-2
1.406132122E1,8.920720220E-2,2.028062940E-1,-2.769279480E-2
1.407922729E1,2.080222964E-2,2.063360214E-1,-1.398086548E-2
1.409712451E1,-9.061813354E-3,2.123095393E-1,-3.574275970E-2
1.411501147E1,6.658312678E-2,2.190954089E-1,-2.079677582E-2
1.413291070E1,5.862823129E-2,2.228935361E-1,-7.113456726E-3
1.415080487E1,1.799401641E-2,2.021920085E-1,5.223274231E-3
1.416869190E1,2.666422725E-2,1.887812018E-1,-1.180648804E-2
1.418657953E1,5.246424675E-2,1.728911400E-1,-2.854061127E-2
1.420448871E1,8.984473348E-2,1.720618606E-1,-1.505565643E-2
1.422238306E1,6.170213223E-3,1.780931950E-1,-7.906913757E-3
1.424027760E1,2.883335948E-2,1.854955554E-1,-1.156044006E-2
1.425817189E1,5.510154366E-2,2.065052390E-1,4.182815552E-3
1.427606648E1,4.074534774E-2,2.066715360E-1,-9.412765503E-4
1.429396071E1,3.487443924E-2,1.893774867E-1,-2.865982056E-2
1.431184328E1,1.174296141E-1,1.833462119E-1,-7.923126221E-3
1.432975008E1,5.548509955E-2,1.832027435E-1,-2.427387238E-2
1.434764425E1,-1.253724098E-3,1.816118956E-1,2.750396729E-3
1.436554159E1,5.440333486E-2,1.809726357E-1,-5.725860596E-3
1.438343307E1,8.130180836E-2,1.935535669E-1,-6.793022156E-3
1.440132760E1,5.724972486E-2,1.998799443E-1,-1.957798004E-2
1.441922518E1,-3.441521525E-2,1.976220608E-1,-1.483154297E-2
1.443711648E1,1.314421892E-1,1.816672683E-1,-2.106380463E-2
1.445501120E1,1.036891341E-1,1.819700003E-1,-3.154945374E-2
1.447290561E1,-4.515039921E-2,1.696580648E-1,-2.039623260E-2
1.449079709E1,1.192867756E-3,1.758580804E-1,8.177757263E-3
1.450869162E1,9.821349382E-2,1.817251444E-1,-1.045322418E-2
1.452658591E1,5.663436651E-2,2.163400054E-1,-2.784442902E-2
1.454448649E1,1.332592964E-2,2.119187713E-1,-1.158332825E-2
1.456237791E1,1.321545243E-2,2.064813375E-1,-3.560447693E-2
1.458027250E1,8.707490563E-2,1.997851133E-1,-4.408359528E-2
1.459816966E1,3.647246957E-2,2.013105154E-1,-4.491043091E-2
1.461605614E1,-5.828565359E-2,1.994345188E-1,-2.704238892E-2
1.463395580E1,2.703806758E-2,1.956951618E-1,-1.148891449E-2
1.465183843E1,5.163171887E-2,1.906014085E-1,-4.240036011E-2
1.466974486E1,6.591379642E-3,1.965457201E-1,-4.061317444E-2
1.468762426E1,-4.651665688E-2,1.894778013E-1,-4.682636261E-2
1.470553478E1,2.963635325E-2,1.802626252E-1,-4.891872406E-2
1.472342822E1,1.294127107E-2,1.598232985E-1,-3.836250305E-2
1.474132245E1,-3.105175495E-2,1.940737963E-1,-4.137802124E-2
1.475921728E1,-6.212830544E-2,2.067050338E-1,-4.046630859E-2
1.477711163E1,4.948633909E-2,2.102186680E-1,-3.862953186E-2
1.479500611E1,9.067267179E-2,2.168936133E-1,-2.019023895E-2
1.481290052E1,3.964984417E-2,2.190076709E-1,-1.703071594E-2
1.483079499E1,-4.938331246E-2,1.967843175E-1,-3.291416168E-2
1.484868958E1,3.063562512E-2,1.722478271E-1,1.118755341E-2
1.486658106E1,8.603385091E-2,1.663717628E-1,6.619453430E-3
1.488447834E1,6.903478503E-2,2.064287663E-1,-1.021194458E-2
1.490237288E1,-3.713181615E-2,2.230234146E-1,1.276969910E-2
1.492026747E1,3.005576134E-2,2.090231180E-1,4.500102997E-2
1.493816194E1,1.115978658E-1,1.800779104E-1,5.409526825E-2
1.495605666E1,1.059095263E-1,1.589707732E-1,3.033256531E-2
1.497395125E1,-3.777325153E-2,1.575076580E-1,2.058982849E-3
1.499183364E1,-4.450193048E-2,1.459431648E-1,2.053356171E-2
1.500973977E1,7.548484206E-2,1.617279053E-1,4.961776733E-2
1.502763436E1,1.310826838E-1,1.755110025E-1,3.356456757E-2
1.504553164E1,-7.345944643E-3,2.161309123E-1,3.532600403E-2
1.506342306E1,-7.618722320E-2,1.900669932E-1,1.706695557E-2
1.508131772E1,6.163209677E-2,1.987763643E-1,4.396343231E-2
1.509921225E1,1.049161553E-1,1.808326840E-1,9.988498688E-2
1.511710648E1,1.663234830E-2,2.009221911E-1,1.805782318E-2
1.513500107E1,-1.008588672E-1,2.008008957E-1,5.295753479E-2
1.515289567E1,1.442375779E-2,1.939318180E-1,3.145885468E-2
1.517078984E1,9.818488359E-2,1.780513525E-1,6.406497955E-2
1.518868498E1,1.100868881E-1,1.810783148E-1,2.915096283E-2
1.520657597E1,-1.061836481E-1,1.711542010E-1,1.641654968E-2
1.522447344E1,-2.957880497E-4,1.781842113E-1,-3.995895386E-4
1.524236064E1,2.215772867E-2,1.546713710E-1,-5.848884583E-3
1.526026262E1,1.137786508E-1,1.434885263E-1,-1.354217529E-4
1.527815703E1,-9.642809629E-3,1.448662281E-1,-3.932571411E-2
1.529605138E1,-6.230214238E-2,1.683186293E-1,-4.357814789E-2
1.531394616E1,-3.075861931E-2,1.862829924E-1,-3.516197205E-2
1.533182849E1,1.088434160E-1,1.591428518E-1,-2.692508698E-2
1.534973181E1,5.085518956E-2,1.532785296E-1,-5.419158936E-2
1.536762775E1,-1.822948456E-2,1.683320403E-1,-5.302810669E-2
1.538552686E1,-7.217520475E-2,1.807242632E-1,-7.972240448E-2
1.540341828E1,5.682238936E-2,1.807757020E-1,-4.411888123E-2
1.542131281E1,9.173387289E-2,1.815183163E-1,-4.304409027E-2
1.543920740E1,2.724680305E-2,1.949284673E-1,-5.024242401E-2
1.545710468E1,-3.224560618E-2,1.902163625E-1,-7.036018372E-2
1.547499623E1,1.747551560E-2,1.814748645E-1,-1.085700989E-1
1.549289082E1,1.260864139E-1,1.566898823E-1,-4.914760590E-2
1.551078523E1,9.582766891E-2,1.371877789E-1,-3.160476685E-2
1.552867982E1,1.479864120E-3,1.388499141E-1,-3.866863251E-2
1.554657106E1,-1.096650958E-2,1.580762863E-1,-7.545280457E-2
1.556446865E1,7.346668839E-2,1.703490615E-1,-6.863689423E-2
1.558236324E1,8.460354805E-2,1.730476618E-1,-2.667808533E-2
1.560025771E1,7.181224227E-2,1.525710821E-1,-4.127883911E-2
1.561815194E1,2.222985029E-2,1.612290740E-1,-3.008842468E-2
1.563604654E1,4.971802235E-2,1.605619788E-1,-5.335426331E-2
1.565394101E1,2.838665247E-2,1.435793042E-1,-3.820228577E-2
1.567182413E1,2.363172174E-2,1.729575992E-1,-1.104927063E-2
1.568973288E1,7.222396135E-2,1.919537187E-1,6.608009338E-3
1.570762448E1,6.320127845E-2,1.815782189E-1,2.575874329E-3
1.572552201E1,6.536135077E-2,1.622617841E-1,9.098052979E-3
1.574341343E1,2.202111483E-2,1.325394511E-1,-7.456779480E-3
1.576130796E1,2.721163630E-2,1.435408592E-1,-1.947784424E-2
1.577920030E1,3.371608257E-2,1.354153156E-1,9.593963623E-3
1.579709709E1,5.082339048E-2,1.512385607E-1,1.228237152E-2
1.581499132E1,2.446341515E-2,1.551994681E-1,1.903915405E-2
1.583288591E1,3.865566850E-2,1.689196229E-1,1.592826843E-2
1.585078044E1,4.534161091E-2,1.629508734E-1,-1.010513306E-2
1.586866716E1,3.771021962E-2,1.401748657E-1,-1.732254028E-2
1.588656621E1,2.540796995E-3,1.375855803E-1,2.452754974E-2
1.590446374E1,-9.755849838E-3,1.626913548E-1,4.101276398E-2
1.592235833E1,4.039222002E-2,1.773138046E-1,2.159881592E-2
1.594025292E1,6.436762214E-2,1.911708117E-1,7.339477539E-3
1.595814740E1,6.546875834E-2,1.740368605E-1,7.523536682E-3
1.597604199E1,-2.370536327E-2,1.647549272E-1,-2.809524536E-3
1.599393622E1,-2.498817444E-2,1.383959055E-1,-3.200626373E-2
1.601181879E1,5.808472633E-2,1.384642720E-1,6.017684937E-3
1.602972223E1,4.712274671E-2,1.427503228E-1,7.080078125E-3
1.604761982E1,5.574685335E-2,1.553295255E-1,-1.513290405E-2
1.606551740E1,-4.908591509E-3,1.796147227E-1,-4.543113708E-2
1.608340571E1,1.317325234E-2,1.736159325E-1,-5.528259277E-2
1.610130317E1,2.876436710E-2,1.726176143E-1,-4.115295410E-2
1.611919764E1,2.972558141E-2,1.540112495E-1,-3.501796722E-2
1.613709224E1,5.843859911E-2,1.581837535E-1,-4.448509216E-2
1.615498543E1,6.602609158E-2,1.447288990E-1,-5.437278748E-2
1.617288137E1,4.903396964E-2,1.484614015E-1,-7.151317596E-2
1.619077883E1,-1.113665104E-2,1.542153358E-1,-6.309509277E-2
1.620867013E1,4.864311218E-2,1.792118549E-1,-6.511592865E-2
1.622656130E1,6.330165267E-2,1.875873804E-1,-3.382587433E-2
1.624445895E1,1.103493869E-1,1.650359035E-1,-4.427337646E-2
1.626235342E1,3.117001057E-2,1.468785405E-1,-6.534481049E-2
1.628024100E1,6.295371056E-2,1.249927282E-1,-5.720424652E-2
1.629814255E1,4.427391291E-2,1.296416521E-1,-4.899024963E-2
1.631603690E1,3.865891695E-2,1.563161016E-1,-3.585243225E-2
1.633393161E1,6.638935208E-2,1.655818224E-1,-3.529834747E-2
1.635181931E1,5.160036683E-2,1.599417925E-1,-2.664470673E-2
1.636972044E1,1.212195754E-1,1.635807157E-1,-3.639888763E-2
1.638761192E1,7.839459181E-2,1.392245293E-1,-1.440620422E-2
1.640551249E1,6.872141361E-2,1.433947682E-1,-9.516716003E-3
1.642340373E1,6.828996539E-2,1.370514035E-1,-2.426338196E-2
1.644129832E1,1.028822660E-1,1.496369839E-1,7.991790771E-4
1.645919310E1,6.316444278E-2,1.691177487E-1,-2.500534058E-3
1.647708745E1,9.408131242E-2,1.873995662E-1,5.492210388E-3
1.649498186E1,8.582085371E-2,1.518929005E-1,6.106376648E-3
1.651287658E1,1.417801678E-1,1.259010434E-1,-9.117126465E-4
1.653077068E1,8.788305521E-2,9.969067574E-2,-7.067680359E-3
1.654866528E1,6.571400166E-2,8.647167683E-2,3.785228729E-2
1.656655670E1,4.375645518E-2,1.397009492E-1,1.712512970E-2
1.658443970E1,1.315885484E-1,1.379258037E-1,6.263732910E-2
1.660235071E1,7.003372908E-2,1.535383463E-1,5.804061890E-3
1.662024341E1,3.620910645E-2,1.246266365E-1,1.356029510E-2
1.663813727E1,2.749806643E-2,1.153209805E-1,-2.254676819E-2
1.665603229E1,9.610784054E-2,9.787529707E-2,2.527618408E-2
1.667392646E1,4.296791553E-2,1.328875422E-1,2.115249634E-3
1.669181282E1,7.243379951E-2,1.494930983E-1,2.485275269E-2
1.670971553E1,8.520957828E-2,1.518361568E-1,3.700923920E-2
1.672761006E1,1.856577396E-2,1.430528164E-1,5.317687988E-3
1.674550789E1,4.870963097E-2,1.514165401E-1,1.656055450E-2
1.676338625E1,2.273622155E-2,1.259047985E-1,1.323890686E-2
1.678129348E1,1.049586535E-1,1.118066907E-1,1.404857635E-2
1.679918825E1,-1.189553738E-2,9.996026754E-2,1.693916321E-2
1.681708254E1,2.100664377E-2,1.276533604E-1,-7.253646851E-3
1.683497707E1,1.677614450E-2,1.384081244E-1,2.220344543E-2
1.685285995E1,1.155410707E-1,1.793885231E-1,8.255004883E-3
1.687076614E1,4.340794683E-2,1.681826711E-1,4.840850830E-2
1.688866043E1,3.800797462E-2,1.558034420E-1,1.599311829E-2
1.690655234E1,-3.522375226E-2,1.147220135E-1,1.641082764E-2
1.692444944E1,5.551958084E-2,1.332571507E-1,1.414394379E-2
1.694234403E1,3.968253732E-2,1.372658014E-1,2.514934540E-2
1.696023856E1,5.863943696E-2,1.363489628E-1,-4.428863525E-3
1.697813291E1,5.125066638E-2,1.569714546E-1,-6.669998169E-3
1.699602732E1,2.734273672E-2,1.608235240E-1,-2.021789551E-4
1.701391728E1,8.414018154E-2,1.623409390E-1,-1.089572906E-2
1.703180498E1,6.338089705E-2,1.361657381E-1,-7.116317749E-3
1.704971098E1,8.886343241E-2,1.277462840E-1,-3.727722168E-2
1.706760527E1,7.255294919E-2,1.349177361E-1,5.436897278E-3
1.708549022E1,5.784800649E-2,1.296142340E-1,-3.668212891E-2
1.710339678E1,6.045165658E-2,1.294744015E-1,-5.465507507E-3
1.712128881E1,7.975396514E-2,1.292917132E-1,-4.688549042E-2
1.713917120E1,4.691609740E-2,1.321207285E-1,-3.381061554E-2
1.715707769E1,1.020924747E-1,1.254891157E-1,-4.980468750E-2
1.717497223E1,4.289025068E-2,1.177146435E-1,-5.181789398E-2
1.719286975E1,9.527206421E-2,1.312304735E-1,-8.267402649E-2
1.721076105E1,4.035830498E-2,1.138260961E-1,-8.248138428E-2
1.722865582E1,1.018152833E-1,1.268407702E-1,-5.852794647E-2
1.724653864E1,8.796760440E-2,1.472575665E-1,-6.419658661E-2
1.726443305E1,8.656355739E-2,1.530804634E-1,-5.283260345E-2
1.728232545E1,6.903809309E-2,1.472712755E-1,-7.105445862E-2
1.730023689E1,7.952496409E-2,1.197389960E-1,-4.646968842E-2
1.731812819E1,4.651689529E-2,8.959656954E-2,-4.500579834E-2
1.733602260E1,4.366517067E-2,9.927374125E-2,-3.178691864E-2
1.735392012E1,5.492854118E-2,9.796518087E-2,-6.238269806E-2
1.737180043E1,6.594192982E-2,1.309974790E-1,-3.168964386E-2
1.738970607E1,4.855984449E-2,1.250901818E-1,-2.825450897E-2
1.740760067E1,3.977540135E-2,1.037886739E-1,1.296043396E-3
1.742549587E1,5.788692832E-2,8.413642645E-2,-3.279399872E-2
1.744337576E1,5.501553416E-2,9.844726324E-2,-3.820800781E-2
1.746128402E1,3.650408983E-2,1.012269855E-1,-1.942157745E-2
1.747917849E1,1.076706052E-1,1.383463740E-1,-4.038810730E-3
1.749707309E1,1.429057121E-2,1.310422421E-1,2.057456970E-2
1.751496756E1,9.088319540E-2,1.438977718E-1,1.309394836E-2
1.753286222E1,1.800611615E-2,1.332427263E-1,1.867961884E-2
1.755075357E1,1.458865404E-1,1.150683761E-1,1.176357269E-2
1.756864799E1,5.947136879E-2,9.599488974E-2,6.794738770E-2
1.758654514E1,8.042669296E-2,9.256374836E-2,5.677700043E-2
1.760443998E1,-4.769387841E-2,1.048300862E-1,5.912494659E-2
1.762233427E1,7.422152162E-2,9.326767921E-2,5.179214478E-2
1.764022886E1,8.671215177E-2,1.116797924E-1,5.656719208E-2
1.765812340E1,1.013666689E-1,9.782069921E-2,5.627346039E-2
1.767601476E1,-1.139819622E-3,9.727698565E-2,5.138778687E-2
1.769391271E1,2.981805801E-2,9.572905302E-2,2.732276917E-2
1.771179454E1,8.134704828E-2,1.137793064E-1,4.539394379E-2
1.772970122E1,8.114117384E-2,1.353010535E-1,4.571056366E-2
1.774759564E1,7.442790270E-2,1.585810781E-1,5.308914185E-2
1.776548992E1,8.843350410E-2,1.760793328E-1,3.674125671E-2
1.778338482E1,2.489593625E-2,1.599086523E-1,3.612899780E-2
1.780127917E1,9.794133902E-2,1.272270083E-1,-9.334564209E-3
1.781917395E1,7.280093431E-2,1.109321117E-1,1.295375824E-2
1.783706659E1,6.800496578E-2,1.088322401E-1,-4.008007050E-2
1.785496271E1,5.838766694E-2,1.248849630E-1,-3.132438660E-2
1.787285730E1,8.444279432E-2,1.268705130E-1,-4.627990723E-2
1.789075159E1,5.697789788E-2,1.298013330E-1,-3.116416931E-2
1.790864491E1,4.823011160E-2,1.046993732E-1,-6.634998322E-2
1.792653645E1,7.762432098E-2,9.868896008E-2,-9.009742737E-2
1.794443513E1,5.825144053E-2,9.287184477E-2,-7.724094391E-2
1.796232948E1,7.962271571E-2,1.198903918E-1,-9.417438507E-2
1.798022426E1,6.463745236E-2,1.242486238E-1,-1.165704727E-1
1.799811849E1,6.510454416E-2,1.354377270E-1,-9.744930267E-2
1.801601290E1,3.728613257E-2,1.557112336E-1,-9.009838104E-2
1.803390725E1,9.878563881E-2,1.450641751E-1,-1.032943726E-1
1.805179336E1,8.092296124E-2,1.395261884E-1,-1.008234024E-1
1.806969644E1,6.740221381E-2,1.199650168E-1,-7.410144806E-2
1.808759390E1,6.242820621E-2,1.003845334E-1,-5.437850952E-2
1.810548886E1,5.723157525E-2,1.037931442E-1,-7.742786407E-2
1.812337991E1,7.878834009E-2,1.306077242E-1,-6.336021423E-2
1.814127432E1,1.031563878E-1,1.262595057E-1,-3.356456757E-2
1.815916910E1,6.156101823E-2,1.227795482E-1,2.917289734E-3
1.817704892E1,5.730450153E-2,1.168612838E-1,-1.403808594E-2
1.819495798E1,5.993229151E-2,1.109423637E-1,-5.949020386E-3
1.821285282E1,1.211494207E-1,1.314280629E-1,8.077621460E-4
1.823074668E1,5.245286226E-2,1.163915992E-1,5.834388733E-2
1.824864219E1,8.405923843E-2,1.171960235E-1,4.783344269E-2
1.826653270E1,1.811984181E-2,1.260279417E-1,8.135032654E-2
1.828442900E1,8.870548010E-2,1.298736334E-1,8.160781860E-2
1.830232482E1,1.047618091E-1,1.147537231E-1,1.063156128E-1
1.832021959E1,1.347192228E-1,9.247946739E-2,1.222581863E-1
1.833811272E1,-8.298963308E-3,1.088062525E-1,1.272048950E-1
1.835601116E1,8.706733584E-2,8.821111917E-2,8.207798004E-2
1.837390283E1,6.803840399E-2,8.411699533E-2,1.310377121E-1
1.839178582E1,7.827672362E-2,8.271425962E-2,1.170473099E-1
1.840968872E1,5.727788806E-2,1.137408018E-1,1.158475876E-1
1.842758612E1,8.634573221E-2,1.006030440E-1,8.938121796E-2
1.844548303E1,3.560686111E-2,1.252231002E-1,8.982372284E-2
1.846337513E1,1.149390042E-1,1.126371026E-1,4.047966003E-2
1.848126948E1,7.090669870E-2,1.113876104E-1,4.219913483E-2
1.849916419E1,7.002314925E-2,1.131777763E-1,4.903602600E-2
1.851705854E1,4.136058688E-2,1.273611784E-1,3.641414642E-2
1.853495448E1,1.016564965E-1,1.344556808E-1,-2.193546295E-2
1.855284761E1,4.237908125E-2,1.385925412E-1,-2.420425415E-2
1.857074184E1,1.491070986E-1,1.046425104E-1,-5.798912048E-2
1.858863942E1,9.125670791E-2,7.710641623E-2,-1.049795151E-1
1.860652913E1,5.988201499E-2,5.476182699E-2,-1.234025955E-1
1.862442550E1,6.476825476E-2,7.408392429E-2,-1.410188675E-1
1.864231905E1,1.444794834E-1,7.715505362E-2,-1.458225250E-1
1.866021352E1,1.192914844E-1,8.977806568E-2,-1.322851181E-1
1.867809738E1,9.607863426E-2,1.026836634E-1,-1.297159195E-1
1.869600345E1,3.202068806E-2,1.085095406E-1,-1.718072891E-1
1.871389792E1,1.368969679E-1,1.002876759E-1,-1.807632446E-1
1.873178043E1,1.357034147E-1,8.392649889E-2,-1.576614380E-1
1.874968942E1,1.111951172E-1,8.897763491E-2,-1.666402817E-1
1.876758127E1,7.520622015E-2,1.092150807E-1,-1.715097427E-1
1.878547727E1,1.262745559E-1,1.106981039E-1,-1.500101089E-1
1.880337034E1,1.438392699E-1,9.613603354E-2,-1.444339752E-1
1.882126499E1,9.349700809E-2,1.003308892E-1,-1.345882416E-1
1.883915946E1,1.004101038E-1,1.005817056E-1,-1.745872498E-1
1.885705632E1,9.794345498E-2,9.764528275E-2,-1.123285294E-1
1.887494823E1,9.638634324E-2,6.931769848E-2,-1.049242020E-1
1.889283055E1,6.755638123E-2,6.956398487E-2,-5.978965759E-2
1.891073699E1,5.454915762E-2,8.598083258E-2,-8.779621124E-2
1.892863158E1,8.859714866E-2,1.081485748E-1,-1.160240173E-2
1.894652544E1,1.278823614E-1,1.112731099E-1,-1.255702972E-2
1.896442034E1,7.286986709E-2,1.039701104E-1,5.113315582E-2
1.898231518E1,3.811550140E-2,1.097079515E-1,3.881263733E-2
1.900020971E1,9.418985248E-2,9.291952848E-2,6.088256836E-2
1.901810400E1,1.447978020E-1,6.823945045E-2,7.208156586E-2
1.903599860E1,6.979915500E-2,7.534897327E-2,1.496829987E-1
1.905389301E1,5.268836021E-2,5.654180050E-2,1.131000519E-1
1.907177558E1,7.234260440E-2,7.936000824E-2,1.276674271E-1
1.908968183E1,1.787871718E-1,7.800859213E-2,1.234445572E-1
1.910757673E1,1.216896474E-1,7.613289356E-2,1.674871445E-1
1.912547535E1,7.479330897E-2,6.734794378E-2,1.722993851E-1
1.914335206E1,6.486710906E-2,5.678468943E-2,1.638402939E-1
1.916126002E1,1.588175893E-1,5.202317238E-2,1.691761017E-1
1.917915456E1,1.715724170E-1,5.463707447E-2,1.451168060E-1
1.919704884E1,1.451915503E-1,6.939637661E-2,1.832532883E-1
1.921494338E1,1.166332066E-1,7.842034101E-2,1.456251144E-1
1.923284090E1,1.356637478E-1,8.158272505E-2,1.540307999E-1
1.925073244E1,1.424686909E-1,5.611300468E-2,6.401824951E-2
1.926862704E1,1.430844367E-1,7.298654318E-2,1.149435043E-1
1.928651772E1,1.084330380E-1,4.976594448E-2,7.724285126E-2
1.930441580E1,9.829470515E-2,6.714886427E-2,5.578804016E-2
1.932231033E1,1.159645915E-1,7.566434145E-2,-5.284309387E-2
1.934020517E1,1.404226422E-1,9.650671482E-2,9.298324585E-4
1.935809647E1,1.594131291E-1,1.068933606E-1,-8.750438690E-2
1.937599375E1,1.062822044E-1,1.216973662E-1,-7.158946991E-2
1.939388846E1,9.561544657E-2,1.025648713E-1,-1.293296814E-1
1.941177195E1,1.302699745E-1,1.048209071E-1,-1.396951675E-1
1.942967704E1,1.567855775E-1,8.316773176E-2,-1.741552353E-1
1.944757188E1,1.069193184E-1,8.969414234E-2,-1.822328568E-1
1.946546910E1,8.778700233E-2,9.780448675E-2,-2.130851746E-1
1.948336345E1,1.342587471E-1,1.061362624E-1,-2.212285995E-1
1.950125517E1,1.295935214E-1,1.068794727E-1,-2.165441513E-1
1.951914965E1,1.187047958E-1,8.860766888E-2,-2.362298965E-1
1.953704400E1,6.788870692E-2,9.747076035E-2,-2.263813019E-1
1.955493548E1,1.070627272E-1,1.009648442E-1,-2.185621262E-1
1.957283312E1,8.326354623E-2,1.047949195E-1,-1.911401749E-1
1.959072784E1,6.914359331E-2,1.008555293E-1,-2.232780457E-1
1.960862194E1,8.088299632E-2,1.240068078E-1,-1.960935593E-1
1.962651428E1,8.414092660E-2,1.270519495E-1,-1.681623459E-1
1.964440845E1,9.593358636E-2,9.491115808E-2,-1.393775940E-1
1.966230548E1,2.828577161E-2,9.460586309E-2,-1.067867279E-1
1.968020081E1,7.741421461E-2,6.073135138E-2,-9.897232056E-2
1.969809449E1,1.265162230E-1,4.997670650E-2,-4.114151001E-2
1.971598896E1,8.220237494E-2,4.330134392E-2,4.031181335E-3
1.973388355E1,-4.092454910E-4,5.578923225E-2,6.163215637E-2
1.975176594E1,8.751860261E-2,4.753613472E-2,1.768398285E-2
1.976967244E1,8.838009834E-2,4.820740223E-2,9.047126770E-2
1.978756697E1,1.231269240E-1,3.459775448E-2,1.034803391E-1
1.980546449E1,1.812973619E-2,2.710169554E-2,1.539611816E-1
1.982335573E1,3.662961721E-2,1.977652311E-2,1.605396271E-1
1.984125032E1,1.060330570E-1,1.975226402E-2,1.716976166E-1
1.985914510E1,1.562771499E-1,2.515131235E-2,1.948118210E-1
1.987704208E1,6.240668893E-2,3.535282612E-2,1.892328262E-1
1.989493783E1,3.093519807E-2,1.942300797E-2,1.580286026E-1
1.991282852E1,1.657846570E-1,1.272714138E-2,1.524438858E-1
1.993072061E1,1.160986423E-1,-2.888619900E-2,1.798324585E-1
1.994861728E1,8.488541842E-2,-7.514119148E-3,1.636810303E-1
1.996650882E1,-2.295416594E-2,-1.526850462E-2,1.534175873E-1
1.998440610E1,1.393208504E-1,1.049768925E-2,1.131582260E-1
2.000230057E1,6.888628006E-2,2.635395527E-2,1.286830902E-1
2.002019517E1,1.090605259E-1,4.197561741E-2,8.309459686E-2
2.003808970E1,6.981879473E-2,3.775435686E-2,4.663753510E-2
2.005598429E1,9.883835912E-2,3.662860394E-2,5.132961273E-2
2.007387584E1,9.432023764E-2,3.346788883E-2,-1.262855530E-2
2.009176085E1,3.396788239E-2,5.083590746E-2,-1.819229126E-2
2.010966759E1,7.845318317E-2,3.526705503E-2,-5.563735962E-2
2.012756194E1,6.970322132E-2,3.760093451E-2,-5.808353424E-2
2.014544805E1,6.570345163E-2,4.219949245E-2,-1.034460068E-1
2.016335088E1,7.943424582E-2,5.425816774E-2,-9.768867493E-2
2.018123724E1,7.643765211E-2,6.329441071E-2,-9.877300262E-2
2.019914025E1,1.510615647E-1,6.629246473E-2,-1.203622818E-1
2.021703454E1,2.409696579E-2,6.929510832E-2,-1.040344238E-1
2.023492889E1,7.281476259E-2,5.179017782E-2,-1.370029449E-1
2.025282367E1,3.730750084E-2,5.140703917E-2,-1.143941879E-1
2.027071796E1,1.258726120E-1,6.146711111E-2,-1.481180191E-1
2.028861035E1,-6.344020367E-3,7.940948009E-2,-9.935283661E-2
2.030650373E1,5.796229839E-2,7.511073351E-2,-1.295318604E-1
2.032440119E1,7.498520613E-2,5.992645025E-2,-1.181459427E-1
2.034229578E1,1.059360504E-1,3.723937273E-2,-9.363460541E-2
2.036019056E1,8.320462704E-2,2.928125858E-2,-9.522151947E-2
2.037808491E1,-3.786557913E-2,4.712128639E-2,-4.870128632E-2
2.039597920E1,6.559950113E-2,5.039221048E-2,-5.273246765E-2
2.041387367E1,9.155082703E-2,5.286395550E-2,-3.884696960E-2
2.043175881E1,9.969100356E-2,5.486977100E-2,-1.073551178E-2
2.044966268E1,-3.510296345E-3,2.619796991E-2,-1.869392395E-2
2.046754262E1,7.701754570E-2,3.165853024E-2,-2.307128906E-2
2.048544033E1,1.126708984E-1,2.257788181E-2,1.712799072E-3
2.050333926E1,4.345238209E-2,2.173238993E-2,1.523971558E-2
2.052123196E1,2.146273851E-2,3.815412521E-3,2.818775177E-2
2.053913516E1,-6.503760815E-3,-2.312594652E-2,6.105804443E-2
2.055702945E1,1.030595899E-1,-2.029955387E-2,5.765247345E-2
2.057490958E1,7.298916578E-2,-1.047807932E-2,3.042984009E-2
2.059281882E1,4.572951794E-2,-1.312583685E-2,6.246948242E-2
2.061071299E1,5.659878254E-2,-1.416742802E-2,3.600120544E-2
2.062860734E1,6.246864796E-2,-8.141160011E-3,7.223987579E-2
2.064649900E1,8.152252436E-2,-3.108632565E-2,6.321144104E-2
2.066439640E1,9.929436445E-2,-4.467493296E-2,7.529067993E-2
2.068229088E1,1.789118946E-1,-5.534285307E-2,1.050558090E-1
2.070018291E1,8.664196730E-2,-6.524604559E-2,6.455135345E-2
2.071807689E1,1.482700706E-1,-4.134213924E-2,6.426334381E-2
2.073597454E1,1.432055235E-1,-3.329956532E-2,4.591464996E-2
2.075386876E1,2.299999595E-1,-2.284109592E-2,9.246444702E-2
2.077175237E1,1.500143707E-1,-3.674328327E-2,6.951904297E-2
2.078965783E1,1.391005814E-1,-2.847969532E-2,6.710720062E-2
2.080753741E1,1.953352988E-1,-2.548635006E-2,7.773208618E-2
2.082544964E1,2.263063788E-1,-4.327881336E-2,1.980876923E-2
2.084334118E1,1.900974512E-1,-1.890015602E-2,1.107540131E-1
2.086123572E1,6.090533733E-2,-1.541566849E-2,9.127616882E-2
2.087913031E1,1.479187608E-1,1.605671644E-2,5.335140228E-2
2.089702460E1,2.477515936E-1,2.216857672E-2,3.197956085E-2
2.091491913E1,1.814934611E-1,3.020012379E-2,7.019710541E-2
2.093281367E1,9.341526031E-2,1.694869995E-2,5.772113800E-2
2.095070808E1,1.239944994E-1,4.149496555E-3,-2.625465393E-3
2.096860255E1,1.561791301E-1,6.301879883E-3,4.786682129E-2
2.098649470E1,1.668410003E-1,7.327973843E-3,6.084060669E-2
2.100439162E1,5.733722448E-2,6.964981556E-3,6.407642365E-2
2.102228578E1,9.021192789E-2,2.163541317E-2,3.825378418E-2
2.104018038E1,1.600938439E-1,1.956540346E-2,-7.371902466E-3
2.105807515E1,1.489109695E-1,2.626651525E-2,1.211738586E-2
2.107595778E1,3.749132156E-5,3.434598446E-3,1.343822479E-2
2.109386391E1,4.745578766E-2,-1.779723167E-2,-1.079654694E-2
2.111175027E1,1.324470639E-1,-3.405946493E-2,-8.070945740E-3
2.112965335E1,1.592719257E-1,-5.484008789E-2,-4.815101624E-3
2.114754733E1,2.201396227E-2,-4.433763027E-2,-4.713153839E-2
2.116544382E1,3.927010298E-2,-3.323757648E-2,-1.163101196E-2
2.118333634E1,1.092037559E-1,-3.042554855E-2,-3.057289124E-2
2.120123117E1,1.187559366E-1,-2.860724926E-2,-7.664394379E-2
2.121912522E1,7.870632410E-2,-6.031751633E-2,-9.838581085E-2
2.123701975E1,5.470007658E-2,-7.787638903E-2,-7.444858551E-2
2.125491422E1,9.475547075E-2,-6.645435095E-2,-8.168506622E-2
2.127280888E1,1.215956807E-1,-3.952342272E-2,-6.196975708E-2
2.129069047E1,1.063204408E-1,-3.108066320E-2,-7.367420197E-2
2.130859764E1,1.406199932E-1,-4.315906763E-2,-1.091661453E-1
2.132649101E1,1.218844354E-1,-3.144025803E-2,-7.976150513E-2
2.134438670E1,9.844285250E-2,-5.719268322E-2,-1.652069092E-1
2.136228124E1,1.137290597E-1,-5.904233456E-2,-1.649646759E-1
2.138017614E1,1.365074217E-1,-3.746026754E-2,-1.461238861E-1
2.139807006E1,1.206950545E-1,-5.179405212E-2,-1.441478729E-1
2.141596465E1,1.017559171E-1,-3.461241722E-2,-1.909303665E-1
2.143385913E1,1.120447516E-1,-3.708422184E-2,-1.646299362E-1
2.145174469E1,1.842291653E-1,-2.823197842E-2,-1.335544586E-1
2.146964795E1,1.248266697E-1,-1.352125406E-2,-1.496562958E-1
2.148754218E1,1.014248133E-1,-2.228295803E-2,-2.064819336E-1
2.150543726E1,1.768394411E-1,-1.392322779E-2,-1.974620819E-1
2.152333130E1,2.097688913E-1,-4.225993156E-2,-1.758079529E-1
2.154122748E1,1.783404350E-1,-6.545948982E-2,-1.443519592E-1
2.155912086E1,1.345840693E-1,-3.814774752E-2,-1.591920853E-1
2.157701252E1,1.965003908E-1,-2.048462629E-2,-1.357707977E-1
2.159490913E1,2.088400722E-1,1.184105873E-2,-9.247875214E-2
2.161280397E1,1.785521805E-1,-4.067718983E-3,-7.423019409E-2
2.163070125E1,1.402636766E-1,1.414716244E-3,-3.260040283E-2
2.164859279E1,1.742309034E-1,4.548668861E-3,-2.051448822E-2
2.166648427E1,2.398307920E-1,4.907071590E-3,-5.937576294E-3
2.168438180E1,2.149998844E-1,-4.231786728E-2,6.823539734E-2
2.170226113E1,1.625559926E-1,-5.912524462E-2,9.941005707E-2
2.172017068E1,1.480409503E-1,-5.125808716E-2,1.102352142E-1
2.173806515E1,2.140046954E-1,-2.500182390E-2,1.450605392E-1
2.175595962E1,2.276938558E-1,-4.915261269E-2,1.731548309E-1
2.177385403E1,8.593487740E-2,-4.539024830E-2,2.432651520E-1
2.179174130E1,9.371864796E-2,-5.095738173E-2,1.792764664E-1
2.180964304E1,2.226236463E-1,-4.081118107E-2,2.105903625E-1
2.182752878E1,1.618275046E-1,-5.697172880E-2,2.635927200E-1
2.184543107E1,1.037833095E-1,-4.684877396E-2,2.416200638E-1
2.186332639E1,4.448300600E-2,-1.657265425E-2,2.139806747E-1
2.188122117E1,1.202378869E-1,-4.213446379E-2,2.055253983E-1
2.189911576E1,2.104042768E-1,-3.706032038E-2,2.162294388E-1
2.191700981E1,-1.179665327E-2,-5.509835482E-2,1.657276154E-1
2.193490434E1,8.123129606E-2,-6.949919462E-2,1.683759689E-1
2.195279644E1,3.698736429E-2,-4.814726114E-2,1.272840500E-1
2.197069316E1,1.246855259E-1,-2.778232098E-2,1.198415756E-1
2.198858770E1,3.406953812E-2,-2.202379704E-2,8.497714996E-2
2.200648363E1,-1.220762730E-3,-3.121930361E-2,6.987094879E-2
2.202437676E1,6.149035692E-2,-2.548873425E-2,-5.079269409E-3
2.204227465E1,5.975937843E-2,-5.936563015E-3,-2.956485748E-2
2.206016583E1,8.087629080E-2,-2.746570110E-2,-4.400157928E-2
2.207806299E1,1.376283169E-2,-3.545719385E-2,-9.090232849E-2
2.209595471E1,6.067293882E-2,-3.427892923E-2,-1.220474243E-1
2.211385334E1,5.707377195E-2,-8.092105389E-3,-1.287364960E-1
2.213173658E1,5.353111029E-2,-3.140628338E-2,-1.440725327E-1
2.214963508E1,8.397096395E-2,-3.598892689E-2,-1.596097946E-1
2.216751801E1,3.377324343E-2,-1.968926191E-2,-1.923704147E-1
2.218540693E1,1.389539838E-1,-2.080506086E-2,-1.619625092E-1
2.220332136E1,1.035954356E-1,-1.728266478E-2,-1.722297668E-1
2.222121608E1,1.024999022E-1,-1.997095346E-2,-1.880445480E-1
2.223911067E1,1.146134734E-1,-2.889823914E-2,-1.910943985E-1
2.225700472E1,1.198747158E-1,1.460152864E-2,-1.447038651E-1
2.227489949E1,1.583211422E-1,-1.114296913E-2,-1.686697006E-1
2.229279409E1,1.779956818E-1,-2.287966013E-2,-1.723928452E-1
2.231068825E1,1.577460766E-1,-4.651784897E-2,-1.627483368E-1
2.232858285E1,1.872795224E-1,-5.479234457E-2,-1.226978302E-1
2.234648001E1,1.532250047E-1,-6.062275171E-2,-1.223764420E-1
2.236437185E1,1.775752008E-1,-6.893366575E-2,-1.000366211E-1
2.238226614E1,1.779479086E-1,-7.068872452E-2,-3.619766235E-2
2.240016080E1,2.051782906E-1,-4.305261374E-2,-2.699661255E-2
2.241805350E1,1.994350255E-1,-5.115157366E-2,2.209663391E-3
2.243594956E1,2.175600827E-1,-8.887130022E-2,2.411460876E-2
2.245384434E1,1.509221792E-1,-1.154815555E-1,5.944728851E-2
2.247172965E1,2.091460824E-1,-1.102081537E-1,4.767322540E-2
2.248963023E1,2.204057574E-1,-1.091909409E-1,1.049528122E-1
2.250752958E1,1.518671513E-1,-1.078451872E-1,1.095628738E-1
2.252542613E1,1.419832110E-1,-1.186153293E-1,1.045846939E-1
2.254330449E1,2.312141061E-1,-6.896620989E-2,1.464548111E-1
2.256121104E1,1.847591698E-1,-1.067824960E-1,1.481914520E-1
2.257910851E1,2.433713078E-1,-9.442353249E-2,1.744995117E-1
2.259699993E1,1.548023820E-1,-9.672552347E-2,1.670274734E-1
2.261489440E1,2.024146914E-1,-8.198112249E-2,1.908960342E-1
2.263278863E1,2.444621027E-1,-8.504849672E-2,1.920280457E-1
2.265068341E1,2.023422718E-1,-1.106745601E-1,1.777744293E-1
2.266856323E1,1.597809792E-1,-1.014797091E-1,1.532688141E-1
2.268646875E1,2.222948670E-1,-5.938738585E-2,1.329822540E-1
2.270436670E1,2.262247801E-1,-8.050274849E-2,1.349115372E-1
2.272226142E1,1.717714071E-1,-5.902594328E-2,1.250238419E-1
2.274015589E1,1.621462107E-1,-4.269462824E-2,1.031455994E-1
2.275805012E1,2.236822546E-1,-1.907777786E-2,7.675743103E-2
2.277594477E1,1.751036942E-1,-6.195288897E-2,6.463909149E-2
2.279383845E1,1.421519816E-1,-3.114783764E-2,-9.460449219E-3
2.281172364E1,1.199046373E-1,-4.255509377E-2,-3.501319885E-2
2.282962501E1,2.420405447E-1,-4.852062464E-2,-5.131340027E-2
2.284752260E1,1.330556273E-1,-4.725909233E-2,-1.932334900E-2
2.286541976E1,1.245042086E-1,-5.596143007E-2,-9.150505066E-2
2.288331410E1,1.309335232E-1,-3.809297085E-2,-9.740638733E-2
2.290120620E1,1.871240139E-1,-4.383903742E-2,-1.265811920E-1
2.291910177E1,1.538713574E-1,-3.386408091E-2,-1.123428345E-1
2.293699471E1,1.041616201E-1,-1.719331741E-2,-1.436595917E-1
2.295488961E1,1.348989606E-1,-1.772528887E-2,-1.953344345E-1
2.297278384E1,1.951113045E-1,-5.604684353E-3,-1.351842880E-1
2.299067825E1,1.190888286E-1,-5.143189430E-2,-1.575279236E-1
2.300857297E1,1.666775346E-1,-4.690891504E-2,-1.315555573E-1
2.302646494E1,1.210168302E-1,-9.011667967E-2,-1.425294876E-1
2.304436173E1,1.841753423E-1,-7.273423672E-2,-1.775255203E-1
2.306225626E1,1.378400922E-1,-8.481097221E-2,-1.507768631E-1
2.308015073E1,1.476368904E-1,-6.705754995E-2,-1.712265015E-1
2.309804508E1,8.477032185E-2,-8.443570137E-2,-1.086845398E-1
2.311593968E1,2.027091086E-1,-7.518523932E-2,-1.158084869E-1
2.313383421E1,1.243721843E-1,-8.054053783E-2,-5.577182770E-2
2.315171721E1,1.659756899E-1,-7.748991251E-2,-7.422542572E-2
2.316960728E1,8.987063169E-2,-9.918606281E-2,-3.141880035E-2
2.318751750E1,2.155451179E-1,-8.865493536E-2,-5.761528015E-2
2.320541369E1,1.437670887E-1,-1.061249375E-1,-2.942848206E-2
2.322330651E1,9.997016191E-2,-1.085271835E-1,-2.033519745E-2
2.324120086E1,1.262762547E-1,-6.746059656E-2,9.896278381E-3
2.325909570E1,2.055954039E-1,-6.100690365E-2,5.967044830E-2
2.327698993E1,8.040720224E-2,-8.872133493E-2,9.556198120E-2
2.329488446E1,9.948843718E-2,-7.564336061E-2,6.953334808E-2
2.331277893E1,6.513679028E-2,-8.377337456E-2,5.926609039E-2
2.333066107E1,1.587005258E-1,-8.901119232E-2,1.022815704E-1
2.334856781E1,-1.277089119E-2,-7.560288906E-2,9.139156342E-2
2.336646131E1,1.424372196E-2,-4.698508978E-2,9.106063843E-2
2.338435664E1,3.412455320E-2,-5.415928364E-2,1.292657852E-1
2.340225117E1,6.048715115E-2,-6.046146154E-2,1.191034317E-1
2.342014076E1,-3.990411758E-2,-6.818282604E-2,1.174402237E-1
2.343804048E1,2.949130535E-2,-7.284736633E-2,9.257507324E-2
2.345593385E1,-1.019041538E-1,-7.000243664E-2,1.406469345E-1
2.347382906E1,-7.286965847E-3,-6.226360798E-3,1.280212402E-1
2.349171645E1,-1.373988390E-2,-9.545981884E-3,1.415758133E-1
2.350961519E1,-1.440799236E-2,-1.633620262E-2,1.260070801E-1
2.352751266E1,-1.809465885E-2,-2.476978302E-2,1.157188416E-1
2.354540731E1,2.372258902E-2,-3.198832273E-2,1.124153137E-1
2.356330142E1,-1.177430153E-2,-5.762332678E-2,1.017103195E-1
2.358119601E1,3.748881817E-2,-6.326389313E-2,1.969747543E-1
2.359909054E1,1.090178490E-1,-8.919316530E-2,1.827020645E-1
2.361698477E1,3.868509233E-1,-1.122666597E-1,1.947889328E-1
2.363487937E1,9.630358219E-2,-1.271226406E-1,1.260223389E-1
2.365277390E1,1.749257743E-1,-7.619309425E-2,1.451034546E-1
2.367065860E1,2.820772827E-1,-7.540124655E-2,1.793508530E-1
2.368856272E1,2.691650391E-1,-8.813220263E-2,1.774492264E-1
2.370644590E1,2.057715058E-1,-1.046161652E-1,1.771087646E-1
2.372434013E1,2.565100193E-1,-1.518299580E-1,9.672355652E-2
2.374223533E1,2.744363546E-1,-1.499966979E-1,1.028451920E-1
2.376014384E1,2.649942636E-1,-1.190482974E-1,1.383953094E-1
2.377803514E1,2.645388246E-1,-1.235186458E-1,7.552146912E-3
2.379592943E1,2.129536867E-1,-1.230089664E-1,-9.410858154E-3
2.381382396E1,2.690027654E-1,-1.050999165E-1,2.937889099E-2
2.383170794E1,2.680822611E-1,-1.342654824E-1,3.564834595E-3
2.384960998E1,1.994090676E-1,-1.138623357E-1,-8.618354797E-3
2.386750726E1,1.906278133E-1,-6.145250797E-2,-2.815246582E-3
2.388540179E1,2.912091911E-1,-9.183067083E-2,-7.806396484E-2
2.390329632E1,1.883662343E-1,-1.453038454E-1,-2.998065948E-2
2.392117889E1,1.337461472E-1,-9.030389786E-2,-7.903862000E-2
2.393908539E1,1.581594348E-1,-1.039230227E-1,-1.177892685E-1
2.395697943E1,1.932030320E-1,-1.100577116E-1,-4.251480103E-2
2.397487427E1,8.950263262E-2,-7.541733980E-2,-3.219890594E-2
2.399276887E1,1.240982413E-1,-9.425890446E-2,-4.270267487E-2
2.401066309E1,3.361791372E-2,-9.414499998E-2,-1.853942871E-2
2.402855763E1,1.482546329E-1,-7.147932053E-2,-1.880645752E-3
2.404645216E1,1.248338819E-1,-1.016772389E-1,-2.960586548E-2
2.406434370E1,1.081892848E-1,-1.094365120E-1,-4.141807556E-3
2.408224001E1,6.643354893E-2,-9.559673071E-2,2.489757538E-2
2.410013582E1,7.133817673E-2,-1.243104339E-1,5.412483215E-2
2.411803005E1,2.471095324E-2,-9.706306458E-2,3.219985962E-2
2.413592464E1,5.434113741E-2,-8.664828539E-2,3.460788727E-2
2.415381893E1,8.029615879E-2,-9.724903107E-2,2.789306641E-2
2.417170443E1,5.936968327E-2,-7.287311554E-2,5.437469482E-2
2.418960519E1,6.220954657E-2,-3.337413073E-2,1.256561279E-2
2.420750223E1,4.917037487E-2,-3.270685673E-2,3.592872620E-2
2.422539682E1,7.991719246E-2,-4.667019844E-2,6.406307220E-2
2.424329123E1,9.589850903E-2,-5.512255430E-2,3.091812134E-2
2.426118589E1,1.384968460E-1,-9.870094061E-2,-1.580905914E-2
2.427908036E1,5.748009682E-2,-8.341330290E-2,-7.693767548E-2
2.429697471E1,1.397967339E-1,-7.383221388E-2,-5.825996399E-2
2.431486918E1,1.227032542E-1,-8.660763502E-2,-7.445812225E-2
2.433276353E1,1.157350540E-1,-5.310547352E-2,-7.866668701E-2
2.435065794E1,1.720515490E-1,-5.595862865E-2,-1.078920364E-1
2.436855254E1,2.295007408E-1,-1.032314897E-1,-5.313587189E-2
2.438644701E1,2.046431303E-1,-1.000885367E-1,-7.232379913E-2
2.440434154E1,1.909404993E-1,-1.495356560E-1,-7.861804962E-2
2.442223589E1,1.926866472E-1,-1.468583345E-1,-7.771968842E-2
2.444013061E1,2.538596392E-1,-1.326373219E-1,-7.525444031E-2
2.445802496E1,2.543574274E-1,-1.596307158E-1,-1.021795273E-1
2.447591924E1,1.584097147E-1,-1.361251473E-1,-1.056127548E-1
2.449381402E1,2.054830790E-1,-1.186503172E-1,-7.709598541E-2
2.451169702E1,2.505221069E-1,-5.991542339E-2,-3.074550629E-2
2.452959991E1,3.216422796E-1,-6.309229136E-2,2.878570557E-2
2.454749738E1,2.222102880E-1,-9.333324432E-2,1.243495941E-2
2.456537677E1,2.540080547E-1,-1.034365296E-1,1.053104401E-1
2.458327143E1,2.416388988E-1,-6.819921732E-2,1.358032227E-1
2.460118067E1,3.070876896E-1,-6.035870314E-2,8.305835724E-2
2.461907527E1,2.904549837E-1,-8.728080988E-2,9.760951996E-2
2.463696955E1,2.387868762E-1,-9.525507689E-2,7.945728302E-2
2.465486403E1,1.833634079E-1,-1.071173549E-1,9.190559387E-2
2.467276167E1,1.952745914E-1,-7.816714048E-2,1.320915222E-1
2.469065285E1,1.673479080E-1,-5.206942558E-2,1.746129990E-1
2.470854769E1,1.847480834E-1,-6.828320026E-2,1.743688583E-1
2.472644198E1,1.173170805E-1,-7.128018141E-2,1.265573502E-1
2.474433639E1,1.203346252E-1,-1.019116044E-1,9.209442139E-2
2.476223074E1,1.409544349E-1,-1.243641376E-1,8.653354645E-2
2.478012557E1,8.536070585E-2,-7.007384300E-2,6.023025513E-2
2.479801992E1,1.249194741E-1,-1.040030718E-1,6.937026978E-2
2.481591421E1,1.103609800E-2,-7.329326868E-2,6.154727936E-2
2.483380893E1,6.037795544E-2,-7.882487774E-2,5.928707123E-2
2.485169132E1,5.537468195E-2,-8.993804455E-2,2.813911438E-2
2.486959781E1,9.257400036E-2,-3.254640102E-2,1.375293732E-2
2.488749228E1,8.476573229E-2,-6.704705954E-2,-3.061389923E-2
2.490538657E1,6.951165199E-2,-7.973241806E-2,-8.447265625E-2
2.492328398E1,9.113633633E-2,-9.223657846E-2,-8.212852478E-2
2.494117588E1,3.987801075E-2,-1.271106601E-1,-1.091384888E-1
2.495907017E1,5.171680450E-2,-8.151054382E-2,-7.468986511E-2
2.497696470E1,1.164117455E-1,-7.547581196E-2,-8.701896667E-2
2.499485674E1,1.047591567E-1,-6.405860186E-2,-1.416053772E-1
2.501275353E1,1.404323876E-1,-3.949892521E-2,-1.821737289E-1
2.503064782E1,1.344851553E-1,-7.803368568E-2,-1.520166397E-1
2.504854235E1,1.427893043E-1,-6.531518698E-2,-1.350870132E-1
2.506642522E1,1.896502674E-1,-9.596639872E-2,-1.673984528E-1
2.508433135E1,2.400129139E-1,-1.108004451E-1,-1.212358475E-1
2.510222570E1,1.761310697E-1,-1.065219641E-1,-7.374858856E-2
2.512012042E1,1.614795625E-1,-1.376818419E-1,-9.616279602E-2
2.513801453E1,2.359044552E-1,-1.043052673E-1,-1.209812164E-1
2.515590912E1,2.232867777E-1,-1.132382154E-1,-4.943847656E-2
2.517380597E1,1.281816959E-1,-1.054052711E-1,-6.767463684E-2
2.519168622E1,2.255939245E-1,-1.041418314E-1,1.760387421E-2
2.520958961E1,1.695939302E-1,-1.151681542E-1,3.565692902E-2
2.522748689E1,2.207953930E-1,-1.122900844E-1,4.709148407E-2
2.524537733E1,1.853849888E-1,-1.715021729E-1,7.071971893E-2
2.526327601E1,1.282655597E-1,-1.504994035E-1,9.158039093E-2
2.528117030E1,1.677123010E-1,-1.422703266E-1,9.777832031E-2
2.529906484E1,2.101135850E-1,-1.455054283E-1,5.946636200E-2
2.531695937E1,1.711393893E-1,-1.201012135E-1,1.004142761E-1
2.533485683E1,1.544347703E-1,-1.324082017E-1,1.912908554E-1
2.535274856E1,9.715521336E-2,-1.247408986E-1,2.413530350E-1
2.537064205E1,4.662030935E-2,-1.206164360E-1,1.858186722E-1
2.538853726E1,1.342625618E-1,-1.004218459E-1,1.109313965E-1
2.540643179E1,2.095186710E-2,-8.888471127E-2,1.644887924E-1
2.542432602E1,1.704930067E-1,-9.424775839E-2,1.226186752E-1
2.544222061E1,5.833554268E-2,-1.497388482E-1,1.278877258E-1
2.546011582E1,1.209353805E-1,-1.527856588E-1,-7.073879242E-2
2.547800974E1,1.422306895E-1,-5.577337742E-2,1.951456070E-1
2.549589200E1,9.686547518E-2,-1.308615208E-1,1.449317932E-1
2.551379874E1,1.667767167E-1,-1.108090878E-1,3.355693817E-2
2.553168101E1,8.996647596E-2,-9.321802855E-2,6.979656219E-2
2.554958427E1,8.874964714E-2,-4.408282042E-2,-1.011867523E-1
2.556748210E1,1.226323843E-2,-3.565132618E-2,-1.708507538E-2
2.558537639E1,5.714094639E-2,-8.381050825E-2,-4.194927216E-2
2.560325590E1,2.268559039E-1,-7.493996620E-2,1.502513885E-2
2.562116521E1,1.348263025E-1,-7.082682848E-2,-8.371543884E-2
2.563905999E1,4.437077045E-2,-4.973191023E-2,-5.564689636E-2
2.565695421E1,5.779665709E-2,-4.677492380E-2,-1.131525040E-1
2.567484856E1,9.896439314E-2,-3.603547812E-2,-1.043310165E-1
2.569274334E1,2.032220364E-3,-4.228127003E-2,-1.447219849E-1
2.571063732E1,7.465898991E-3,-7.517373562E-2,-1.687641144E-1
2.572853186E1,1.894450188E-1,-3.958278894E-2,-7.361221313E-2
2.574642694E1,-5.760300159E-2,-9.343999624E-2,-6.376934052E-2
2.576432098E1,1.695802212E-1,-1.143985987E-1,-1.263732910E-1
2.578222004E1,-7.565200329E-2,-8.829778433E-2,-1.019334793E-1
2.580011188E1,1.675043702E-1,-1.187838912E-1,-1.022605896E-1
2.581800434E1,-2.182483673E-3,-1.200116873E-1,-1.205472946E-1
2.583590205E1,1.574217081E-1,-1.378045082E-1,-7.794094086E-2
2.585379341E1,3.994256258E-2,-1.301468015E-1,-5.904769897E-2
2.587167598E1,1.341596842E-1,-1.388919950E-1,-3.117752075E-2
2.588958235E1,1.133100390E-1,-1.618059874E-1,1.651000977E-2
2.590747670E1,1.254350543E-1,-1.633814573E-1,4.590988159E-2
2.592537129E1,1.385783553E-1,-1.772636175E-1,-7.089614868E-3
2.594326546E1,1.744799018E-1,-1.849066615E-1,2.473831177E-2
2.596116225E1,1.041623950E-1,-1.764910221E-1,3.359508514E-2
2.597905465E1,1.970248818E-1,-1.713581681E-1,5.147266388E-2
2.599694894E1,1.188536882E-1,-1.410268545E-1,8.992671967E-2
2.601484347E1,1.512683034E-1,-1.501467228E-1,1.337213516E-1
2.603273806E1,1.434750855E-1,-1.011653543E-1,6.362056732E-2
2.605063254E1,2.232806087E-1,-1.050253510E-1,1.153850555E-1
2.606852976E1,2.266056538E-1,-1.385369897E-1,1.064901352E-1
2.608642142E1,1.249235570E-1,-1.291138530E-1,1.288022995E-1
2.610431577E1,1.764117479E-1,-1.512188315E-1,1.189327240E-1
2.612221012E1,1.585624218E-1,-8.500432968E-2,1.486654282E-1
2.614010490E1,1.808148026E-1,-1.084084511E-1,7.752799988E-2
2.615799632E1,2.410084009E-1,-6.649369001E-2,5.918407440E-2
2.617589378E1,1.225564182E-1,-7.195299864E-2,6.817913055E-2
2.619378831E1,1.869528294E-1,-5.191111565E-2,5.893707275E-2
2.621166930E1,9.738588333E-2,-9.463721514E-2,6.511688232E-2
2.622957390E1,1.915205419E-1,-1.261326075E-1,5.111694336E-2
2.624747161E1,6.843400002E-2,-4.609310627E-2,1.142301559E-1
2.626536620E1,1.212630570E-1,-4.926586151E-2,6.982803345E-2
2.628326055E1,1.892050207E-1,-1.350945234E-2,-4.265689850E-2
2.630115783E1,1.466403604E-1,-1.203638911E-1,-5.082702637E-2
2.631904980E1,1.188059747E-1,-9.498107433E-2,2.643585205E-3
2.633694360E1,6.799995899E-2,-1.113311052E-1,4.286766052E-2
2.635483838E1,2.053015828E-1,-3.105926514E-2,1.202392578E-2
2.637273297E1,1.239506006E-1,-7.547992468E-2,9.958171844E-2
2.639062708E1,1.780042350E-1,-1.347236037E-1,8.625030518E-3
2.640852186E1,1.074854136E-1,-1.299034953E-1,7.270908356E-2
2.642641627E1,7.437896729E-2,-1.923956871E-1,5.289745331E-2
2.644431056E1,2.063584626E-1,-1.711001396E-1,-4.972171783E-2
2.646220509E1,2.572636306E-1,-1.430318356E-1,-2.525234222E-2
2.648009980E1,4.751271009E-2,-1.278234124E-1,-1.859092712E-2
2.649799415E1,1.672360301E-1,-8.405274153E-2,8.552455902E-2
2.651588881E1,7.953906059E-2,-1.320955157E-1,1.100254059E-2
2.653378322E1,3.275366127E-1,-1.375287771E-1,-1.869583130E-2
2.655166530E1,1.143183708E-1,-1.425042152E-1,-9.299182892E-2
2.656957186E1,2.048772573E-1,-1.561788917E-1,-8.909225464E-3
2.658746658E1,8.750084043E-2,-1.756430864E-1,-6.618499756E-3
2.660535989E1,2.891142964E-1,-1.778998971E-1,-8.058547974E-2
2.662325534E1,1.017549038E-1,-1.708555222E-1,-8.610153198E-2
2.664114993E1,2.366247773E-1,-1.641947627E-1,-7.971858978E-2
2.665902957E1,1.723883748E-1,-1.191217303E-1,-4.483509064E-2
2.667693869E1,1.710160375E-1,-8.896082640E-2,-5.856227875E-2
2.669481821E1,1.782833338E-1,-8.166003227E-2,-1.194553375E-1
2.671272794E1,2.029596269E-1,-8.731752634E-2,-1.377172470E-1
2.673062198E1,1.704121232E-1,-1.238810420E-1,-1.657142639E-1
2.674851664E1,1.793468595E-1,-1.057757735E-1,-5.881404877E-2
2.676641117E1,1.296064258E-1,-9.945791960E-2,-1.224966049E-1
2.678430540E1,2.927623391E-1,-9.213548899E-2,-1.071166992E-1
2.680220000E1,1.172108054E-1,-9.191244841E-2,-9.533691406E-2
2.682009428E1,1.727483869E-1,-5.628085136E-2,-8.329677582E-2
2.683798906E1,1.157037020E-1,-7.082021236E-2,-7.877540588E-2
2.685588341E1,2.408391833E-1,-5.286204815E-2,-6.866550446E-2
2.687377819E1,1.749503016E-1,-7.753461599E-2,-6.873416901E-2
2.689166021E1,1.293253899E-1,-1.034725308E-1,-7.011699677E-2
2.690956378E1,1.790083647E-1,-1.167866588E-1,5.493164062E-3
2.692744970E1,1.404713988E-1,-1.142430902E-1,-3.469467163E-2
2.694534411E1,2.269634902E-1,-1.013935804E-1,2.236080170E-2
2.696323852E1,1.492185593E-1,-8.032894135E-2,2.069854736E-2
2.698114893E1,1.055299640E-1,-6.028848886E-2,3.242778778E-2
2.699903906E1,1.721571684E-1,-6.751924753E-2,4.805850983E-2
2.701693372E1,2.137647271E-1,-8.780205250E-2,4.204177856E-2
2.703483094E1,1.950998902E-1,-8.714413643E-2,9.196567535E-2
2.705272279E1,1.311047375E-1,-1.336776018E-1,8.531951904E-2
2.707061720E1,2.710919380E-1,-1.477227211E-1,7.620620728E-2
2.708851149E1,2.294017375E-1,-1.599484682E-1,9.473514557E-2
2.710639375E1,1.807224154E-1,-1.328425407E-1,9.363651276E-2
2.712430037E1,1.468569636E-1,-1.291327477E-1,5.517101288E-2
2.714219490E1,2.151592970E-1,-1.225410700E-1,5.858993530E-2
2.716007753E1,2.355985940E-1,-9.641355276E-2,7.486915588E-2
2.717798366E1,2.367704809E-1,-1.120912433E-1,7.812976837E-2
2.719587832E1,2.450946271E-1,-1.175332665E-1,6.637573242E-2
2.721377279E1,2.329949737E-1,-1.574078202E-1,8.148384094E-2
2.723165292E1,2.449604571E-1,-1.455344558E-1,4.885768890E-2
2.724955856E1,2.174285948E-1,-1.551311612E-1,6.457710266E-2
2.726745614E1,1.783615649E-1,-1.411808133E-1,-1.258373260E-2
2.728535062E1,2.381196022E-1,-1.214179397E-1,4.852294922E-3
2.730324497E1,2.410991490E-1,-8.873528242E-2,-1.777553558E-2
2.732113950E1,2.336483002E-1,-6.976270676E-2,1.662731171E-2
2.733903037E1,2.113921344E-1,-9.591782093E-2,-6.101036072E-2
2.735692832E1,2.622752190E-1,-1.162270308E-1,-6.138229370E-2
2.737482572E1,1.903747916E-1,-1.536384821E-1,-1.042528152E-1
2.739271745E1,2.389460206E-1,-1.571456790E-1,-1.102600098E-1
2.741061192E1,1.740224957E-1,-1.439049244E-1,-1.225109100E-1
2.742850621E1,2.537508011E-1,-1.104729772E-1,-1.253252029E-1
2.744640074E1,2.351159453E-1,-8.708018064E-2,-1.525878906E-1
2.746429528E1,1.610563099E-1,-6.803661585E-2,-1.232366562E-1
2.748218957E1,1.414680481E-1,-7.472801208E-2,-1.314735413E-1
2.750008611E1,2.635164559E-1,-1.021575332E-1,-1.816492081E-1
2.751797863E1,2.663443387E-1,-1.134452820E-1,-1.479539871E-1
2.753587316E1,1.386327446E-1,-1.231262088E-1,-1.333513260E-1
2.755376739E1,1.119300723E-1,-1.432820559E-1,-1.611099243E-1
2.757164538E1,2.559810281E-1,-1.262972355E-1,-1.517009735E-1
2.758955347E1,1.562654674E-1,-1.070030332E-1,-1.153688431E-1
2.760745075E1,1.956064701E-1,-7.574248314E-2,-1.162261963E-1
2.762534540E1,9.277263284E-2,-8.471667767E-2,-1.381340027E-1
2.764323981E1,2.026517987E-1,-7.204782963E-2,-5.934429169E-2
2.766112214E1,1.714840829E-1,-1.075947285E-1,-6.633853912E-2
2.767902870E1,1.874272525E-1,-1.278639436E-1,-4.027366638E-2
2.769692372E1,7.039353251E-2,-1.572003961E-1,-1.856899261E-2
2.771481746E1,2.086583078E-1,-1.427369714E-1,-2.048301697E-2
2.773271230E1,1.572234035E-1,-1.393913031E-1,9.052276611E-3
2.775060658E1,1.126418114E-1,-9.311497211E-2,9.883880615E-3
2.776850106E1,6.130093336E-2,-8.426427841E-2,4.744148254E-2
2.778639559E1,2.164907157E-1,-8.480900526E-2,3.632640839E-2
2.780428988E1,1.728432775E-1,-1.084746122E-1,5.018901825E-2
2.782218447E1,1.268980503E-1,-1.286562681E-1,8.092784882E-2
2.784007907E1,1.444991827E-1,-1.305474043E-1,7.948684692E-2
2.785797329E1,2.348075807E-1,-1.333128810E-1,1.105022430E-1
2.787586789E1,1.788943112E-1,-1.374896765E-1,7.981967926E-2
2.789376236E1,1.541945338E-1,-1.012604833E-1,1.422367096E-1
2.791166080E1,9.939083457E-2,-9.470134974E-2,1.130619049E-1
2.792954831E1,2.821854651E-1,-8.154439926E-2,1.469650269E-1
2.794744565E1,1.445513368E-1,-1.015167236E-1,1.252841949E-1
2.796533994E1,2.518495917E-1,-9.238719940E-2,1.495485306E-1
2.798323466E1,1.027103066E-1,-1.367267370E-1,9.928131104E-2
2.800112913E1,2.995271683E-1,-1.020425558E-1,1.338443756E-1
2.801901188E1,1.597820818E-1,-1.284196377E-1,1.387977600E-1
2.803691808E1,2.181916237E-1,-1.316059828E-1,8.009243011E-2
2.805480974E1,1.385613084E-1,-1.210866570E-1,7.270336151E-2
2.807269524E1,2.019597888E-1,-9.892255068E-2,2.167797089E-2
2.809060149E1,1.640662849E-1,-9.298950434E-2,-2.899169922E-3
2.810849572E1,1.953146756E-1,-1.046593785E-1,-5.537319183E-2
2.812639031E1,1.422178745E-1,-1.055679321E-1,-5.150413513E-2
2.814428485E1,2.265111208E-1,-1.244673133E-1,-2.883911133E-2
2.816218225E1,1.724187136E-1,-1.427723765E-1,-7.483673096E-2
2.818007391E1,1.580657065E-1,-1.445186138E-1,-7.989215851E-2
2.819795642E1,1.275929809E-1,-9.746646881E-2,-1.135578156E-1
2.821586280E1,1.138962209E-1,-1.007068157E-1,-1.031150818E-1
2.823375733E1,1.792137623E-1,-9.268170595E-2,-1.398668289E-1
2.825164655E1,1.446102262E-1,-9.080523252E-2,-1.188125610E-1
2.826954304E1,1.679195464E-1,-1.039958596E-1,-1.581068039E-1
2.828743501E1,1.899865866E-1,-1.308028698E-1,-1.714677811E-1
2.830533046E1,1.685194373E-1,-1.136804819E-1,-1.638193130E-1
2.832322938E1,1.645104289E-1,-1.310034990E-1,-1.290330887E-1
2.834112392E1,1.269361973E-1,-1.433570981E-1,-1.577558517E-1
2.835902217E1,1.359126270E-1,-1.183035970E-1,-1.451005936E-1
2.837691310E1,1.603052020E-1,-1.103499532E-1,-1.216840744E-1
2.839481038E1,1.712014675E-1,-1.075829864E-1,-1.649675369E-1
2.841270187E1,1.485350132E-1,-9.830510616E-2,-1.012239456E-1
2.843059609E1,1.931740344E-1,-1.170183420E-1,-8.809089661E-2
2.844849069E1,2.045339346E-1,-1.428235173E-1,-8.065032959E-2
2.846638522E1,2.019236684E-1,-1.491624713E-1,-5.390167236E-2
2.848427975E1,1.558214426E-1,-1.583967209E-1,2.679824829E-4
2.850217404E1,1.783111691E-1,-1.493166685E-1,1.573562622E-4
2.852007187E1,2.194437683E-1,-1.115651131E-1,-2.502441406E-3
2.853796317E1,2.222634554E-1,-1.208806634E-1,1.618957520E-2
2.855584287E1,2.146585584E-1,-9.843379259E-2,1.489067078E-2
2.857375217E1,1.896418631E-1,-1.249427795E-1,6.472587585E-2
2.859162992E1,2.699636221E-1,-1.235303879E-1,7.036495209E-2
2.860953800E1,2.017251253E-1,-1.642728448E-1,9.207344055E-2
2.862743522E1,2.751225233E-1,-1.533204913E-1,8.475208282E-2
2.864532982E1,1.424429715E-1,-1.481735706E-1,8.509826660E-2
2.866322704E1,1.764964163E-1,-1.012074947E-1,9.641647339E-2
2.868111516E1,1.811845005E-1,-7.431995869E-2,9.141540527E-2
2.869900152E1,2.076391578E-1,-5.763489008E-2,1.061162949E-1
2.871690679E1,8.548963070E-2,-5.060529709E-2,9.198474884E-2
2.873480224E1,7.687306404E-2,-8.366405964E-2,1.174516678E-1
2.875269683E1,7.944673300E-2,-1.163935661E-1,4.939079285E-2
2.877059204E1,1.319272518E-1,-1.186888814E-1,2.586841583E-2
2.878848297E1,4.993569851E-2,-7.921308279E-2,3.940391541E-2
2.880637988E1,5.715474486E-2,-9.788930416E-2,3.220081329E-2
2.882427460E1,8.500286937E-2,-3.931802511E-2,7.017993927E-2
2.884216895E1,8.991944790E-2,-3.733277321E-2,1.098985672E-1
2.886006348E1,1.320138276E-1,-7.644450665E-2,6.018924713E-2
2.887795783E1,1.251355708E-1,-1.139123440E-1,6.860733032E-2
2.889585230E1,1.275294721E-1,-1.489313245E-1,6.481742859E-2
2.891373487E1,1.395437717E-1,-1.936387420E-1,4.172325134E-2
2.893162929E1,2.215342522E-1,-1.655415893E-1,1.987457275E-3
2.894953273E1,1.754701138E-1,-1.217449307E-1,2.038955688E-3
2.896743013E1,1.252195835E-1,-1.080032587E-1,2.984905243E-2
2.898532466E1,2.269563079E-1,-9.600126743E-2,3.438472748E-2
2.900322200E1,1.986626685E-1,-9.467250109E-2,3.460693359E-2
2.902111355E1,1.926376820E-1,-1.358785033E-1,7.956504822E-3
2.903899606E1,1.733137071E-1,-1.625675559E-1,-3.222751617E-2
2.905690255E1,1.283119321E-1,-1.742551327E-1,-5.564117432E-2
2.907479696E1,2.393282652E-1,-1.423496008E-1,-3.943061829E-2
2.909269174E1,1.354800463E-1,-1.061057448E-1,-4.104995728E-2
2.911058298E1,2.017264366E-1,-1.108072400E-1,-7.770347595E-2
2.912848026E1,2.576464415E-2,-1.063502431E-1,-5.058765411E-2
2.914637479E1,1.723603606E-1,-1.091926098E-1,-4.805755615E-2
2.916426926E1,7.461071014E-2,-1.138187051E-1,-4.125022888E-2
2.918216355E1,1.109616756E-1,-1.277112961E-1,-6.301212311E-2
2.920005412E1,2.624702454E-2,-1.338970065E-1,-6.171894073E-2
2.921795262E1,4.596686363E-2,-1.503432393E-1,-6.943130493E-2
2.923584697E1,7.558834553E-2,-1.089043617E-1,-2.277374268E-2
2.925374242E1,7.736435533E-2,-7.108390331E-2,1.575946808E-2
2.927164269E1,7.457166910E-2,-8.719611168E-2,1.436042786E-2
2.928951830E1,2.707010508E-2,-7.343053818E-2,4.125595093E-2
2.930742473E1,2.701103687E-3,-1.023648381E-1,1.067495346E-1
2.932531933E1,8.672967553E-2,-1.131218076E-1,1.072807312E-1
2.934321386E1,7.557594776E-2,-1.300417185E-1,1.154069901E-1
2.936110821E1,1.505256891E-1,-1.423996091E-1,1.530246735E-1
2.937899127E1,9.766992927E-2,-1.219965816E-1,1.480350494E-1
2.939689752E1,1.211284995E-1,-1.125364304E-1,1.901016235E-1
2.941479181E1,1.403654218E-1,-1.130163670E-1,2.021512985E-1
2.943268628E1,1.753178835E-1,-8.411633968E-2,2.080078125E-1
2.945058057E1,1.393471360E-1,-7.001745701E-2,1.955299377E-1
2.946847516E1,1.181237400E-1,-9.529078007E-2,2.180528641E-1
2.948636939E1,2.221089602E-1,-1.288825274E-1,2.188282013E-1
2.950426386E1,2.390169799E-1,-1.771089435E-1,2.059650421E-1
2.952215846E1,2.256461978E-1,-1.672558188E-1,1.499567032E-1
2.954005305E1,1.265887916E-1,-1.458169818E-1,1.051397324E-1
2.955794789E1,1.888309717E-1,-1.175630093E-1,1.029949188E-1
2.957584102E1,1.862293184E-1,-1.212518811E-1,1.518106461E-1
2.959373671E1,1.653942466E-1,-1.057240367E-1,1.158885956E-1
2.961161562E1,9.404748678E-2,-1.258713007E-1,6.139945984E-2
2.962952346E1,1.472916305E-1,-1.229396462E-1,-1.628112793E-2
2.964741976E1,1.212843060E-1,-1.183710098E-1,-1.251411438E-2
2.966531423E1,1.676669121E-1,-1.270065904E-1,-3.351116180E-2
2.968320614E1,1.031460464E-1,-1.130759120E-1,-6.381225586E-2
2.970109128E1,9.168845415E-2,-8.274364471E-2,-1.138858795E-1
2.971898563E1,8.479040861E-2,-9.214389324E-2,-1.128129959E-1
2.973689212E1,5.515223742E-2,-9.519279003E-2,-1.381397247E-1
2.975478647E1,1.115779281E-1,-8.597916365E-2,-9.852504730E-2
2.977268125E1,8.501130342E-2,-8.520156145E-2,-1.266822815E-1
2.979056351E1,8.289003372E-2,-8.562749624E-2,-1.721191406E-1
2.980847007E1,6.468445063E-2,-1.146754622E-1,-1.217164993E-1
2.982636430E1,1.097800434E-1,-1.380581260E-1,-8.133602142E-2
2.984425883E1,7.099372149E-2,-8.248043060E-2,-3.667068481E-2
2.986215343E1,4.769980907E-3,-4.124635458E-2,-6.577110291E-2
2.988004771E1,5.795085430E-2,-2.901679277E-2,-6.700229645E-2
2.989794225E1,6.668460369E-2,-7.994663715E-2,-2.264690399E-2
2.991583678E1,1.574513912E-1,-1.175010800E-1,7.110500336E-2
2.993373131E1,4.518145323E-2,-1.630523205E-1,5.836963654E-2
2.995161889E1,6.961089373E-2,-1.561926603E-1,3.876972198E-2
2.996951714E1,1.936099827E-1,-1.868963242E-1,1.334028244E-1
2.998741442E1,1.580980122E-1,-1.781969368E-1,1.113681793E-1
3.000530896E1,8.217805624E-2,-1.487915516E-1,1.796398163E-1
3.002320648E1,9.612143040E-2,-1.218213439E-1,1.718530655E-1
3.004109796E1,9.004008770E-2,-1.200284362E-1,1.500511169E-1
3.005898072E1,2.779906690E-1,-1.514419317E-1,2.152214050E-1
3.007688685E1,6.665527821E-2,-1.985962093E-1,1.578435898E-1
3.009478138E1,2.240023613E-1,-1.693431735E-1,1.776113510E-1
3.011267591E1,1.819220185E-1,-1.546908021E-1,2.280406952E-1
3.013056727E1,1.978014708E-1,-1.431561708E-1,1.772613525E-1
3.014845320E1,1.694178283E-1,-1.231074333E-1,2.095031738E-1
3.016634761E1,7.184392214E-2,-1.033164263E-1,1.782712936E-1
3.018424172E1,1.410471201E-1,-8.800512552E-2,1.778230667E-1
3.020213527E1,2.310377657E-1,-8.087164164E-2,1.733264923E-1
3.022004262E1,1.153262854E-1,-1.251534820E-1,6.516933441E-2
3.023793709E1,2.039286792E-1,-1.157118678E-1,1.386594772E-1
3.025583151E1,1.191890836E-1,-1.122594476E-1,1.173830032E-1
3.027371908E1,1.474961042E-1,-7.117217779E-2,1.176013947E-1
3.029161959E1,1.216655970E-1,-5.939912796E-2,1.306238174E-1
3.030950046E1,5.343604088E-2,-2.256751060E-2,5.317592621E-2
3.032740927E1,1.068664193E-1,-2.537101507E-2,4.773712158E-2
3.034530380E1,1.730566025E-1,-2.008289099E-2,1.754283905E-2
3.036319815E1,5.187624693E-2,-6.327247620E-2,-3.151416779E-2
3.038109269E1,1.409342587E-1,-1.111860871E-1,-6.032180786E-2
3.039898020E1,7.965087891E-2,-1.439242959E-1,-5.922794342E-2
3.041688145E1,1.144118309E-1,-1.565848589E-1,-7.669067383E-2
3.043477629E1,6.288242340E-2,-1.115396619E-1,-8.797168732E-2
3.045267088E1,1.501868963E-1,-8.354026079E-2,-9.337329865E-2
3.047056511E1,1.155058146E-1,-1.040831208E-1,-6.569290161E-2
3.048845970E1,1.916980147E-1,-1.139948964E-1,-7.849407196E-2
3.050635399E1,1.066677868E-1,-1.478573680E-1,-1.076927185E-1
3.052424840E1,2.078314424E-1,-1.932811141E-1,-1.330852509E-1
3.054214263E1,2.384681106E-1,-1.902725697E-1,-1.654024124E-1
3.056004070E1,1.692203581E-1,-1.724390984E-1,-8.743286133E-2
3.057793188E1,1.459308267E-1,-1.636943221E-1,-6.375694275E-2
3.059582617E1,1.751423478E-1,-1.391709447E-1,-1.086463928E-1
3.061372094E1,2.253667414E-1,-1.546220183E-1,-1.248588562E-1
3.063160962E1,2.603483200E-1,-1.795690656E-1,-8.466911316E-2
3.064950739E1,2.103400826E-1,-1.583180428E-1,-1.131973267E-1
3.066740149E1,1.586970091E-1,-1.639011502E-1,-4.544353485E-2
3.068529847E1,3.607828319E-1,-1.436350346E-1,-1.104898453E-1
3.070319300E1,1.973689198E-1,-1.100088954E-1,-2.831172943E-2
3.072108753E1,2.655492425E-1,-1.071358919E-1,3.260612488E-3
3.073897016E1,2.315454185E-1,-5.398094654E-2,3.853416443E-2
3.075687666E1,1.882567704E-1,-6.852245331E-2,4.760742188E-2
3.077477095E1,3.276670277E-1,-5.913412571E-2,1.724624634E-2
3.079266304E1,2.419533134E-1,-9.867799282E-2,2.303218842E-2
3.081055977E1,2.936006486E-1,-1.132543087E-1,2.473449707E-2
3.082845424E1,2.517468929E-1,-1.117069721E-1,4.793739319E-2
3.084634859E1,2.183544338E-1,-8.049386740E-2,3.610038757E-2
3.086424300E1,2.297857106E-1,-7.025921345E-2,1.052370071E-1
3.088213778E1,1.570486724E-1,-1.925694942E-2,6.676387787E-2
3.090003207E1,2.454685569E-1,-2.849304676E-2,3.401374817E-2
3.091792581E1,2.673268318E-1,-6.052792072E-2,3.624057770E-2
3.093582114E1,1.785051525E-1,-1.116097569E-1,2.190208435E-2
3.095371585E1,1.943751276E-1,-1.418604255E-1,5.269432068E-2
3.097160282E1,1.507955194E-1,-1.538828015E-1,-3.282546997E-3
3.098950132E1,2.072386742E-1,-1.241275072E-1,-1.849937439E-2
3.100740250E1,1.806133986E-1,-1.165008545E-1,-6.760692596E-2
3.102529344E1,1.670974493E-1,-8.055394888E-2,-2.354335785E-2
3.104318760E1,8.571156859E-2,-6.366324425E-2,-1.349925995E-2
3.106108226E1,2.078932822E-1,-9.860497713E-2,-2.429962158E-3
3.107896782E1,1.927315295E-1,-1.288895011E-1,-4.835891724E-2
3.109687108E1,1.566897333E-1,-1.714164019E-1,-9.343910217E-2
3.111476561E1,1.940664351E-1,-1.743270159E-1,-1.144809723E-1
3.113266021E1,1.440365314E-1,-1.538935304E-1,-8.897876740E-2
3.115055431E1,1.885583997E-1,-1.279753447E-1,-5.274963379E-2
3.116844915E1,2.127054334E-1,-1.061884761E-1,-9.135246277E-2
3.118634350E1,1.815040410E-1,-9.349298477E-2,-7.884120941E-2
3.120423773E1,2.654719055E-1,-1.097907424E-1,-1.010150909E-1
3.122213232E1,1.622581184E-1,-1.277118325E-1,-9.543037415E-2
3.124002704E1,2.390359789E-1,-1.659436226E-1,-7.394409180E-2
3.125792139E1,2.010361254E-1,-1.529877782E-1,-8.821201324E-2
3.127582080E1,1.871651113E-1,-1.612903476E-1,-9.592914581E-2
3.129371027E1,2.626861036E-1,-9.544479847E-2,-9.936332703E-2
3.131160432E1,2.103770673E-1,-7.737839222E-2,-6.767845154E-2
3.132949604E1,2.775634825E-1,-6.364381313E-2,-1.094713211E-1
3.134739350E1,2.214443386E-1,-8.904546499E-2,-3.178405762E-2
3.136528779E1,2.264315486E-1,-1.399013996E-1,-4.455471039E-2
3.138318129E1,2.465843856E-1,-1.552218199E-1,-4.586505890E-2
3.140107692E1,3.309066296E-1,-1.323887110E-1,-4.318714142E-2
3.141896028E1,1.945159733E-1,-1.051765084E-1,-4.954338074E-2
3.143686599E1,2.543652952E-1,-8.537554741E-2,-1.625156403E-2
3.145476034E1,2.114177346E-1,-7.217466831E-2,1.071357727E-2
3.147265786E1,2.471726537E-1,-8.413517475E-2,4.837036133E-3
3.149054934E1,2.278019786E-1,-1.023979187E-1,-5.641937256E-3
3.150844363E1,2.477760315E-1,-1.153060794E-1,1.777076721E-2
3.152633822E1,2.008703649E-1,-1.404194832E-1,-6.187438965E-3
3.154423270E1,2.251265347E-1,-1.463872790E-1,1.533412933E-2
3.156212729E1,1.548110843E-1,-1.345597506E-1,1.145458221E-2
3.158002182E1,2.091403008E-1,-9.536302090E-2,3.267765045E-2
3.159791605E1,1.876319349E-1,-8.255201578E-2,1.101398468E-2
3.161579868E1,1.987433136E-1,-8.243727684E-2,2.696895599E-2
3.163370518E1,2.298887670E-1,-9.366303682E-2,5.816459656E-3
3.165158274E1,1.676824391E-1,-1.272119284E-1,-3.581809998E-2
3.166949101E1,1.218202710E-1,-1.416754127E-1,1.561641693E-2
3.168738817E1,1.902339458E-1,-1.550484896E-1,2.161598206E-2
3.170528276E1,1.721604168E-1,-1.337280273E-1,-4.819202423E-2
3.172317723E1,1.668051183E-1,-8.510994911E-2,-5.505561829E-3
3.174107378E1,8.343991637E-2,-6.379592419E-2,-4.234504700E-2
3.175895488E1,1.284426451E-1,-6.144130230E-2,-5.123138428E-3
3.177686065E1,1.738897264E-1,-9.694510698E-2,6.806373596E-3
3.179475488E1,1.092987955E-1,-1.155614853E-1,-2.201461792E-2
3.181264953E1,1.644634008E-1,-1.508545876E-1,-5.606555939E-2
3.183054706E1,8.449006081E-2,-1.351102591E-1,-6.182575226E-2
3.184843823E1,8.927285671E-2,-1.262048483E-1,-4.482078552E-2
3.186632330E1,7.744908333E-2,-1.018579602E-1,-2.669048309E-2
3.188422736E1,7.898849249E-2,-6.471890211E-2,2.279281616E-4
3.190212189E1,1.213884056E-1,-8.346801996E-2,-4.505157471E-3
3.192001642E1,1.131184399E-1,-1.243032813E-1,-1.378631592E-2
3.193791071E1,1.334823966E-1,-1.290612221E-1,-6.442070007E-2
3.195580805E1,5.682301521E-2,-1.391438842E-1,-4.422569275E-2
3.197369960E1,1.079073846E-1,-1.240894198E-1,-2.203273773E-2
3.199158369E1,7.496824861E-2,-9.120887518E-2,1.973247528E-2
3.200948555E1,8.294433355E-2,-7.406640053E-2,1.082515717E-2
3.202738283E1,1.020162106E-1,-5.743330717E-2,4.516601562E-3
3.204527443E1,1.207791567E-1,-1.173603535E-1,4.232120514E-2
3.206317190E1,1.571262181E-1,-1.222971678E-1,1.396846771E-2
3.208106643E1,1.259500384E-1,-1.352905035E-1,2.216720581E-2
3.209894906E1,1.191796958E-1,-1.132672429E-1,3.800964355E-2
3.211685537E1,8.870565891E-2,-1.215108633E-1,8.055400848E-2
3.213474978E1,1.397771537E-1,-1.158764362E-1,5.060768127E-2
3.215262973E1,1.040697396E-1,-7.254499197E-2,8.342742920E-2
3.217053861E1,1.494823992E-1,-5.989736319E-2,7.848167419E-2
3.218843497E1,1.250014305E-1,-4.751127958E-2,5.923652649E-2
3.220633158E1,1.251634657E-1,-8.487570286E-2,8.036136627E-2
3.222422196E1,1.460402906E-1,-1.119856238E-1,6.227016449E-2
3.224211649E1,8.069843054E-2,-1.287158728E-1,4.735279083E-2
3.226001103E1,1.210001409E-1,-1.099978685E-1,1.270580292E-2
3.227790232E1,1.120459437E-1,-7.540434599E-2,1.192283630E-2
3.229579997E1,9.327229857E-2,-5.935585499E-2,-3.115653992E-3
3.231369444E1,9.184375405E-2,-6.928902864E-2,2.016735077E-2
3.233158348E1,7.621854544E-2,-9.511578083E-2,2.022266388E-2
3.234948143E1,7.727825642E-2,-1.157841086E-1,-1.822948456E-2
3.236737774E1,1.014944315E-1,-1.511292458E-1,-4.077053070E-2
3.238527203E1,4.652926326E-2,-1.351256371E-1,-1.083879471E-1
3.240316656E1,3.968003392E-2,-1.019951105E-1,-8.413124084E-2
3.242106109E1,8.297580481E-2,-4.301619530E-2,-4.886531830E-2
3.243894372E1,7.212516665E-2,-6.805056334E-2,-3.516483307E-2
3.245684997E1,7.913061976E-2,-9.981173277E-2,-1.793193817E-2
3.247474451E1,6.133621931E-2,-1.607041955E-1,-3.774929047E-2
3.249263904E1,8.570969105E-3,-1.489337683E-1,-6.302833557E-2
3.251053333E1,8.272680640E-2,-1.253451705E-1,-2.264022827E-2
3.252842756E1,4.286336899E-2,-1.114782095E-1,-2.197647095E-2
3.254631043E1,1.178065538E-1,-7.531130314E-2,-3.070831299E-3
3.256421669E1,7.807934284E-2,-5.305713415E-2,2.048778534E-2
3.258211122E1,2.711334825E-2,-6.718158722E-2,5.284023285E-2
3.260000575E1,1.067425609E-1,-9.446895123E-2,8.328723907E-2
3.261790004E1,7.935440540E-2,-1.338003576E-1,6.357955933E-2
3.263579457E1,1.531142890E-1,-1.731491387E-1,1.895999908E-2
3.265367739E1,1.147090197E-1,-1.655238867E-1,2.388572693E-2
3.267156423E1,5.687996745E-2,-1.253970861E-1,5.452156067E-3
3.268947890E1,1.010343432E-1,-5.177956820E-2,8.890056610E-2
3.270737209E1,1.761514246E-1,-2.848511934E-2,1.367216110E-1
3.272526669E1,1.353372633E-1,-6.506776810E-2,1.285934448E-1
3.274315829E1,4.601237178E-2,-9.460103512E-2,1.186275482E-1
3.276105642E1,7.459071279E-2,-1.258628368E-1,6.082248688E-2
3.277893839E1,1.219440103E-1,-1.145498753E-1,7.505416870E-2
3.279684464E1,1.163933277E-1,-1.144716144E-1,7.229614258E-2
3.281473923E1,6.580790877E-2,-7.823902369E-2,6.334495544E-2
3.283263370E1,1.053950489E-1,-5.903482437E-2,8.628082275E-2
3.285052769E1,9.502643347E-2,-6.853896379E-2,9.136867523E-2
3.286842283E1,9.844473004E-2,-7.770180702E-2,9.107112885E-2
3.288631456E1,9.012770653E-2,-9.584844112E-2,6.154823303E-2
3.290421129E1,1.202321351E-1,-1.509315372E-1,1.487636566E-2
3.292210582E1,1.198287606E-1,-1.163668036E-1,-2.215671539E-2
3.294000041E1,1.129830778E-1,-1.003862023E-1,-3.728294373E-2
3.295789470E1,1.051555574E-1,-6.716108322E-2,-3.133773804E-2
3.297578924E1,1.013798118E-1,-5.602908134E-2,9.318351746E-3
3.299368377E1,1.350196898E-1,-6.451570988E-2,-2.298355103E-2
3.301158264E1,8.709686995E-2,-9.300404787E-2,-2.617359161E-2
3.302946960E1,9.792611003E-2,-1.294845641E-1,-7.699489594E-2
3.304735815E1,1.651614010E-1,-1.496420503E-1,-9.686279297E-2
3.306526141E1,1.468059719E-1,-1.155297160E-1,-9.188175201E-2
3.308315894E1,6.634625793E-2,-1.293042898E-1,-1.116695404E-1
3.310105048E1,7.773515582E-2,-7.968515158E-2,-1.322555542E-1
3.311893000E1,1.113369465E-1,-7.671493292E-2,-6.731033325E-2
3.313683924E1,1.285536289E-1,-6.364512444E-2,-1.046876907E-1
3.315473389E1,7.482421398E-2,-9.443950653E-2,-1.110343933E-1
3.317263099E1,1.166855395E-1,-1.185589433E-1,-1.713027954E-1
3.319052259E1,1.364526153E-1,-1.385902464E-1,-1.411523819E-1
3.320841688E1,1.740462482E-1,-1.391577125E-1,-1.563711166E-1
3.322631148E1,4.485020041E-2,-1.423853636E-1,-1.151132584E-1
3.324420485E1,1.630236357E-1,-7.097423077E-2,-8.780097961E-2
3.326210024E1,8.584246039E-2,-8.742237091E-2,-4.352760315E-2
3.327999508E1,1.982896775E-1,-5.751603842E-2,-6.381607056E-2
3.329788930E1,7.279330492E-2,-1.123685241E-1,-7.241725922E-2
3.331578390E1,2.158626616E-1,-1.236687601E-1,-5.129432678E-2
3.333366769E1,9.024949372E-2,-1.231358051E-1,3.999710083E-3
3.335157565E1,1.807179451E-1,-1.310969591E-1,3.139495850E-3
3.336946396E1,6.018260121E-2,-1.208585203E-1,4.772567749E-2
3.338735007E1,1.668241322E-1,-1.024184227E-1,8.082389832E-2
3.340524430E1,2.752229571E-2,-8.358579874E-2,9.776592255E-2
3.342313688E1,1.414554715E-1,-6.942993402E-2,8.754730225E-2
3.344104813E1,3.369331360E-2,-1.009989381E-1,1.011190414E-1
3.345892789E1,1.441646814E-1,-1.126233935E-1,1.009149551E-1
3.347683109E1,1.032070369E-1,-1.284746528E-1,6.981086731E-2
3.349472612E1,8.944211900E-2,-8.877843618E-2,9.370803833E-2
3.351262285E1,-1.799038053E-2,-5.303329229E-2,8.478736877E-2
3.353051726E1,8.057501912E-2,-3.745800257E-2,1.198911667E-1
3.354841179E1,8.024831116E-2,-8.476638794E-2,5.637168884E-2
3.356630614E1,1.286356151E-1,-1.057832837E-1,3.807830811E-2
3.358420006E1,-4.299968481E-3,-1.112772524E-1,2.793121338E-2
3.360209496E1,1.436387897E-1,-1.210126877E-1,3.346920013E-2
3.361999163E1,6.273314357E-2,-9.657764435E-2,3.260707855E-2
3.363788433E1,9.588456154E-2,-8.987426758E-2,6.280612946E-2
3.365578149E1,-5.760248005E-2,-4.108327627E-2,-1.251506805E-2
3.367367316E1,5.647616088E-2,-5.534124374E-2,2.453231812E-2
3.369156897E1,9.921611845E-2,-6.741821766E-2,-2.090644836E-2
3.370945868E1,1.379665285E-1,-1.345260739E-1,-4.456901550E-2
3.372735620E1,4.897688329E-2,-1.412239969E-1,-2.555942535E-2
3.374525068E1,4.960109293E-2,-1.422215998E-1,8.897781372E-3
3.376314497E1,1.076716706E-1,-8.475351334E-2,-1.470851898E-2
3.378103962E1,4.582199454E-2,-8.263361454E-2,-6.253242493E-3
3.379892219E1,3.838260472E-2,-5.954766273E-2,-5.236625671E-2
3.381682838E1,7.498309016E-2,-1.130704880E-1,-3.627681732E-2
3.383472157E1,1.373006701E-1,-1.168050766E-1,-1.133127213E-1
3.385261769E1,5.999858677E-2,-1.570323110E-1,-8.797645569E-2
3.387051174E1,1.075963229E-1,-1.078710556E-1,-1.265344620E-1
3.388840621E1,7.658308744E-2,-9.605914354E-2,-1.450653076E-1
3.390629928E1,1.203512996E-1,-4.849725962E-2,-1.230621338E-1
3.392419534E1,6.252188236E-2,-7.447016239E-2,-1.647949219E-1
3.394208962E1,1.538342834E-1,-6.304967403E-2,-1.719865799E-1
3.395998849E1,1.800996065E-2,-1.243483424E-1,-1.380739212E-1
3.397787839E1,1.500404328E-1,-1.123653948E-1,-2.261562347E-1
3.399576291E1,4.062588513E-2,-1.387090683E-1,-1.675796509E-1
3.401366751E1,2.316644788E-1,-6.934922934E-2,-1.611137390E-1
3.403156229E1,2.137018740E-2,-6.503379345E-2,-1.397638321E-1
3.404945621E1,1.294439286E-1,-2.150297165E-2,-1.090364456E-1
3.406735062E1,-4.567576945E-2,-3.908663988E-2,-7.680892944E-2
3.408524516E1,1.481310129E-1,-6.744766235E-2,-8.510589600E-3
3.410313969E1,8.290393651E-2,-9.652632475E-2,-4.006004333E-2
3.412103447E1,7.899650931E-2,-1.212952435E-1,-6.113338470E-2
3.413891722E1,-8.720114827E-3,-9.282732010E-2,-8.634090424E-2
3.415682598E1,1.480450183E-1,-7.166993618E-2,-3.677082062E-2
3.417471758E1,-4.157438874E-3,-8.607256413E-2,6.620407104E-3
3.419261217E1,1.109509096E-1,-5.061042309E-2,1.593112946E-2
3.421050646E1,-8.585808426E-2,-6.499886513E-2,4.607009888E-2
3.422840069E1,5.555128306E-2,-8.140331507E-2,1.085329056E-1
3.424629522E1,9.704738855E-3,-8.294451237E-2,6.011962891E-2
3.426418969E1,3.790540993E-2,-9.260541201E-2,4.132556915E-2
3.428208417E1,4.225185513E-2,-6.801903248E-2,-3.283023834E-2
3.429997876E1,9.842798114E-3,-6.663364172E-2,2.145576477E-2
3.431787311E1,1.420049369E-2,-3.693795204E-2,1.700687408E-2
3.433577063E1,1.771704853E-2,-6.664890051E-2,4.229164124E-2
3.435366224E1,1.328090578E-2,-7.999265194E-2,5.023670197E-2
3.437155646E1,-5.520428717E-2,-1.616802216E-1,2.058410645E-2
3.438943250E1,-8.417770267E-3,-1.294935942E-1,1.539230347E-2
3.440733741E1,-9.368427098E-2,-1.336253285E-1,-2.426815033E-2
3.442523982E1,5.973921344E-2,-5.309927464E-2,-5.814743042E-2
3.444313441E1,-6.980268657E-2,-4.715150595E-2,-3.183650970E-2
3.446102889E1,6.741762906E-2,-2.080309391E-2,-6.816864014E-3
3.447891219E1,-2.788679302E-2,-3.946024179E-2,2.157020569E-2
3.449681771E1,3.316917643E-2,-9.233897924E-2,2.737140656E-2
3.451471200E1,-1.183229685E-2,-1.393370032E-1,-6.869602203E-2
3.453260604E1,4.672067612E-2,-1.488982737E-1,-3.057384491E-2
3.455050405E1,-5.270770192E-2,-1.298662424E-1,-8.132648468E-2
3.456839535E1,8.711853623E-2,-9.179943800E-2,-1.407718658E-2
3.458628988E1,2.415212244E-2,-5.494260788E-2,-6.975269318E-2
3.460418442E1,9.636890888E-2,-6.355786324E-2,-1.647853851E-2
3.462207859E1,2.289487794E-2,-6.982451677E-2,-5.092811584E-2
3.463997348E1,8.052931726E-2,-1.124670208E-1,-3.881168365E-2
3.465787052E1,-2.133161575E-2,-1.565078497E-1,-5.365371704E-2
3.467576231E1,1.634091139E-3,-1.530887187E-1,-9.244918823E-2
3.469365690E1,-3.149766847E-2,-9.267431498E-2,-6.698894501E-2
3.471155082E1,9.127283096E-2,-7.058584690E-2,-6.143951416E-2
3.472944236E1,2.866391465E-2,-2.296513319E-2,-8.844566345E-2
3.474734239E1,-2.664304897E-2,-9.169495106E-2,-6.792163849E-2
3.476523448E1,-1.652931049E-2,-9.737116098E-2,-7.749843597E-2
3.478312871E1,-1.020784862E-2,-1.213784814E-1,-7.096290588E-3
3.480102324E1,4.366686195E-2,-1.220186949E-1,-5.772686005E-2
3.481890661E1,-6.671927124E-2,-8.087921143E-2,-6.491851807E-2
3.483681219E1,-4.401839525E-2,-5.143398046E-2,-5.303955078E-2
3.485470660E1,-1.890009828E-2,-7.140451670E-2,-2.246665955E-2
3.487260132E1,1.880218834E-2,-8.841454983E-2,2.374553680E-2
3.489049566E1,-1.348477006E-1,-1.265203655E-1,-1.478195190E-2
3.490838971E1,-7.720427960E-2,-1.172862649E-1,-2.621555328E-2
3.492628455E1,-4.223511368E-2,-9.953546524E-2,1.651954651E-2
3.494417872E1,-2.340655401E-2,-8.008867502E-2,1.944160461E-2
3.496207337E1,-6.775427610E-2,-3.963494301E-2,3.137397766E-2
3.497996790E1,-4.115251079E-2,-4.945135117E-2,-1.093769073E-2
3.499786219E1,-1.054707766E-1,-5.418479443E-2,4.717826843E-3
3.501575679E1,-5.898477137E-2,-1.032498479E-1,5.016326904E-2
3.503365101E1,-1.738976389E-1,-1.240479946E-1,-1.913642883E-2
3.505154848E1,-1.290934384E-1,-1.155787706E-1,-3.217697144E-3
3.506943623E1,-3.722213954E-2,-7.211017609E-2,-1.255512238E-2
3.508733425E1,-2.194490135E-1,-6.452536583E-2,2.703666687E-3
3.510522890E1,-8.696317673E-2,-4.034131765E-2,2.598857880E-2
3.512312643E1,-2.358563393E-1,-5.289590359E-2,-4.782772064E-2
3.514101784E1,-1.307462156E-1,-3.099125624E-2,-2.305507660E-2
3.515889767E1,-1.969606131E-1,-7.454782724E-2,-1.438236237E-2
3.517680697E1,-2.344393730E-1,-8.570897579E-2,-1.149873734E-1
3.519470108E1,-8.715733886E-2,-8.962690830E-2,-9.790420532E-3
3.521259561E1,-8.892845362E-2,-1.065085530E-1,-8.079338074E-2
3.523049014E1,-2.427034080E-1,-5.239689350E-2,-1.003360748E-2
3.524838449E1,-1.703773737E-1,-2.886742353E-2,2.144908905E-2
3.526627897E1,-2.002188265E-1,-6.740337610E-2,-5.680179596E-2
3.528417350E1,3.759307414E-2,-1.096985340E-1,4.755973816E-3
3.530206773E1,-2.274859101E-1,-1.023553014E-1,-9.040832520E-2
3.531996226E1,-2.310483754E-1,-7.452094555E-2,-7.738494873E-2
3.533785692E1,-1.270785555E-2,-6.121355295E-2,-6.199741364E-2
3.535575114E1,-6.177047268E-2,-4.193443060E-2,-3.006935120E-3
3.537364568E1,-2.467354089E-1,-4.619938135E-2,1.496696472E-2
3.539153996E1,-1.392004937E-1,-5.322873592E-2,-2.951335907E-2
3.540943145E1,-9.403355420E-2,-6.201225519E-2,2.206802368E-3
3.542732897E1,9.446841478E-2,-8.283904195E-2,6.327629089E-3
3.544522363E1,-9.646817297E-2,-1.207601428E-1,-2.496051788E-2
3.546311785E1,-1.262629032E-1,-1.397468150E-1,-4.339218140E-2
3.548101208E1,-3.240348026E-2,-6.883776188E-2,-1.006984711E-2
3.549889496E1,-1.231391430E-1,-3.141903877E-2,-2.398490906E-2
3.551680121E1,-3.415708616E-2,-4.103475809E-2,6.532669067E-2
3.553469568E1,-7.208210975E-2,-5.640137196E-2,7.054424286E-2
3.555258741E1,-5.098823458E-2,-1.308830678E-1,6.144332886E-2
3.557048456E1,-5.458519608E-2,-1.137128174E-1,1.665782928E-2
3.558837910E1,-2.076767087E-1,-1.176171601E-1,-4.004669189E-2
3.560627369E1,1.496848464E-2,-5.704414845E-2,-5.357551575E-2
3.562415956E1,-4.834150523E-2,-3.035801649E-2,-9.986877441E-3
3.564204750E1,-1.014195010E-1,-7.215577364E-2,-1.001739502E-2
