"Time (s)","Acceleration x (m/s^2)","Acceleration y (m/s^2)","Acceleration z (m/s^2)"
1.546683700E-2,8.883952141E0,-2.691925503E-2,2.739183664E0
1.784881600E-2,8.893523216E0,-7.178467698E-3,2.782254457E0
2.023079600E-2,8.916853905E0,7.776673418E-3,2.897708178E0
2.261277500E-2,8.926424980E0,2.751746029E-2,3.065205812E0
2.499470200E-2,8.984451294E0,5.982056609E-4,3.232703447E0
2.737668100E-2,9.008378983E0,-3.230310604E-2,3.371487141E0
2.975866000E-2,9.013164520E0,-1.674975827E-2,3.500699520E0
3.214058700E-2,9.028120041E0,-2.572284266E-2,3.591626883E0
3.452256600E-2,9.022735596E0,-6.580262445E-3,3.677768469E0
3.690454600E-2,9.037691116E0,-2.512463741E-2,3.725624800E0
3.928647300E-2,9.032905579E0,-2.991028316E-2,3.739981890E0
4.166845200E-2,9.047262192E0,-5.862415582E-2,3.759722471E0
4.405043100E-2,9.056833267E0,-4.905286431E-2,3.745365620E0
4.643241000E-2,9.066405296E0,-3.948157281E-2,3.711267948E0
4.881433700E-2,9.056833267E0,-4.905286431E-2,3.668795347E0
5.119631600E-2,9.061619759E0,-5.922235921E-2,3.630510092E0
5.357829600E-2,9.085547447E0,-6.340979785E-2,3.601796389E0
5.596022300E-2,9.119047165E0,-8.255238086E-2,3.582653761E0
5.834220200E-2,9.124430656E0,-1.016949639E-1,3.558725595E0
6.072418100E-2,9.143573761E0,-1.351944804E-1,3.530011654E0
6.310616000E-2,9.139386177E0,-1.734796464E-1,3.496512175E0
6.548808700E-2,9.144171715E0,-1.686939895E-1,3.501297712E0
6.787006600E-2,9.153742790E0,-1.728814393E-1,3.510869026E0
7.025204600E-2,9.177671432E0,-1.776670814E-1,3.553939819E0
7.263397300E-2,9.187242508E0,-1.962114573E-1,3.635295868E0
7.501595200E-2,9.215956688E0,-2.099701911E-1,3.717249870E0
7.739793100E-2,9.249456406E0,-2.183450609E-1,3.784249067E0
7.977991000E-2,9.287740707E0,-2.225325108E-1,3.832105398E0
8.216183700E-2,9.297910690E0,-2.273181528E-1,3.860819340E0
8.454381600E-2,9.278767586E0,-2.327020019E-1,3.822534084E0
8.692579600E-2,9.293125153E0,-2.518445849E-1,3.774677753E0
8.930772300E-2,9.269196510E0,-2.572284341E-1,3.674179077E0
9.168970200E-2,9.211769104E0,-2.775674164E-1,3.568894863E0
9.407168100E-2,9.168698311E0,-2.781656384E-1,3.468396425E0
9.645360800E-2,9.130413055E0,-2.745763958E-1,3.391826153E0
9.883558700E-2,9.125627518E0,-2.745763958E-1,3.353540897E0
1.012175660E-1,9.116056442E0,-2.650051117E-1,3.329612732E0
1.035995460E-1,9.101698875E0,-2.745763958E-1,3.339184046E0
1.059814730E-1,9.096913338E0,-2.608176768E-1,3.339184046E0
1.083634520E-1,9.116056442E0,-2.745763958E-1,3.339184046E0
1.107454310E-1,9.130413055E0,-2.697907388E-1,3.358326674E0
1.131273580E-1,9.159127235E0,-2.739782035E-1,3.358326674E0
1.155093370E-1,9.163912773E0,-2.739782035E-1,3.377469063E0
1.178913160E-1,9.168698311E0,-2.739782035E-1,3.377469063E0
1.202732960E-1,9.173483849E0,-2.739782035E-1,3.367897987E0
1.226552230E-1,9.154341698E0,-2.548356056E-1,3.377469063E0
1.250372020E-1,9.154341698E0,-2.596212626E-1,3.377469063E0
1.274191810E-1,9.154341698E0,-2.596212626E-1,3.367897987E0
1.298011080E-1,9.159127235E0,-2.596212626E-1,3.410968781E0
1.321830870E-1,9.139984131E0,-2.596212626E-1,3.439682484E0
1.345650660E-1,9.139984131E0,-2.644068897E-1,3.468396425E0
1.369469930E-1,9.163912773E0,-2.350948304E-1,3.530609846E0
1.393289730E-1,9.178269386E0,-2.392822653E-1,3.592823267E0
1.417109520E-1,9.202198029E0,-2.578266263E-1,3.664607763E0
1.440929310E-1,9.240483284E0,-2.524427772E-1,3.722035646E0
1.464748580E-1,9.278767586E0,-2.566302419E-1,3.793820381E0
1.488568370E-1,9.312267303E0,-2.464607358E-1,3.793820381E0
1.512388160E-1,9.345767021E0,-2.416750938E-1,3.750749588E0
1.536207430E-1,9.330811501E0,-2.327020019E-1,3.712464333E0
1.560027230E-1,9.321240425E0,-2.231307179E-1,3.621536970E0
1.583847020E-1,9.321240425E0,-2.093719840E-1,3.563511133E0
1.607666810E-1,9.297312737E0,-1.908276081E-1,3.539582968E0
1.631486080E-1,9.296713829E0,-1.477568001E-1,3.491726398E0
1.655305870E-1,9.291928291E0,-1.381855011E-1,3.467798233E0
1.679125660E-1,9.296115875E0,-1.196411327E-1,3.443870068E0
1.702944930E-1,9.281759262E0,-9.571290761E-2,3.434298754E0
1.726764730E-1,9.276973724E0,-8.614161611E-2,3.424129248E0
1.750584520E-1,9.272188187E0,-8.135596663E-2,3.419343472E0
1.774403790E-1,9.243474007E0,-8.195417374E-2,3.409772158E0
1.798223580E-1,9.218947411E0,-5.324030295E-2,3.400201082E0
1.822043370E-1,9.180662155E0,-3.469592705E-2,3.409772158E0
1.845863160E-1,9.147162437E0,-2.093719877E-2,3.395415306E0
1.869682430E-1,9.084949493E0,-1.674975827E-2,3.357130051E0
1.893502230E-1,9.055637360E0,1.136590727E-2,3.337987661E0
1.917322020E-1,9.022735596E0,1.196411322E-3,3.309273720E0
1.941141290E-1,8.980263710E0,-3.230310604E-2,3.337987661E0
1.964961080E-1,8.976076126E0,-9.451649338E-2,3.372085333E0
1.988780870E-1,8.971290588E0,-1.280160099E-1,3.376870871E0
2.012600660E-1,8.967103004E0,-1.519442350E-1,3.400799274E0
2.036419930E-1,8.967103004E0,-1.710868180E-1,3.401397467E0
2.060239730E-1,8.962317467E0,-1.806581169E-1,3.415754318E0
2.084059520E-1,8.971888542E0,-1.657029688E-1,3.444468260E0
2.107878790E-1,8.991030693E0,-1.896311939E-1,3.482753277E0
2.131698580E-1,9.020342827E0,-2.033899277E-1,3.506681681E0
2.155518370E-1,9.034700394E0,-1.980060786E-1,3.540181160E0
2.179337640E-1,9.058628082E0,-2.123630047E-1,3.540181160E0
2.203157430E-1,9.082556725E0,-2.213360965E-1,3.540181160E0
2.226977230E-1,9.111269951E0,-2.452643216E-1,3.554538012E0
2.250797020E-1,9.135198593E0,-2.542374134E-1,3.578466177E0
2.274616290E-1,9.159127235E0,-2.542374134E-1,3.583251953E0
2.298436080E-1,9.145368576E0,-2.877369225E-1,3.559323788E0
2.322255870E-1,9.159725189E0,-3.116651475E-1,3.549752474E0
2.346075140E-1,9.159725189E0,-3.308077157E-1,3.564707518E0
2.369894930E-1,9.226723671E0,-3.152543902E-1,3.635894060E0
2.393714730E-1,9.260223389E0,-3.002992272E-1,3.702893019E0
2.417534520E-1,9.307481766E0,-2.662015259E-1,3.731606960E0
2.441353790E-1,9.311669350E0,-2.231307179E-1,3.717249870E0
2.465173580E-1,9.339784622E0,-1.704886109E-1,3.687937975E0
2.488993370E-1,9.334401131E0,-1.226321608E-1,3.707080364E0
2.512812640E-1,9.333803177E0,-6.520441920E-2,3.682554007E0
2.536632430E-1,9.329017639E0,-5.563312769E-2,3.663411379E0
2.560452230E-1,9.314660072E0,-4.666004330E-2,3.649054527E0
2.584272020E-1,9.299705505E0,-8.374879137E-3,3.644268990E0
2.608091290E-1,9.290732384E0,-1.794617064E-2,3.615555048E0
2.631911080E-1,9.280562401E0,5.982056609E-4,3.629911900E0
2.655730870E-1,9.237491608E0,2.452643216E-2,3.634697676E0
2.679550140E-1,9.199206352E0,3.828516230E-2,3.615555048E0
2.703369930E-1,9.165707588E0,1.375873014E-2,3.620340586E0
2.727189730E-1,9.156734467E0,8.973085321E-3,3.620340586E0
2.751009000E-1,9.141778946E0,4.247260094E-2,3.653840065E0
2.774828790E-1,9.117850304E0,2.333002165E-2,3.649054527E0
2.798648580E-1,9.108279228E0,3.708875179E-2,3.639483213E0
2.822468370E-1,9.089735031E0,1.794617064E-2,3.625126362E0
2.846287640E-1,9.075378418E0,3.589233849E-3,3.629911900E0
2.870107430E-1,9.070592880E0,1.794617064E-2,3.634697676E0
2.893927230E-1,9.037093163E0,2.691925503E-2,3.649054527E0
2.917746500E-1,9.022735596E0,2.991028363E-3,3.658625841E0
2.941566290E-1,9.013164520E0,-1.136590727E-2,3.653840065E0
2.965386080E-1,9.013762474E0,-3.050848842E-2,3.639483213E0
2.989205350E-1,9.013762474E0,-4.007977992E-2,3.625724554E0
3.013025140E-1,9.018548965E0,-6.400800496E-2,3.640081406E0
3.036844930E-1,9.004789352E0,-7.836493850E-2,3.654438496E0
3.060664730E-1,9.019146919E0,-9.272187948E-2,3.654438496E0
3.084484000E-1,9.014361382E0,-7.836493850E-2,3.625724554E0
3.108303790E-1,9.033503532E0,-1.070788130E-1,3.630510092E0
3.132123580E-1,9.028717995E0,-1.214357466E-1,3.640081406E0
3.155943370E-1,9.019146919E0,-1.166501045E-1,3.630510092E0
3.179762640E-1,9.029315948E0,-1.405783296E-1,3.625724554E0
3.203582430E-1,9.047860146E0,-1.351944804E-1,3.625724554E0
3.227402230E-1,9.047860146E0,-1.351944804E-1,3.625724554E0
3.251221500E-1,9.043673515E0,-1.734796464E-1,3.640679598E0
3.275041290E-1,9.048459053E0,-1.878365725E-1,3.635894060E0
3.298861080E-1,9.062815666E0,-1.974078715E-1,3.602394581E0
3.322680350E-1,9.072985649E0,-2.309073806E-1,3.592823267E0
3.346500140E-1,9.072985649E0,-2.309073806E-1,3.573680639E0
3.370319930E-1,9.072985649E0,-2.261217386E-1,3.559323788E0
3.394139730E-1,9.082556725E0,-2.261217386E-1,3.573680639E0
3.417959000E-1,9.082556725E0,-2.356930375E-1,3.564109325E0
3.441778790E-1,9.068199158E0,-2.356930375E-1,3.559323788E0
3.465598580E-1,9.072985649E0,-2.356930375E-1,3.540181160E0
3.489417850E-1,9.039485931E0,-2.554338276E-1,3.530609846E0
3.513237640E-1,9.063413620E0,-2.554338276E-1,3.544966698E0
3.537057430E-1,9.125627518E0,-2.548356056E-1,3.530609846E0
3.560877230E-1,9.092127800E0,-2.596212626E-1,3.573680639E0
3.584696500E-1,9.073583603E0,-2.739782035E-1,3.602394581E0
3.608516290E-1,9.064012527E0,-2.979064286E-1,3.559323788E0
3.632336080E-1,9.097511292E0,-3.074777126E-1,3.511467218E0
3.656155350E-1,9.121439934E0,-3.218346536E-1,3.512065411E0
3.679975140E-1,9.140582085E0,-3.164508045E-1,3.525824070E0
3.703794930E-1,9.121439934E0,-2.973082066E-1,3.573680639E0
3.727614730E-1,9.111868858E0,-2.733799815E-1,3.568894863E0
3.751434000E-1,9.140582085E0,-2.829512656E-1,3.568894863E0
3.775253790E-1,9.154341698E0,-2.542374134E-1,3.564109325E0
3.799073580E-1,9.178269386E0,-2.679961324E-1,3.564109325E0
3.822892850E-1,9.192625999E0,-2.584248483E-1,3.602394581E0
3.846712640E-1,9.211171150E0,-2.243271172E-1,3.621536970E0
3.870532430E-1,9.206384659E0,-1.914258152E-1,3.587439299E0
3.894351710E-1,9.235098839E0,-2.003988922E-1,3.568296671E0
3.918171500E-1,9.254241943E0,-1.860419661E-1,3.592225075E0
3.941991290E-1,9.258428574E0,-1.668993831E-1,3.616153240E0
3.965811080E-1,9.248857498E0,-1.573280841E-1,3.611367464E0
3.989630350E-1,9.253643036E0,-1.477568001E-1,3.587439299E0
4.013450140E-1,9.239286423E0,-1.621137410E-1,3.606581926E0
4.037269930E-1,9.263215065E0,-1.764706671E-1,3.597010612E0
4.061089210E-1,9.278169632E0,-1.854437590E-1,3.606581926E0
4.084909000E-1,9.272786140E0,-1.663011760E-1,3.616153240E0
4.108728790E-1,9.268000603E0,-1.710868180E-1,3.620938778E0
4.132548580E-1,9.292527199E0,-1.950150430E-1,3.587439299E0
4.156367850E-1,9.316454887E0,-2.093719840E-1,3.563511133E0
4.180187640E-1,9.297312737E0,-2.141576260E-1,3.549154282E0
4.204007430E-1,9.287740707E0,-2.093719840E-1,3.563511133E0
4.227826710E-1,9.292527199E0,-2.243271172E-1,3.530609846E0
4.251646500E-1,9.358927727E0,-1.710868180E-1,3.510869026E0
4.275466290E-1,9.386445045E0,-6.999006122E-2,3.510270834E0
4.299285560E-1,9.366703987E0,-2.691925503E-2,3.562912941E0
4.323105350E-1,9.314660072E0,-2.751746029E-2,3.601198196E0
4.346925140E-1,9.256634712E0,-8.973085321E-3,3.596412420E0
4.370744410E-1,9.176474571E0,-6.759724021E-2,3.519842148E0
4.394564210E-1,9.105288506E0,-1.310070455E-1,3.424727440E0
4.418384000E-1,9.062815666E0,-1.890329868E-1,3.334398270E0
4.442203790E-1,9.034700394E0,-2.279163599E-1,3.281756163E0
4.466023060E-1,9.010771751E0,-2.524427772E-1,3.276970625E0
4.489842850E-1,8.977272034E0,-2.380858511E-1,3.286541939E0
4.513662640E-1,8.991629601E0,-2.285145670E-1,3.281756163E0
4.537482430E-1,8.991030693E0,-1.902294010E-1,3.296113253E0
4.561301710E-1,9.005388260E0,-1.567298770E-1,3.319443226E0
4.585121500E-1,9.010173798E0,-1.561316848E-1,3.352942705E0
4.608941290E-1,9.019146919E0,-1.322034448E-1,3.372085333E0
4.632760560E-1,9.028717995E0,-1.507478207E-1,3.410370588E0
4.656580350E-1,9.043673515E0,-1.555334777E-1,3.429512978E0
4.680400140E-1,9.048459053E0,-1.794617027E-1,3.453441381E0
4.704219410E-1,9.038887978E0,-1.698904037E-1,3.472583771E0
4.728039210E-1,9.014959335E0,-1.698904037E-1,3.491726398E0
4.751859000E-1,9.019744873E0,-1.842473447E-1,3.497110367E0
4.775678790E-1,9.005388260E0,-1.746760458E-1,3.540181160E0
4.799498060E-1,9.019744873E0,-1.932204217E-1,3.564109325E0
4.823317850E-1,9.024530411E0,-1.836491376E-1,3.544966698E0
4.847137640E-1,9.038887978E0,-1.645065546E-1,3.582653761E0
4.870956910E-1,9.071788788E0,-1.351944804E-1,3.582653761E0
4.894776710E-1,9.090931892E0,-1.016949639E-1,3.620938778E0
4.918596500E-1,9.114859581E0,-1.010967568E-1,3.654438496E0
4.942416290E-1,9.123832703E0,-7.716853172E-2,3.678366661E0
4.966235560E-1,9.142974854E0,-7.657032460E-2,3.711866140E0
4.990055350E-1,9.176474571E0,-5.742774159E-2,3.706482172E0
5.013875140E-1,9.190832138E0,-5.742774159E-2,3.692125320E0
5.037694410E-1,9.190832138E0,-6.699903309E-2,3.677768469E0
5.061514210E-1,9.186046600E0,-6.221338734E-2,3.639483213E0
5.085334000E-1,9.162117958E0,-5.324030295E-2,3.610769272E0
5.109153270E-1,9.152546883E0,-6.759724021E-2,3.577867985E0
5.132973060E-1,9.142974854E0,-6.281159073E-2,3.553341627E0
5.156792850E-1,9.123234749E0,-4.426721856E-2,3.529413462E0
5.180612640E-1,9.094520569E0,-3.050848842E-2,3.515056372E0
5.204431910E-1,9.094520569E0,-3.529413417E-2,3.491128206E0
5.228251710E-1,9.080163956E0,-2.572284266E-2,3.471985579E0
5.252071500E-1,9.056235313E0,-1.674975827E-2,3.448057413E0
5.275891290E-1,9.037093163E0,-2.153540403E-2,3.438486099E0
5.299710560E-1,9.013164520E0,-1.734796353E-2,3.424129248E0
5.323530350E-1,9.008378983E0,-1.256231871E-2,3.404986620E0
5.347350140E-1,8.998807907E0,1.615155302E-2,3.400201082E0
5.371169410E-1,8.970093727E0,2.033899166E-2,3.385843992E0
5.394989210E-1,8.960522652E0,2.033899166E-2,3.371487141E0
5.418809000E-1,8.946166039E0,1.974078640E-2,3.357130051E0
5.442628270E-1,8.922237396E0,1.974078640E-2,3.361915827E0
5.466448060E-1,8.926424980E0,3.888336942E-2,3.352344513E0
5.490267850E-1,8.897710800E0,3.828516230E-2,3.347558975E0
5.514087640E-1,8.903095245E0,9.571290575E-3,3.352344513E0
5.537906910E-1,8.903095245E0,9.571290575E-3,3.352344513E0
5.561726710E-1,8.907880783E0,5.982056609E-4,3.352344513E0
5.585546500E-1,8.907880783E0,-8.973085321E-3,3.357130051E0
5.609365770E-1,8.927620888E0,-2.811566554E-2,3.333201885E0
5.633185560E-1,8.932407379E0,-6.640082598E-2,3.348157167E0
5.657005350E-1,8.951549530E0,-8.015955985E-2,3.367299557E0
5.680825140E-1,8.956933022E0,-8.973085135E-2,3.386442184E0
5.704644410E-1,8.999405861E0,-8.434699476E-2,3.410370588E0
5.728464210E-1,9.014361382E0,-9.391828626E-2,3.439084291E0
5.752284000E-1,9.067003250E0,-1.166501045E-1,3.463012457E0
5.776103270E-1,9.114859581E0,-1.112662554E-1,3.496512175E0
5.799923060E-1,9.167501450E0,-1.250249892E-1,3.534797192E0
5.823742850E-1,9.234500885E0,-1.387837082E-1,3.544368505E0
5.847562640E-1,9.306285858E0,-1.519442350E-1,3.568296671E0
5.871381910E-1,9.363713264E0,-1.704886109E-1,3.573082447E0
5.895201710E-1,9.425926208E0,-1.890329868E-1,3.587439299E0
5.919021500E-1,9.478569031E0,-2.027917206E-1,3.601796389E0
5.942840770E-1,9.526425362E0,-2.261217386E-1,3.597010612E0
5.966660560E-1,9.555737495E0,-2.303091735E-1,3.597010612E0
5.990480350E-1,9.589237213E0,-2.303091735E-1,3.582653761E0
6.014300140E-1,9.613164902E0,-2.392822653E-1,3.573082447E0
6.038119410E-1,9.618548393E0,-2.632105052E-1,3.530011654E0
6.061939210E-1,9.623334885E0,-2.973082066E-1,3.501895905E0
6.085759000E-1,9.609575272E0,-3.212364316E-1,3.454039574E0
6.109578270E-1,9.595218658E0,-3.457628787E-1,3.401397467E0
6.133398060E-1,9.576076508E0,-3.649054468E-1,3.372683525E0
6.157217850E-1,9.547960281E0,-3.702892959E-1,3.334398270E0
6.181037120E-1,9.528220177E0,-3.804588020E-1,3.291327477E0
6.204856910E-1,9.494720459E0,-3.756731451E-1,3.276970625E0
6.228676710E-1,9.461220741E0,-3.667000830E-1,3.253042459E0
6.252496500E-1,9.422935486E0,-3.625126183E-1,3.224328518E0
6.276315770E-1,9.370293617E0,-3.631108403E-1,3.205185890E0
6.300135560E-1,9.336793900E0,-3.541377485E-1,3.195614576E0
6.323955350E-1,9.302696228E0,-3.308077157E-1,3.195614576E0
6.347774620E-1,9.255437851E0,-3.308077157E-1,3.209971666E0
6.371594410E-1,9.226125717E0,-2.979064286E-1,3.205185890E0
6.395414210E-1,9.202198029E0,-3.074777126E-1,3.233899832E0
6.419234000E-1,9.139984131E0,-2.985046208E-1,3.243471146E0
6.443053270E-1,9.121439934E0,-3.032902777E-1,3.257827997E0
6.466873060E-1,9.092725754E0,-2.943171859E-1,3.267399311E0
6.490692850E-1,9.083154678E0,-2.895315289E-1,3.296113253E0
6.514512120E-1,9.059226990E0,-3.134597540E-1,3.324826956E0
6.538331910E-1,9.054440498E0,-3.038884699E-1,3.353540897E0
6.562151710E-1,9.035298347E0,-3.134597540E-1,3.382853031E0
6.585971500E-1,9.031110764E0,-3.278166950E-1,3.406781197E0
6.609790770E-1,9.050253868E0,-3.320041299E-1,3.421138287E0
6.633610560E-1,9.059824944E0,-3.367897868E-1,3.421138287E0
6.657430350E-1,9.083752632E0,-3.463610709E-1,3.430709362E0
6.681249620E-1,9.112466812E0,-3.649054468E-1,3.445066452E0
6.705069410E-1,9.136395454E0,-3.696911037E-1,3.430709362E0
6.728889210E-1,9.169894218E0,-3.930211067E-1,3.411566973E0
6.752708480E-1,9.198608398E0,-4.121637046E-1,3.392424345E0
6.776528270E-1,9.232108116E0,-4.211367965E-1,3.378067255E0
6.800348060E-1,9.260822296E0,-4.163511395E-1,3.325425386E0
6.824167850E-1,9.284749985E0,-4.115654826E-1,3.330210924E0
6.847987120E-1,9.313464165E0,-4.061816335E-1,3.301496983E0
6.871806910E-1,9.332606316E0,-4.013960063E-1,3.277568817E0
6.895626710E-1,9.341579437E0,-3.870390654E-1,3.234498024E0
6.919445980E-1,9.365508080E0,-3.726821244E-1,3.205185890E0
6.943265770E-1,9.370293617E0,-3.535395563E-1,3.205185890E0
6.967085560E-1,9.379266739E0,-3.104687333E-1,3.166900873E0
6.990905350E-1,9.388239861E0,-2.775674164E-1,3.147758245E0
7.014724620E-1,9.397810936E0,-2.434697002E-1,3.137588739E0
7.038544410E-1,9.401998520E0,-2.344966233E-1,3.108874798E0
7.062364210E-1,9.406784058E0,-2.057827413E-1,3.108874798E0
7.086183480E-1,9.406784058E0,-1.914258152E-1,3.104089260E0
7.110003270E-1,9.396614075E0,-1.579262912E-1,3.084946632E0
7.133823060E-1,9.396016121E0,-1.100698411E-1,3.103491068E0
7.157642330E-1,9.396016121E0,-7.657032460E-2,3.089133978E0
7.181462120E-1,9.390632629E0,-3.888336942E-2,3.084348440E0
7.205281910E-1,9.394820213E0,1.375873014E-2,3.088535786E0
7.229101710E-1,9.370293617E0,4.725824669E-2,3.074178934E0
7.252920980E-1,9.355937004E0,7.597211748E-2,3.083750248E0
7.276740770E-1,9.355937004E0,9.032905847E-2,3.098107100E0
7.300560560E-1,9.346364975E0,9.930214286E-2,3.074178934E0
7.324380350E-1,9.346364975E0,8.973085135E-2,3.093321562E0
7.348199620E-1,9.327222824E0,9.451649338E-2,3.102892876E0
7.372019410E-1,9.332008362E0,9.930214286E-2,3.122035265E0
7.395839210E-1,9.326624870E0,1.136590764E-1,3.136392355E0
7.419658480E-1,9.307481766E0,1.184447184E-1,3.174677372E0
7.443478270E-1,9.341579437E0,1.094716340E-1,3.208176851E0
7.467298060E-1,9.331410408E0,1.286142170E-1,3.198605776E0
7.491117330E-1,9.350552559E0,1.477568001E-1,3.183650494E0
7.514937120E-1,9.374481201E0,1.238285750E-1,3.160320520E0
7.538756910E-1,9.384052277E0,1.381855011E-1,3.116651535E0
7.562576710E-1,9.388837814E0,1.190429255E-1,3.055036306E0
7.586395980E-1,9.388837814E0,1.046859920E-1,3.016751051E0
7.610215770E-1,9.384650230E0,8.494520187E-2,2.978466034E0
7.634035560E-1,9.365508080E0,7.537391037E-2,2.983251572E0
7.657854830E-1,9.336793900E0,7.956135273E-2,2.968894720E0
7.681674620E-1,9.336793900E0,5.563312769E-2,2.973680258E0
7.705494410E-1,9.322437286E0,6.041877344E-2,2.973680258E0
7.729314210E-1,9.298508644E0,5.563312769E-2,2.959323406E0
7.753133480E-1,9.275178909E0,4.546362907E-2,2.973680258E0
7.776953270E-1,9.251250267E0,4.067798331E-2,2.959323406E0
7.800773060E-1,9.241081238E0,6.939185411E-2,2.983251572E0
7.824592330E-1,9.222537041E0,5.922235921E-2,2.997608662E0
7.848412120E-1,9.202795982E0,6.879365444E-2,2.988037348E0
7.872231910E-1,9.193822861E0,5.443671346E-2,3.007179976E0
7.896051710E-1,9.174679756E0,2.572284266E-2,3.012563705E0
7.919870980E-1,9.151350021E0,-8.374879137E-3,3.002992392E0
7.943690770E-1,9.132207870E0,-2.751746029E-2,2.988635540E0
7.967510560E-1,9.084351540E0,-1.854437590E-2,2.988635540E0
7.991329830E-1,9.041280746E0,-4.785645287E-3,2.979064226E0
8.015149620E-1,9.046664238E0,-2.392822690E-2,2.969492912E0
8.038969410E-1,9.032307625E0,-4.307080805E-2,2.969492912E0
8.062788680E-1,9.046664238E0,-4.785645381E-2,2.964707375E0
8.086608480E-1,9.047262192E0,-7.597211748E-2,2.984447956E0
8.110428270E-1,9.047262192E0,-9.032905847E-2,2.979662418E0
8.134248060E-1,9.046664238E0,-7.178468257E-2,2.974876642E0
8.158067330E-1,9.084949493E0,-7.597211748E-2,2.988635540E0
8.181887120E-1,9.128020287E0,-7.058826834E-2,3.012563705E0
8.205706910E-1,9.185447693E0,-9.391828626E-2,3.031706333E0
8.229526710E-1,9.229117393E0,-1.124626622E-1,3.037090063E0
8.253345980E-1,9.272188187E0,-1.501496136E-1,3.041875839E0
8.277165770E-1,9.287142754E0,-1.734796464E-1,3.061018467E0
8.300985560E-1,9.344570160E0,-2.015953064E-1,3.041875839E0
8.324804830E-1,9.388239861E0,-2.542374134E-1,3.008376360E0
8.348624620E-1,9.407382011E0,-3.014956415E-1,3.013760090E0
8.372444410E-1,9.455837250E0,-3.637090325E-1,2.994617462E0
8.396264210E-1,9.480362892E0,-3.918247223E-1,2.961117983E0
8.420083480E-1,9.519247055E0,-4.444667995E-1,2.952144861E0
8.443903270E-1,9.533603668E0,-4.636093974E-1,2.928216696E0
8.467723060E-1,9.558130264E0,-4.773681164E-1,2.918645382E0
8.491542330E-1,9.577272415E0,-5.108676553E-1,2.909074068E0
8.515362120E-1,9.577272415E0,-5.060819983E-1,2.875574589E0
8.539181910E-1,9.587442398E0,-5.300102234E-1,2.851646423E0
8.563001180E-1,9.601799011E0,-5.491527915E-1,2.788834810E0
8.586820980E-1,9.597013474E0,-5.443671346E-1,2.755335331E0
8.610640770E-1,9.582057953E0,-5.258227587E-1,2.726621389E0
8.634460560E-1,9.544371605E0,-5.359922647E-1,2.721835852E0
8.658279830E-1,9.549157143E0,-5.216353536E-1,2.707478762E0
8.682099620E-1,9.519247055E0,-4.977070987E-1,2.717050076E0
8.705919410E-1,9.495318413E0,-4.743770957E-1,2.712264538E0
8.729738680E-1,9.476176262E0,-4.552344978E-1,2.721835852E0
8.753558480E-1,9.452247620E0,-4.600201547E-1,2.740978241E0
8.777378270E-1,9.433105469E0,-4.654040039E-1,2.764906645E0
8.801198060E-1,9.428318977E0,-4.558327198E-1,2.779263496E0
8.825017330E-1,9.418747902E0,-4.462614357E-1,2.784049034E0
8.848837120E-1,9.427721024E0,-4.271188378E-1,2.784049034E0
8.872656910E-1,9.432506561E0,-4.313062727E-1,2.788834810E0
8.896476180E-1,9.422935486E0,-4.031906128E-1,2.798406124E0
8.920295980E-1,9.413364410E0,-3.792623878E-1,2.802593470E0
8.944115770E-1,9.422337532E0,-3.696911037E-1,2.807977438E0
8.967935040E-1,9.417551994E0,-3.409772217E-1,2.812762976E0
8.991754830E-1,9.417551994E0,-3.266202807E-1,2.807977438E0
9.015574620E-1,9.412766457E0,-3.266202807E-1,2.817548752E0
9.039394410E-1,9.407382011E0,-3.170489967E-1,2.797807932E0
9.063213680E-1,9.378668785E0,-2.985046208E-1,2.788236618E0
9.087033480E-1,9.378069878E0,-2.554338276E-1,2.787638426E0
9.110853270E-1,9.363713264E0,-2.458625287E-1,2.797209740E0
9.134673060E-1,9.358927727E0,-2.075773627E-1,2.816950560E0
9.158492330E-1,9.353543282E0,-1.692921966E-1,2.816950560E0
9.182312120E-1,9.343972206E0,-1.411765367E-1,2.821736097E0
9.206131910E-1,9.343374252E0,-1.268195957E-1,2.836092949E0
9.229951180E-1,9.338588715E0,-9.810572863E-2,2.821137905E0
9.253770980E-1,9.352945328E0,-7.836493850E-2,2.845066071E0
9.277590770E-1,9.357132912E0,-6.460621208E-2,2.825923443E0
9.301410040E-1,9.346963882E0,-1.196411345E-2,2.849851847E0
9.325229830E-1,9.356534958E0,-6.580262445E-3,2.849851847E0
9.349049620E-1,9.366106033E0,-1.615155302E-2,2.864208698E0
9.372869410E-1,9.390034676E0,-1.615155302E-2,2.830709219E0
9.396688680E-1,9.399605751E0,-2.572284266E-2,2.816352367E0
9.420508480E-1,9.390034676E0,-2.572284266E-2,2.811566591E0
9.444328270E-1,9.409176826E0,-3.050848842E-2,2.801397085E0
9.468147540E-1,9.413962364E0,-3.050848842E-2,2.787040234E0
9.491967330E-1,9.424132347E0,-4.007977992E-2,2.787040234E0
9.515787120E-1,9.418747902E0,-3.529413417E-2,2.782254457E0
9.539606910E-1,9.428917885E0,-4.007977992E-2,2.767897606E0
9.563426180E-1,9.448060036E0,-5.383851007E-2,2.763111830E0
9.587245980E-1,9.471988678E0,-6.340979785E-2,2.753540754E0
9.611065770E-1,9.481559753E0,-7.776673883E-2,2.739183664E0
9.634885040E-1,9.500701904E0,-1.112662554E-1,2.720041037E0
9.658704830E-1,9.500701904E0,-1.064806059E-1,2.705684185E0
9.682524620E-1,9.510871887E0,-1.208375469E-1,2.696112871E0
9.706344410E-1,9.519845009E0,-1.154536903E-1,2.686541557E0
9.730163680E-1,9.530014038E0,-1.202393398E-1,2.696112871E0
9.753983480E-1,9.520442963E0,-1.298106313E-1,2.700898647E0
9.777803270E-1,9.534799576E0,-1.441675574E-1,2.710469961E0
9.801622540E-1,9.534799576E0,-1.728814393E-1,2.725425005E0
9.825442330E-1,9.559925079E0,-1.818545163E-1,2.749353170E0
9.849262120E-1,9.555138588E0,-2.009970993E-1,2.749353170E0
9.873081910E-1,9.545567513E0,-2.009970993E-1,2.763710260E0
9.896901180E-1,9.550951958E0,-2.536391914E-1,2.768495798E0
9.920720980E-1,9.550951958E0,-2.584248483E-1,2.797209740E0
9.944540770E-1,9.550951958E0,-2.775674164E-1,2.782852650E0
9.968360040E-1,9.570692062E0,-2.913261652E-1,2.807379246E0
9.992179830E-1,9.570692062E0,-3.008974493E-1,2.807977438E0
1.001599962E0,9.585049629E0,-3.104687333E-1,2.827120066E0
1.003981941E0,9.575477600E0,-3.200400174E-1,2.841476917E0
1.006363868E0,9.580264091E0,-3.248256743E-1,2.851048231E0
1.008745848E0,9.585049629E0,-3.296113312E-1,2.836691141E0
1.011127827E0,9.575477600E0,-3.391826153E-1,2.822334290E0
1.013509754E0,9.580862045E0,-3.535395563E-1,2.807977438E0
1.015891733E0,9.571290970E0,-3.487538993E-1,2.802593470E0
1.018273712E0,9.580264091E0,-3.439682424E-1,2.802593470E0
1.020655691E0,9.561120987E0,-3.248256743E-1,2.783450842E0
1.023037618E0,9.556335449E0,-3.110669553E-1,2.793022156E0
1.025419598E0,9.556335449E0,-3.110669553E-1,2.793022156E0
1.027801577E0,9.546764374E0,-3.062812984E-1,2.788236618E0
1.030183504E0,9.541379929E0,-3.014956415E-1,2.812762976E0
1.032565483E0,9.531808853E0,-3.014956415E-1,2.807977438E0
1.034947462E0,9.527023315E0,-3.206382394E-1,2.812762976E0
1.037329441E0,9.522237778E0,-3.014956415E-1,2.822334290E0
1.039711368E0,9.527023315E0,-3.014956415E-1,2.822334290E0
1.042093348E0,9.522237778E0,-3.254238665E-1,2.822334290E0
1.044475327E0,9.512666702E0,-3.158525825E-1,2.817548752E0
1.046857254E0,9.493523598E0,-3.302095234E-1,2.817548752E0
1.049239233E0,9.503094673E0,-3.349951804E-1,2.822334290E0
1.051621212E0,9.503693581E0,-3.397808075E-1,2.817548752E0
1.054003191E0,9.489336014E0,-3.397808075E-1,2.812762976E0
1.056385118E0,9.489336014E0,-3.451646566E-1,2.769093990E0
1.058767098E0,9.465408325E0,-3.355933726E-1,2.764308453E0
1.061149077E0,9.455238342E0,-3.260220885E-1,2.764308453E0
1.063531004E0,9.436694145E0,-3.314059377E-1,2.740380049E0
1.065912983E0,9.436096191E0,-3.266202807E-1,2.735594511E0
1.068294962E0,9.436096191E0,-3.122633696E-1,2.740380049E0
1.070676889E0,9.421739578E0,-2.979064286E-1,2.754737139E0
1.073058868E0,9.416953087E0,-3.074777126E-1,2.759522676E0
1.075440848E0,9.426525116E0,-3.026920557E-1,2.764308453E0
1.077822827E0,9.426525116E0,-2.931207716E-1,2.769093990E0
1.080204754E0,9.431310654E0,-2.835494876E-1,2.769093990E0
1.082586733E0,9.440881729E0,-2.739782035E-1,2.773281336E0
1.084968712E0,9.436096191E0,-2.739782035E-1,2.773281336E0
1.087350639E0,9.440283775E0,-2.452643216E-1,2.782852650E0
1.089732618E0,9.468997002E0,-2.398804724E-1,2.797209740E0
1.092114598E0,9.478569031E0,-2.398804724E-1,2.801995277E0
1.094496577E0,9.478569031E0,-2.255235314E-1,2.797209740E0
1.096878504E0,9.492925644E0,-2.303091735E-1,2.768495798E0
1.099260483E0,9.511469841E0,-2.057827413E-1,2.792423964E0
1.101642462E0,9.521040916E0,-1.962114573E-1,2.787638426E0
1.104024389E0,9.545567513E0,-2.153540403E-1,2.792423964E0
1.106406368E0,9.555138588E0,-2.009970993E-1,2.754138947E0
1.108788348E0,9.564710617E0,-2.105683982E-1,2.734996319E0
1.111170327E0,9.569496155E0,-2.105683982E-1,2.720639229E0
1.113552254E0,9.564710617E0,-1.914258152E-1,2.711068153E0
1.115934233E0,9.574281693E0,-2.201396823E-1,2.682354212E0
1.118316212E0,9.569496155E0,-2.105683982E-1,2.667997360E0
1.120698139E0,9.559925079E0,-2.303091735E-1,2.663211584E0
1.123080118E0,9.559925079E0,-2.303091735E-1,2.658426046E0
1.125462098E0,9.550353050E0,-2.111666054E-1,2.667997360E0
1.127844025E0,9.530612946E0,-2.159522474E-1,2.644068956E0
1.130226004E0,9.525827408E0,-2.159522474E-1,2.644068956E0
1.132607983E0,9.525827408E0,-2.255235314E-1,2.658426046E0
1.134989962E0,9.506684303E0,-2.261217386E-1,2.658426046E0
1.137371941E0,9.511469841E0,-2.303091735E-1,2.677568436E0
1.139753868E0,9.501898766E0,-2.207378894E-1,2.687139750E0
1.142135848E0,9.477970123E0,-2.069791555E-1,2.691925526E0
1.144517827E0,9.454640388E0,-2.404786795E-1,2.696711063E0
1.146899754E0,9.449854851E0,-2.213360965E-1,2.706282377E0
1.149281733E0,9.430113792E0,-2.123630047E-1,2.711068153E0
1.151663712E0,9.416355133E0,-2.171486616E-1,2.711068153E0
1.154045639E0,9.391828537E0,-2.075773627E-1,2.715853691E0
1.156427618E0,9.372686386E0,-1.938186288E-1,2.701496840E0
1.158809598E0,9.343972206E0,-1.842473447E-1,2.691925526E0
1.161191577E0,9.348757744E0,-1.890329868E-1,2.696711063E0
1.163573504E0,9.339186668E0,-1.603191197E-1,2.701496840E0
1.165955483E0,9.343972206E0,-1.561316848E-1,2.682354212E0
1.168337462E0,9.343972206E0,-1.507478207E-1,2.696711063E0
1.170719389E0,9.343374252E0,-1.316052526E-1,2.696711063E0
1.173101368E0,9.362516403E0,-1.363908947E-1,2.701496840E0
1.175483348E0,9.381659508E0,-1.268195957E-1,2.686541557E0
1.177865327E0,9.400801659E0,-1.310070455E-1,2.696112871E0
1.180247254E0,9.424730301E0,-1.357926875E-1,2.700898647E0
1.182629233E0,9.453444481E0,-1.160518974E-1,2.710469961E0
1.185011212E0,9.467203140E0,-1.064806059E-1,2.724826813E0
1.187393139E0,9.491130829E0,-9.690931439E-2,2.739183664E0
1.189775118E0,9.519845009E0,-1.058823988E-1,2.739183664E0
1.192157098E0,9.544371605E0,-1.052841991E-1,2.758326292E0
1.194539077E0,9.558728218E0,-9.571290761E-2,2.758326292E0
1.196921004E0,9.563513756E0,-9.571290761E-2,2.763111830E0
1.199302983E0,9.563513756E0,-9.571290761E-2,2.767897606E0
1.201684962E0,9.568299294E0,-8.614161611E-2,2.758326292E0
1.204066889E0,9.587442398E0,-1.052841991E-1,2.743969440E0
1.206448868E0,9.587442398E0,-9.571290761E-2,2.748754978E0
1.208830848E0,9.577870369E0,-1.004985496E-1,2.729612350E0
1.211212827E0,9.568299294E0,-9.571290761E-2,2.729612350E0
1.213594754E0,9.553942680E0,-9.092725813E-2,2.734398127E0
1.215976733E0,9.558728218E0,-9.092725813E-2,2.720041037E0
1.218358712E0,9.549157143E0,-8.673982322E-2,2.686541557E0
1.220740639E0,9.549157143E0,-7.716853172E-2,2.681756020E0
1.223122618E0,9.538389206E0,-6.281159073E-2,2.662613392E0
1.225504598E0,9.524032593E0,-5.862415582E-2,2.672184706E0
1.227886577E0,9.519247055E0,-4.905286431E-2,2.633899450E0
1.230268504E0,9.524032593E0,-5.383851007E-2,2.633899450E0
1.232650483E0,9.504889488E0,-6.340979785E-2,2.629113913E0
1.235032462E0,9.495916367E0,-6.819544733E-2,2.619542599E0
1.237414389E0,9.476774216E0,-7.357929647E-2,2.624328136E0
1.239796368E0,9.467203140E0,-7.357929647E-2,2.605185747E0
1.242178348E0,9.448060036E0,-8.315058798E-2,2.609971285E0
1.244560327E0,9.438488960E0,-8.793623000E-2,2.605185747E0
1.246942254E0,9.433703423E0,-9.272187948E-2,2.609971285E0
1.249324233E0,9.409774780E0,-9.810572863E-2,2.605185747E0
1.251706212E0,9.405587196E0,-1.172483116E-1,2.619542599E0
1.254088191E0,9.396016121E0,-1.124626622E-1,2.629113913E0
1.256470118E0,9.386445045E0,-1.363908947E-1,2.629113913E0
1.258852098E0,9.391230583E0,-1.268195957E-1,2.609971285E0
1.261234077E0,9.386445045E0,-1.268195957E-1,2.614757061E0
1.263616004E0,9.386445045E0,-1.363908947E-1,2.605185747E0
1.265997983E0,9.367302895E0,-1.363908947E-1,2.609971285E0
1.268379962E0,9.352945328E0,-1.274178028E-1,2.605185747E0
1.270761889E0,9.348159790E0,-1.274178028E-1,2.609971285E0
1.273143868E0,9.343374252E0,-1.322034448E-1,2.590828657E0
1.275525848E0,9.352945328E0,-1.322034448E-1,2.595614433E0
1.277907827E0,9.348159790E0,-1.417747438E-1,2.600998163E0
1.280289754E0,9.348159790E0,-1.561316848E-1,2.591426849E0
1.282671733E0,9.333803177E0,-1.465603858E-1,2.600998163E0
1.285053712E0,9.352945328E0,-1.417747438E-1,2.610569477E0
1.287435639E0,9.352945328E0,-1.513460279E-1,2.615355253E0
1.289817618E0,9.372088432E0,-1.459621787E-1,2.639283419E0
1.292199598E0,9.377471924E0,-1.746760458E-1,2.648854733E0
1.294581577E0,9.376873970E0,-1.507478207E-1,2.653640270E0
1.296963504E0,9.381659508E0,-1.459621787E-1,2.672782898E0
1.299345483E0,9.396016121E0,-1.405783296E-1,2.691327333E0
1.301727462E0,9.424730301E0,-1.357926875E-1,2.686541557E0
1.304109389E0,9.439086914E0,-1.262213886E-1,2.700898647E0
1.306491368E0,9.448657990E0,-1.160518974E-1,2.700898647E0
1.308873348E0,9.463015556E0,-1.208375469E-1,2.700898647E0
1.311255327E0,9.471988678E0,-1.112662554E-1,2.705684185E0
1.313637254E0,9.505488396E0,-1.058823988E-1,2.710469961E0
1.316019233E0,9.519845009E0,-1.010967568E-1,2.724826813E0
1.318401212E0,9.529416084E0,-9.631111473E-2,2.715255499E0
1.320783139E0,9.534201622E0,-9.631111473E-2,2.729612350E0
1.323165118E0,9.568299294E0,-1.052841991E-1,2.734398127E0
1.325547098E0,9.592227936E0,-1.196411327E-1,2.720041037E0
1.327929077E0,9.616155624E0,-1.381855011E-1,2.729612350E0
1.330311004E0,9.640084267E0,-1.238285750E-1,2.729612350E0
1.332692983E0,9.664012909E0,-1.040877849E-1,2.753540754E0
1.335074962E0,9.677771568E0,-7.537391037E-2,2.767897606E0
1.337456889E0,9.701699257E0,-4.666004330E-2,2.752942562E0
1.339838868E0,9.715457916E0,-3.649054468E-2,2.752942562E0
1.342220848E0,9.715457916E0,-2.751746029E-2,2.681157827E0
1.344602827E0,9.696315765E0,5.383851007E-3,2.628515720E0
1.346984754E0,9.658030510E0,-1.435693540E-2,2.542374134E0
1.349366733E0,9.624530792E0,-5.383851007E-3,2.484946251E0
1.351748712E0,9.591031075E0,-1.196411322E-3,2.451446772E0
1.354130639E0,9.537791252E0,1.734796353E-2,2.441875458E0
1.356512618E0,9.485149384E0,2.392822644E-3,2.480160713E0
1.358894598E0,9.423533440E0,-1.256231871E-2,2.494517565E0
1.361276577E0,9.409176826E0,-3.170489892E-2,2.528615236E0
1.363658504E0,9.375677109E0,-3.649054468E-2,2.547757864E0
1.366040483E0,9.342776299E0,-5.084748194E-2,2.595614433E0
1.368422462E0,9.318847656E0,-5.623133108E-2,2.609971285E0
1.370804389E0,9.290133476E0,-6.580262631E-2,2.653042078E0
1.373186368E0,9.262018204E0,-9.451649338E-2,2.686541557E0
1.375568348E0,9.247661591E0,-8.015955985E-2,2.739183664E0
1.377950327E0,9.238089561E0,-9.930214286E-2,2.753540754E0
1.380332254E0,9.214161873E0,-9.451649338E-2,2.787040234E0
1.382714233E0,9.209376335E0,-1.088734269E-1,2.812164783E0
1.385096212E0,9.195617676E0,-1.280160099E-1,2.826521635E0
1.387478139E0,9.181260109E0,-1.184447184E-1,2.836092949E0
1.389860118E0,9.190832138E0,-1.232303679E-1,2.821736097E0
1.392242098E0,9.181260109E0,-1.136590764E-1,2.812164783E0
1.394624025E0,9.186046600E0,-1.375873089E-1,2.782852650E0
1.397006004E0,9.190832138E0,-1.423729509E-1,2.773281336E0
1.399387983E0,9.219545364E0,-1.519442350E-1,2.730210543E0
1.401769962E0,9.253045082E0,-1.710868180E-1,2.730210543E0
1.404151889E0,9.281759262E0,-1.657029688E-1,2.720639229E0
1.406533868E0,9.314660072E0,-1.363908947E-1,2.734996319E0
1.408915848E0,9.333204269E0,-6.939185411E-2,2.739183664E0
1.411297775E0,9.366106033E0,-2.392822644E-3,2.752942562E0
1.413679754E0,9.394221306E0,3.649054468E-2,2.791227579E0
1.416061733E0,9.417551994E0,7.956135273E-2,2.810968399E0
1.418443712E0,9.427123070E0,1.040877849E-1,2.834896564E0
1.420825639E0,9.460622787E0,1.142572835E-1,2.867797852E0
1.423207618E0,9.479764938E0,9.990034252E-2,2.877967358E0
1.425589598E0,9.479764938E0,8.075776696E-2,2.916252613E0
1.427971577E0,9.489336014E0,7.178468257E-2,2.925823927E0
1.430353504E0,9.489934921E0,4.785645381E-2,2.944966555E0
1.432735483E0,9.485149384E0,3.828516230E-2,2.949752092E0
1.435117462E0,9.485747337E0,9.571290575E-3,2.954537868E0
1.437499389E0,9.490532875E0,-1.435693540E-2,2.949752092E0
1.439881368E0,9.476176262E0,-2.392822690E-2,2.935395241E0
1.442263348E0,9.490532875E0,-3.828516230E-2,2.935993433E0
1.444645327E0,9.481559753E0,-5.742774159E-2,2.897708178E0
1.447027254E0,9.486345291E0,-5.742774159E-2,2.897708178E0
1.449409233E0,9.481559753E0,-5.264209956E-2,2.902493954E0
1.451791212E0,9.471988678E0,-7.178468257E-2,2.902493954E0
1.454173139E0,9.471988678E0,-6.221338734E-2,2.883351326E0
1.456555118E0,9.481559753E0,-6.221338734E-2,2.868994236E0
1.458937098E0,9.481559753E0,-8.135596663E-2,2.883351326E0
1.461319077E0,9.491130829E0,-8.135596663E-2,2.883351326E0
1.463701004E0,9.495916367E0,-1.052841991E-1,2.883351326E0
1.466082983E0,9.505488396E0,-1.100698411E-1,2.888136864E0
1.468464962E0,9.505488396E0,-1.052841991E-1,2.892922640E0
1.470846941E0,9.515059471E0,-9.571290761E-2,2.888136864E0
1.473228868E0,9.515059471E0,-1.148554832E-1,2.883351326E0
1.475610848E0,9.510871887E0,-1.244267747E-1,2.888136864E0
1.477992827E0,9.515657425E0,-1.142572835E-1,2.897708178E0
1.480374754E0,9.491728783E0,-1.387837082E-1,2.897708178E0
1.482756733E0,9.482157707E0,-1.292124242E-1,2.907279491E0
1.485138712E0,9.457631111E0,-9.631111473E-2,2.897708178E0
1.487520691E0,9.429515839E0,-1.154536903E-1,2.892922640E0
1.489902618E0,9.415159225E0,-1.202393398E-1,2.883351326E0
1.492284598E0,9.410373688E0,-1.154536903E-1,2.878565550E0
1.494666577E0,9.400801659E0,-1.016949639E-1,2.864208698E0
1.497048504E0,9.396016121E0,-1.112662554E-1,2.868994236E0
1.499430483E0,9.381659508E0,-1.112662554E-1,2.845066071E0
1.501812462E0,9.372088432E0,-9.690931439E-2,2.873780012E0
1.504194441E0,9.376275063E0,-7.298108935E-2,2.854637384E0
1.506576368E0,9.366703987E0,-6.400800496E-2,2.859423161E0
1.508958348E0,9.371489525E0,-5.443671346E-2,2.840280533E0
1.511340327E0,9.361918449E0,-4.486542568E-2,2.825923443E0
1.513722254E0,9.381061554E0,-4.965107143E-2,2.821137905E0
1.516104233E0,9.404391289E0,-3.469592705E-2,2.821137905E0
1.518486212E0,9.404391289E0,-1.555334684E-2,2.796013355E0
1.520868139E0,9.428318977E0,-1.196411322E-3,2.805584431E0
1.523250118E0,9.428318977E0,3.589233849E-3,2.815753937E0
1.525632098E0,9.418149948E0,2.751746029E-2,2.825325251E0
1.528014077E0,9.442078590E0,1.316052489E-2,2.820539713E0
1.530396004E0,9.446864128E0,2.333002165E-2,2.834896564E0
1.532777983E0,9.466006279E0,2.333002165E-2,2.830111027E0
1.535159962E0,9.489934921E0,9.571290575E-3,2.863610506E0
1.537541941E0,9.485747337E0,-0.000000000E0,2.892324448E0
1.539923868E0,9.509675026E0,0.000000000E0,2.911466837E0
1.542305848E0,9.528818130E0,-1.375873014E-2,2.916252613E0
1.544687827E0,9.519247055E0,-1.375873014E-2,2.954537868E0
1.547069754E0,9.524032593E0,-1.375873014E-2,2.959323406E0
1.549451733E0,9.504889488E0,5.982056609E-4,2.997608662E0
1.551833712E0,9.495318413E0,-1.375873014E-2,2.992822886E0
1.554215691E0,9.476176262E0,-9.571290575E-3,2.988037348E0
1.556597618E0,9.471389771E0,-2.392822690E-2,2.988635540E0
1.558979598E0,9.447462082E0,-2.392822690E-2,2.998206854E0
1.561361577E0,9.433703423E0,-3.828516230E-2,2.998206854E0
1.563743504E0,9.419346809E0,-5.324030295E-2,2.983849764E0
1.566125483E0,9.400203705E0,-5.324030295E-2,2.964707375E0
1.568507462E0,9.376275063E0,-7.238288224E-2,2.974278450E0
1.570889389E0,9.348159790E0,-8.733802289E-2,2.940778971E0
1.573271368E0,9.329017639E0,-9.750752151E-2,2.935993433E0
1.575653348E0,9.319445610E0,-8.793623000E-2,2.931207657E0
1.578035327E0,9.300303459E0,-8.793623000E-2,2.935993433E0
1.580417254E0,9.290732384E0,-9.750752151E-2,2.926422119E0
1.582799233E0,9.276374817E0,-1.124626622E-1,2.931207657E0
1.585181212E0,9.281759262E0,-1.262213886E-1,2.931805849E0
1.587563191E0,9.262616158E0,-1.316052526E-1,2.927020311E0
1.589945118E0,9.253045082E0,-1.459621787E-1,2.922234535E0
1.592327098E0,9.253045082E0,-1.268195957E-1,2.941377163E0
1.594709077E0,9.267401695E0,-1.357926875E-1,2.950948477E0
1.597091004E0,9.267401695E0,-1.501496136E-1,2.960519791E0
1.599472983E0,9.272188187E0,-1.405783296E-1,2.974876642E0
1.601854962E0,9.267401695E0,-1.501496136E-1,3.003590584E0
1.604236941E0,9.276973724E0,-1.357926875E-1,2.998805046E0
1.606618868E0,9.281759262E0,-1.357926875E-1,3.017947674E0
1.609000848E0,9.286544800E0,-1.399801224E-1,3.041875839E0
1.611382827E0,9.291330338E0,-1.399801224E-1,3.080160856E0
1.613764754E0,9.296115875E0,-1.495514214E-1,3.084946632E0
1.616146733E0,9.276973724E0,-1.208375469E-1,3.084946632E0
1.618528712E0,9.291330338E0,-1.160518974E-1,3.094517946E0
1.620910691E0,9.290732384E0,-1.112662554E-1,3.093919754E0
1.623292618E0,9.290732384E0,-1.064806059E-1,3.084348440E0
1.625674598E0,9.281759262E0,-1.256231815E-1,3.065804005E0
1.628056577E0,9.285946846E0,-1.112662554E-1,3.074777126E0
1.630438504E0,9.286544800E0,-1.208375469E-1,3.080160856E0
1.632820483E0,9.276374817E0,-1.112662554E-1,3.074777126E0
1.635202462E0,9.290732384E0,-9.690931439E-2,3.069991350E0
1.637584441E0,9.286544800E0,-1.118644550E-1,3.061018467E0
1.639966368E0,9.300303459E0,-1.112662554E-1,3.055634499E0
1.642348348E0,9.290732384E0,-1.070788130E-1,3.055634499E0
1.644730327E0,9.300901413E0,-1.256231815E-1,3.041875839E0
1.647112306E0,9.300303459E0,-1.022931710E-1,3.022135019E0
1.649494233E0,9.324232101E0,-1.160518974E-1,3.026920557E0
1.651876212E0,9.324830055E0,-1.304088384E-1,3.032304525E0
1.654258191E0,9.329615593E0,-1.256231815E-1,3.032304525E0
1.656640118E0,9.329615593E0,-1.447657645E-1,3.051447153E0
1.659022098E0,9.353543282E0,-1.250249892E-1,3.075375319E0
1.661404077E0,9.363115311E0,-1.298106313E-1,3.075375319E0
1.663786056E0,9.367900848E0,-1.298106313E-1,3.070589542E0
1.666167983E0,9.401400566E0,-1.339980662E-1,3.080160856E0
1.668549962E0,9.386445045E0,-1.244267747E-1,3.098705292E0
1.670931941E0,9.391828537E0,-1.339980662E-1,3.104089260E0
1.673313868E0,9.391828537E0,-1.292124242E-1,3.113660574E0
1.675695848E0,9.387042999E0,-1.387837082E-1,3.118446112E0
1.678077827E0,9.382257462E0,-1.345962733E-1,3.099303484E0
1.680459806E0,9.377471924E0,-1.531406492E-1,3.108874798E0
1.682841733E0,9.353543282E0,-1.345962733E-1,3.104089260E0
1.685223712E0,9.353543282E0,-1.393819153E-1,3.108874798E0
1.687605691E0,9.339186668E0,-1.250249892E-1,3.094517946E0
1.689987618E0,9.315258980E0,-1.304088384E-1,3.080160856E0
1.692369598E0,9.300901413E0,-1.399801224E-1,3.061018467E0
1.694751577E0,9.291330338E0,-1.591227055E-1,3.051447153E0
1.697133556E0,9.276973724E0,-1.357926875E-1,3.051447153E0
1.699515483E0,9.281759262E0,-1.453639716E-1,3.022733212E0
1.701897462E0,9.262616158E0,-1.645065546E-1,3.022733212E0
1.704279441E0,9.257830620E0,-1.597209126E-1,3.022733212E0
1.706661368E0,9.257830620E0,-1.645065546E-1,3.013161898E0
1.709043348E0,9.248857498E0,-1.794617027E-1,3.003590584E0
1.711425327E0,9.244071960E0,-1.746760458E-1,3.013161898E0
1.713807306E0,9.224929810E0,-1.746760458E-1,3.008376360E0
1.716189233E0,9.239286423E0,-1.842473447E-1,3.003590584E0
1.718571212E0,9.239286423E0,-1.651047617E-1,3.008376360E0
1.720953191E0,9.248857498E0,-1.794617027E-1,3.008376360E0
1.723335171E0,9.253643036E0,-1.740778536E-1,3.022733212E0
1.725717098E0,9.253643036E0,-1.788634956E-1,3.022733212E0
1.728099077E0,9.253643036E0,-1.740778536E-1,3.037090063E0
1.730481056E0,9.263215065E0,-1.836491376E-1,3.065804005E0
1.732862983E0,9.268000603E0,-1.884347796E-1,3.056232691E0
1.735244962E0,9.282357216E0,-1.974078715E-1,3.070589542E0
1.737626941E0,9.282357216E0,-1.782652885E-1,3.080160856E0
1.740008921E0,9.306285858E0,-1.878365725E-1,3.104089260E0
1.742390848E0,9.311071396E0,-1.920240223E-1,3.123231649E0
1.744772827E0,9.306285858E0,-2.021935135E-1,3.108874798E0
1.747154806E0,9.330213547E0,-1.728814393E-1,3.123231649E0
1.749536733E0,9.344570160E0,-1.872383654E-1,3.123231649E0
1.751918712E0,9.349356651E0,-1.920240223E-1,3.147160053E0
1.754300691E0,9.354142189E0,-1.872383654E-1,3.151945591E0
1.756682671E0,9.358927727E0,-1.920240223E-1,3.128017426E0
1.759064598E0,9.368498802E0,-1.914258152E-1,3.123231649E0
1.761446577E0,9.354142189E0,-1.968096644E-1,3.099303484E0
1.763828556E0,9.363713264E0,-2.015953064E-1,3.104089260E0
1.766210483E0,9.363713264E0,-1.872383654E-1,3.094517946E0
1.768592462E0,9.363713264E0,-1.968096644E-1,3.084946632E0
1.770974441E0,9.368498802E0,-2.015953064E-1,3.075375319E0
1.773356421E0,9.378069878E0,-2.111666054E-1,3.051447153E0
1.775738348E0,9.397212982E0,-2.153540403E-1,3.056232691E0
1.778120327E0,9.401998520E0,-1.962114573E-1,3.051447153E0
1.780502306E0,9.416355133E0,-2.153540403E-1,3.032304525E0
1.782884233E0,9.425926208E0,-1.962114573E-1,3.037090063E0
1.785266212E0,9.440283775E0,-2.105683982E-1,3.037090063E0
1.787648191E0,9.440283775E0,-2.009970993E-1,3.065804005E0
1.790030171E0,9.440283775E0,-2.009970993E-1,3.051447153E0
1.792412098E0,9.439684868E0,-1.866401732E-1,3.075375319E0
1.794794077E0,9.449256897E0,-1.860419661E-1,3.084946632E0
1.797176056E0,9.449854851E0,-2.003988922E-1,3.089732170E0
1.799558035E0,9.430712700E0,-1.956132501E-1,3.108874798E0
1.801939962E0,9.449854851E0,-2.051845491E-1,3.104089260E0
1.804321941E0,9.430113792E0,-1.812563092E-1,3.108874798E0
1.806703921E0,9.421140671E0,-2.051845491E-1,3.118446112E0
1.809085848E0,9.416355133E0,-1.866401732E-1,3.128017426E0
1.811467827E0,9.411569595E0,-1.962114573E-1,3.113660574E0
1.813849806E0,9.406784058E0,-1.866401732E-1,3.113660574E0
1.816231785E0,9.382855415E0,-1.818545163E-1,3.104089260E0
1.818613712E0,9.372686386E0,-1.776670814E-1,3.094517946E0
1.820995691E0,9.353543282E0,-1.680957973E-1,3.084946632E0
1.823377671E0,9.329615593E0,-1.543370634E-1,3.061018467E0
1.825759598E0,9.324830055E0,-1.495514214E-1,3.051447153E0
1.828141577E0,9.305686951E0,-1.399801224E-1,3.041875839E0
1.830523556E0,9.305686951E0,-1.351944804E-1,3.041875839E0
1.832905535E0,9.300901413E0,-1.405783296E-1,3.027518749E0
1.835287462E0,9.296115875E0,-1.501496136E-1,3.017947674E0
1.837669441E0,9.300901413E0,-1.357926875E-1,3.017947674E0
1.840051421E0,9.310472488E0,-1.405783296E-1,3.008376360E0
1.842433348E0,9.339186668E0,-1.256231815E-1,3.017947674E0
1.844815327E0,9.343972206E0,-1.591227055E-1,2.998805046E0
1.847197306E0,9.353543282E0,-1.591227055E-1,3.013161898E0
1.849579285E0,9.363115311E0,-1.639083475E-1,3.008376360E0
1.851961212E0,9.377471924E0,-1.728814393E-1,3.051447153E0
1.854343191E0,9.358927727E0,-1.872383654E-1,3.041875839E0
1.856725171E0,9.392427444E0,-1.920240223E-1,3.051447153E0
1.859107150E0,9.382855415E0,-2.015953064E-1,3.070589542E0
1.861489077E0,9.382855415E0,-2.057827413E-1,3.104089260E0
1.863871056E0,9.368498802E0,-1.968096644E-1,3.108874798E0
1.866253035E0,9.358927727E0,-1.872383654E-1,3.128017426E0
1.868634962E0,9.373284340E0,-1.818545163E-1,3.161516905E0
1.871016941E0,9.368498802E0,-1.818545163E-1,3.166302681E0
1.873398921E0,9.358329773E0,-1.627119333E-1,3.171088219E0
1.875780900E0,9.353543282E0,-1.627119333E-1,3.195016384E0
1.878162827E0,9.343972206E0,-1.483550072E-1,3.204587698E0
1.880544806E0,9.343972206E0,-1.531406492E-1,3.195016384E0
1.882926785E0,9.329615593E0,-1.633101404E-1,3.204587698E0
1.885308764E0,9.334401131E0,-1.537388563E-1,3.204587698E0
1.887690691E0,9.324830055E0,-1.489532143E-1,3.195016384E0
1.890072671E0,9.334401131E0,-1.585244983E-1,3.180659533E0
1.892454650E0,9.315258980E0,-1.441675574E-1,3.171088219E0
1.894836577E0,9.334401131E0,-1.393819153E-1,3.151945591E0
1.897218556E0,9.324830055E0,-1.489532143E-1,3.132802963E0
1.899600535E0,9.329615593E0,-1.585244983E-1,3.137588739E0
1.901982514E0,9.325428009E0,-1.782652885E-1,3.094517946E0
1.904364441E0,9.296713829E0,-1.686939895E-1,3.089732170E0
1.906746421E0,9.296713829E0,-1.878365725E-1,3.080160856E0
1.909128400E0,9.272786140E0,-1.645065546E-1,3.070589542E0
1.911510327E0,9.258428574E0,-1.645065546E-1,3.094517946E0
1.913892306E0,9.262616158E0,-1.549352705E-1,3.118446112E0
1.916274285E0,9.253045082E0,-1.310070455E-1,3.128017426E0
1.918656212E0,9.267401695E0,-1.256231815E-1,3.147160053E0
1.921038191E0,9.272188187E0,-1.208375469E-1,3.151945591E0
1.923420171E0,9.272188187E0,-1.208375469E-1,3.147160053E0
1.925802150E0,9.281160355E0,-1.016949639E-1,3.117847919E0
1.928184077E0,9.271589279E0,-9.750752151E-2,3.050848961E0
1.930566056E0,9.276374817E0,-1.022931710E-1,3.026920557E0
1.932948035E0,9.276374817E0,-1.118644550E-1,3.003590584E0
1.935330014E0,9.262616158E0,-1.118644550E-1,3.017947674E0
1.937711941E0,9.266803741E0,-9.750752151E-2,3.046063185E0
1.940093921E0,9.281759262E0,-1.214357466E-1,3.056232691E0
1.942475900E0,9.281759262E0,-1.118644550E-1,3.084946632E0
1.944857827E0,9.281759262E0,-1.304088384E-1,3.104089260E0
1.947239806E0,9.281759262E0,-1.208375469E-1,3.104089260E0
1.949621785E0,9.281759262E0,-1.399801224E-1,3.104089260E0
1.952003764E0,9.276973724E0,-1.453639716E-1,3.084946632E0
1.954385691E0,9.291330338E0,-1.447657645E-1,3.075375319E0
1.956767671E0,9.276973724E0,-1.453639716E-1,3.070589542E0
1.959149650E0,9.272786140E0,-1.692921966E-1,3.075375319E0
1.961531577E0,9.301499367E0,-1.686939895E-1,3.080160856E0
1.963913556E0,9.296713829E0,-1.686939895E-1,3.099303484E0
1.966295535E0,9.287142754E0,-1.686939895E-1,3.113660574E0
1.968677514E0,9.296713829E0,-1.734796464E-1,3.123231649E0
1.971059441E0,9.296713829E0,-1.830509305E-1,3.118446112E0
1.973441421E0,9.287142754E0,-1.782652885E-1,3.128017426E0
1.975823400E0,9.305686951E0,-1.591227055E-1,3.128017426E0
1.978205379E0,9.291928291E0,-1.686939895E-1,3.132802963E0
1.980587306E0,9.301499367E0,-1.782652885E-1,3.151945591E0
1.982969285E0,9.296713829E0,-1.872383654E-1,3.166302681E0
1.985351264E0,9.287142754E0,-1.728814393E-1,3.190230846E0
1.987733191E0,9.282357216E0,-1.872383654E-1,3.209373474E0
1.990115171E0,9.291928291E0,-1.872383654E-1,3.228515863E0
1.992497150E0,9.291928291E0,-1.728814393E-1,3.209373474E0
1.994879129E0,9.287142754E0,-1.680957973E-1,3.228515863E0
1.997261056E0,9.296713829E0,-1.585244983E-1,3.209373474E0
1.999643035E0,9.301499367E0,-1.728814393E-1,3.218944550E0
2.002025014E0,9.305686951E0,-1.441675574E-1,3.218944550E0
2.004406993E0,9.315258980E0,-1.345962733E-1,3.233301640E0
2.006788921E0,9.300901413E0,-1.489532143E-1,3.218944550E0
2.009170900E0,9.315258980E0,-1.393819153E-1,3.204587698E0
2.011552879E0,9.305686951E0,-1.298106313E-1,3.199802160E0
2.013934858E0,9.324830055E0,-1.489532143E-1,3.190230846E0
2.016316785E0,9.324830055E0,-1.585244983E-1,3.171088219E0
2.018698764E0,9.315258980E0,-1.489532143E-1,3.161516905E0
2.021080743E0,9.334401131E0,-1.393819153E-1,3.147160053E0
2.023462671E0,9.324830055E0,-1.585244983E-1,3.161516905E0
2.025844650E0,9.353543282E0,-1.585244983E-1,3.147160053E0
2.028226629E0,9.363115311E0,-1.680957973E-1,3.137588739E0
2.030608556E0,9.367900848E0,-1.728814393E-1,3.128017426E0
2.032990535E0,9.367900848E0,-1.728814393E-1,3.128017426E0
2.035372514E0,9.372686386E0,-1.722832322E-1,3.137588739E0
2.037754493E0,9.378069878E0,-1.866401732E-1,3.132802963E0
2.040136421E0,9.382855415E0,-1.818545163E-1,3.113660574E0
2.042518400E0,9.378069878E0,-1.962114573E-1,3.128017426E0
2.044900379E0,9.378069878E0,-1.914258152E-1,3.113660574E0
2.047282306E0,9.382855415E0,-2.009970993E-1,3.123231649E0
2.049664285E0,9.373284340E0,-1.866401732E-1,3.128017426E0
2.052046264E0,9.387641907E0,-1.914258152E-1,3.151945591E0
2.054428243E0,9.382855415E0,-1.962114573E-1,3.147160053E0
2.056810171E0,9.358927727E0,-1.920240223E-1,3.147160053E0
2.059192150E0,9.353543282E0,-1.633101404E-1,3.151945591E0
2.061574129E0,9.334401131E0,-1.537388563E-1,3.151945591E0
2.063956056E0,9.320044518E0,-1.537388563E-1,3.156731367E0
2.066338035E0,9.300901413E0,-1.591227055E-1,3.156731367E0
2.068720014E0,9.282357216E0,-1.639083475E-1,3.166302681E0
2.071101993E0,9.268000603E0,-1.686939895E-1,3.161516905E0
2.073483921E0,9.253045082E0,-1.453639716E-1,3.151945591E0
2.075865900E0,9.224330902E0,-1.357926875E-1,3.156731367E0
2.078247879E0,9.233902931E0,-1.405783296E-1,3.161516905E0
2.080629858E0,9.233902931E0,-1.310070455E-1,3.142374277E0
2.083011785E0,9.224330902E0,-1.118644550E-1,3.156731367E0
2.085393764E0,9.214759827E0,-1.214357466E-1,3.142374277E0
2.087775743E0,9.219545364E0,-1.166501045E-1,3.137588739E0
2.090157723E0,9.229117393E0,-1.118644550E-1,3.142374277E0
2.092539650E0,9.233902931E0,-9.750752151E-2,3.128017426E0
2.094921629E0,9.228518486E0,-8.315058798E-2,3.132204771E0
2.097303608E0,9.257232666E0,-9.750752151E-2,3.127419233E0
2.099685535E0,9.262018204E0,-9.750752151E-2,3.132204771E0
2.102067514E0,9.281759262E0,-1.064806059E-1,3.128017426E0
2.104449493E0,9.300303459E0,-1.016949639E-1,3.136990547E0
2.106831421E0,9.305686951E0,-1.160518974E-1,3.147160053E0
2.109213400E0,9.324232101E0,-1.058823988E-1,3.146561861E0
2.111595379E0,9.343374252E0,-9.631111473E-2,3.146561861E0
2.113977358E0,9.338588715E0,-1.010967568E-1,3.165704250E0
2.116359337E0,9.333803177E0,-1.010967568E-1,3.175275564E0
2.118741264E0,9.338588715E0,-9.631111473E-2,3.180061340E0
2.121123243E0,9.357730865E0,-9.092725813E-2,3.189632654E0
2.123505223E0,9.352945328E0,-9.152546525E-2,3.194418192E0
2.125887150E0,9.343374252E0,-9.152546525E-2,3.218346357E0
2.128269129E0,9.333803177E0,-9.152546525E-2,3.227917671E0
2.130651108E0,9.329017639E0,-7.238288224E-2,3.232703447E0
2.133033035E0,9.305088997E0,-8.673982322E-2,3.232703447E0
2.135415014E0,9.300303459E0,-9.631111473E-2,3.251846075E0
2.137796993E0,9.276374817E0,-8.733802289E-2,3.227917671E0
2.140178973E0,9.281160355E0,-9.212367237E-2,3.223132133E0
2.142560900E0,9.262616158E0,-1.064806059E-1,3.228515863E0
2.144942879E0,9.247661591E0,-8.733802289E-2,3.237488985E0
2.147324858E0,9.248259544E0,-1.016949639E-1,3.238087177E0
2.149706837E0,9.233902931E0,-1.118644550E-1,3.214159012E0
2.152088764E0,9.209974289E0,-1.070788130E-1,3.214159012E0
2.154470743E0,9.224330902E0,-1.118644550E-1,3.195016384E0
2.156852723E0,9.219545364E0,-1.166501045E-1,3.204587698E0
2.159234650E0,9.200403214E0,-1.262213886E-1,3.199802160E0
2.161616629E0,9.209974289E0,-1.310070455E-1,3.171088219E0
2.163998608E0,9.214759827E0,-1.357926875E-1,3.180659533E0
2.166380587E0,9.219545364E0,-1.405783296E-1,3.175873756E0
2.168762514E0,9.219545364E0,-1.310070455E-1,3.180659533E0
2.171144493E0,9.224330902E0,-1.357926875E-1,3.185445070E0
2.173526473E0,9.219545364E0,-1.262213886E-1,3.185445070E0
2.175908400E0,9.229117393E0,-1.118644550E-1,3.199802160E0
2.178290379E0,9.233902931E0,-9.750752151E-2,3.195016384E0
2.180672358E0,9.233902931E0,-1.070788130E-1,3.195016384E0
2.183054337E0,9.238688469E0,-1.160518974E-1,3.209373474E0
2.185436264E0,9.253045082E0,-9.690931439E-2,3.228515863E0
2.187818243E0,9.248259544E0,-1.112662554E-1,3.233301640E0
2.190200223E0,9.243474007E0,-1.256231815E-1,3.238087177E0
2.192582202E0,9.238688469E0,-1.016949639E-1,3.242872953E0
2.194964129E0,9.242876053E0,-8.255238086E-2,3.237488985E0
2.197346108E0,9.247661591E0,-8.255238086E-2,3.237488985E0
2.199727671E0,9.238089561E0,-7.298108935E-2,3.261417150E0
2.202156837E0,9.238089561E0,-8.255238086E-2,3.261417150E0
2.204586004E0,9.252447128E0,-7.298108935E-2,3.266202927E0
2.207015691E0,9.271589279E0,-7.716853172E-2,3.290131092E0
2.209445223E0,9.281160355E0,-6.281159073E-2,3.285345554E0
2.211874806E0,9.271589279E0,-5.324030295E-2,3.275774240E0
2.214304389E0,9.285946846E0,-4.366901144E-2,3.266202927E0
2.216733921E0,9.309874535E0,-5.324030295E-2,3.285345554E0
2.219163504E0,9.305088997E0,-4.845465720E-2,3.261417150E0
2.221593087E0,9.309276581E0,-3.888336942E-2,3.266202927E0
2.224022671E0,9.319445610E0,-4.845465720E-2,3.256631613E0
2.226452202E0,9.319445610E0,-6.281159073E-2,3.256631613E0
2.228881785E0,9.343374252E0,-5.742774159E-2,3.261417150E0
2.231311368E0,9.333803177E0,-5.802594870E-2,3.247060299E0
2.233740952E0,9.319445610E0,-7.238288224E-2,3.261417150E0
2.236170483E0,9.324232101E0,-5.802594870E-2,3.256631613E0
2.238600066E0,9.333803177E0,-7.657032460E-2,3.251846075E0
2.241029650E0,9.315258980E0,-1.154536903E-1,3.262015581E0
2.243459181E0,9.320044518E0,-1.148554832E-1,3.266801119E0
2.245888764E0,9.305686951E0,-1.202393398E-1,3.281157970E0
2.248318348E0,9.305686951E0,-1.393819153E-1,3.271586657E0
2.250747931E0,9.291330338E0,-1.441675574E-1,3.271586657E0
2.253177462E0,9.282357216E0,-1.728814393E-1,3.281157970E0
2.255607046E0,9.277571678E0,-1.633101404E-1,3.290729284E0
2.258036629E0,9.268000603E0,-1.968096644E-1,3.285943747E0
2.260466212E0,9.263813019E0,-2.159522474E-1,3.295515060E0
2.262895743E0,9.244669914E0,-2.207378894E-1,3.285943747E0
2.265325327E0,9.244669914E0,-2.255235314E-1,3.300898790E0
2.267754910E0,9.239884377E0,-2.207378894E-1,3.290729284E0
2.270184441E0,9.215956688E0,-2.117647976E-1,3.276372433E0
2.272614025E0,9.220742226E0,-2.117647976E-1,3.281157970E0
2.275043608E0,9.225527763E0,-2.165504545E-1,3.285943747E0
2.277473191E0,9.224929810E0,-1.974078715E-1,3.266801119E0
2.279902723E0,9.225527763E0,-2.021935135E-1,3.285943747E0
2.282332306E0,9.234500885E0,-1.878365725E-1,3.276372433E0
2.284761889E0,9.229715347E0,-1.926222295E-1,3.262015581E0
2.287191473E0,9.244071960E0,-1.782652885E-1,3.262015581E0
2.289621004E0,9.234500885E0,-1.591227055E-1,3.252444267E0
2.292050587E0,9.224929810E0,-1.495514214E-1,3.262015581E0
2.294480171E0,9.233902931E0,-1.351944804E-1,3.257229805E0
2.296909702E0,9.243474007E0,-1.399801224E-1,3.262015581E0
2.299339285E0,9.248259544E0,-1.304088384E-1,3.252444267E0
2.301768868E0,9.253045082E0,-1.208375469E-1,3.242872953E0
2.304198452E0,9.257830620E0,-1.256231815E-1,3.252444267E0
2.306627983E0,9.262616158E0,-1.112662554E-1,3.242872953E0
2.309057566E0,9.257830620E0,-1.160518974E-1,3.242872953E0
2.311487150E0,9.281759262E0,-1.298106313E-1,3.266801119E0
2.313916733E0,9.272188187E0,-1.058823988E-1,3.257229805E0
2.316346264E0,9.276973724E0,-1.058823988E-1,3.247658491E0
2.318775848E0,9.286544800E0,-1.298106313E-1,3.257229805E0
2.321205431E0,9.281759262E0,-1.345962733E-1,3.262015581E0
2.323590223E0,9.276973724E0,-1.489532143E-1,3.266801119E0
2.325972202E0,9.272188187E0,-1.489532143E-1,3.266801119E0
2.328354181E0,9.272188187E0,-1.489532143E-1,3.257229805E0
2.330736108E0,9.262616158E0,-1.441675574E-1,3.266801119E0
2.333118087E0,9.267401695E0,-1.393819153E-1,3.271586657E0
2.335500066E0,9.268000603E0,-1.633101404E-1,3.285943747E0
2.337882046E0,9.272786140E0,-1.728814393E-1,3.300300598E0
2.340263973E0,9.277571678E0,-1.728814393E-1,3.300300598E0
2.342645952E0,9.277571678E0,-1.920240223E-1,3.319443226E0
2.345027931E0,9.258428574E0,-1.728814393E-1,3.333800077E0
2.347409910E0,9.248857498E0,-1.776670814E-1,3.343371391E0
2.349791837E0,9.248857498E0,-1.633101404E-1,3.352942705E0
2.352173816E0,9.253643036E0,-1.680957973E-1,3.372085333E0
2.354555796E0,9.239286423E0,-1.776670814E-1,3.381656647E0
2.356937775E0,9.234500885E0,-1.776670814E-1,3.381656647E0
2.359319702E0,9.234500885E0,-1.680957973E-1,3.372085333E0
2.361701681E0,9.220144272E0,-1.537388563E-1,3.367299557E0
2.364083660E0,9.215357780E0,-1.633101404E-1,3.372085333E0
2.366465587E0,9.210572243E0,-1.495514214E-1,3.352942705E0
2.368847566E0,9.215357780E0,-1.639083475E-1,3.324228764E0
2.371229546E0,9.210572243E0,-1.447657645E-1,3.324228764E0
2.373611525E0,9.201001167E0,-1.351944804E-1,3.305086374E0
2.375993452E0,9.201001167E0,-1.351944804E-1,3.295515060E0
2.378375431E0,9.205188751E0,-1.112662554E-1,3.295515060E0
2.380757410E0,9.195617676E0,-1.070788130E-1,3.262015581E0
2.383139337E0,9.200403214E0,-1.166501045E-1,3.271586657E0
2.385521316E0,9.205188751E0,-1.118644550E-1,3.257229805E0
2.387903296E0,9.205188751E0,-1.022931710E-1,3.262015581E0
2.390285275E0,9.205188751E0,-1.022931710E-1,3.252444267E0
2.392667202E0,9.205188751E0,-1.022931710E-1,3.233301640E0
2.395049181E0,9.209974289E0,-1.022931710E-1,3.247658491E0
2.397431160E0,9.200403214E0,-9.272187948E-2,3.247658491E0
2.399813139E0,9.219545364E0,-9.212367237E-2,3.247658491E0
2.402195066E0,9.228518486E0,-8.255238086E-2,3.251846075E0
2.404577046E0,9.224330902E0,-9.690931439E-2,3.257229805E0
2.406959025E0,9.224330902E0,-8.733802289E-2,3.261417150E0
2.409340952E0,9.233902931E0,-9.690931439E-2,3.285943747E0
2.411722931E0,9.233902931E0,-1.112662554E-1,3.276372433E0
2.414104910E0,9.238688469E0,-1.064806059E-1,3.295515060E0
2.416486889E0,9.243474007E0,-1.064806059E-1,3.295515060E0
2.418868816E0,9.243474007E0,-9.631111473E-2,3.314657450E0
2.421250796E0,9.257830620E0,-9.631111473E-2,3.333800077E0
2.423632775E0,9.257830620E0,-1.298106313E-1,3.324228764E0
2.426014754E0,9.257830620E0,-1.393819153E-1,3.338585854E0
2.428396681E0,9.248857498E0,-1.489532143E-1,3.362514019E0
2.430778660E0,9.248857498E0,-1.441675574E-1,3.367299557E0
2.433160639E0,9.258428574E0,-1.585244983E-1,3.372085333E0
2.435542566E0,9.263215065E0,-1.579262912E-1,3.372085333E0
2.437924546E0,9.272786140E0,-1.627119333E-1,3.372085333E0
2.440306525E0,9.272786140E0,-1.627119333E-1,3.367299557E0
2.442688504E0,9.301499367E0,-1.722832322E-1,3.367299557E0
2.445070431E0,9.282357216E0,-1.722832322E-1,3.352942705E0
2.447452410E0,9.272786140E0,-1.776670814E-1,3.324228764E0
2.449834389E0,9.277571678E0,-1.914258152E-1,3.338585854E0
2.452216368E0,9.282357216E0,-1.776670814E-1,3.329014540E0
2.454598296E0,9.263215065E0,-1.824527234E-1,3.314657450E0
2.456980275E0,9.268000603E0,-1.728814393E-1,3.295515060E0
2.459362254E0,9.258428574E0,-1.633101404E-1,3.290729284E0
2.461744233E0,9.244071960E0,-1.495514214E-1,3.281157970E0
2.464126160E0,9.238688469E0,-1.399801224E-1,3.290729284E0
2.466508139E0,9.224330902E0,-1.160518974E-1,3.290729284E0
2.468890118E0,9.224330902E0,-9.690931439E-2,3.290729284E0
2.471272046E0,9.229117393E0,-8.733802289E-2,3.275774240E0
2.473654025E0,9.214161873E0,-5.862415582E-2,3.270988464E0
2.476036004E0,9.214161873E0,-4.007977992E-2,3.275774240E0
2.478417983E0,9.209376335E0,-3.948157281E-2,3.290131092E0
2.480799910E0,9.228518486E0,-4.426721856E-2,3.299702406E0
2.483181889E0,9.247661591E0,-3.948157281E-2,3.285345554E0
2.485563868E0,9.242876053E0,-3.948157281E-2,3.294916868E0
2.487945848E0,9.266803741E0,-4.366901144E-2,3.309273720E0
2.490327775E0,9.270991325E0,-2.452643216E-2,3.299702406E0
2.492709754E0,9.300303459E0,-4.366901144E-2,3.299702406E0
2.495091733E0,9.314660072E0,-4.366901144E-2,3.285345554E0
2.497473660E0,9.337990761E0,-3.828516230E-2,3.275774240E0
2.499855639E0,9.348159790E0,-5.264209956E-2,3.285345554E0
2.502237618E0,9.333803177E0,-4.785645381E-2,3.290131092E0
2.504619598E0,9.337990761E0,-3.828516230E-2,3.285345554E0
2.507001525E0,9.314660072E0,-5.324030295E-2,3.280559778E0
2.509383504E0,9.319445610E0,-5.264209956E-2,3.294916868E0
2.511765483E0,9.305088997E0,-4.845465720E-2,3.314059258E0
2.514147462E0,9.294919968E0,-3.409772366E-2,3.333201885E0
2.516529389E0,9.290732384E0,-4.845465720E-2,3.347558975E0
2.518911368E0,9.309874535E0,-3.828516230E-2,3.347558975E0
2.521293348E0,9.285946846E0,-4.366901144E-2,3.299702406E0
2.523675275E0,9.295517921E0,-5.324030295E-2,3.270988464E0
2.526057254E0,9.295517921E0,-4.426721856E-2,3.208775282E0
2.528439233E0,9.294919968E0,-3.948157281E-2,3.146561861E0
2.530821212E0,9.290732384E0,-5.383851007E-2,3.122633457E0
2.533203139E0,9.281160355E0,-5.383851007E-2,3.132204771E0
2.535585118E0,9.266803741E0,-5.862415582E-2,3.151347399E0
2.537967098E0,9.271589279E0,-5.383851007E-2,3.170490026E0
2.540349077E0,9.271589279E0,-4.905286431E-2,3.160918713E0
2.542731004E0,9.276374817E0,-6.340979785E-2,3.170490026E0
2.545112983E0,9.295517921E0,-5.862415582E-2,3.160918713E0
2.547494962E0,9.290732384E0,-5.383851007E-2,3.146561861E0
2.549876889E0,9.285347939E0,-3.948157281E-2,3.136990547E0
2.552258868E0,9.281160355E0,-4.905286431E-2,3.122633457E0
2.554640848E0,9.276374817E0,-6.879365444E-2,3.108276606E0
2.557022827E0,9.252447128E0,-5.922235921E-2,3.108276606E0
2.559404754E0,9.257232666E0,-7.836493850E-2,3.132204771E0
2.561786733E0,9.257232666E0,-6.400800496E-2,3.136990547E0
2.564168712E0,9.233304024E0,-5.922235921E-2,3.165704250E0
2.566550691E0,9.218947411E0,-5.922235921E-2,3.160918713E0
2.568932618E0,9.214161873E0,-4.965107143E-2,3.184846878E0
2.571314598E0,9.204590797E0,-4.007977992E-2,3.189632654E0
2.573696577E0,9.204590797E0,-5.922235921E-2,3.194418192E0
2.576078504E0,9.204590797E0,-6.400800496E-2,3.223132133E0
2.578460483E0,9.185447693E0,-6.879365444E-2,3.223132133E0
2.580842462E0,9.180662155E0,-6.879365444E-2,3.256631613E0
2.583224441E0,9.190233231E0,-7.357929647E-2,3.261417150E0
2.585606368E0,9.200403214E0,-7.836493850E-2,3.270988464E0
2.587988348E0,9.186046600E0,-8.315058798E-2,3.295515060E0
2.590370327E0,9.224330902E0,-9.212367237E-2,3.295515060E0
2.592752306E0,9.233902931E0,-8.255238086E-2,3.294916868E0
2.595134233E0,9.219545364E0,-9.212367237E-2,3.300300598E0
2.597516212E0,9.233902931E0,-1.016949639E-1,3.281157970E0
2.599898191E0,9.248259544E0,-1.064806059E-1,3.271586657E0
2.602280118E0,9.267401695E0,-9.690931439E-2,3.247060299E0
2.604662098E0,9.281759262E0,-9.631111473E-2,3.251846075E0
2.607044077E0,9.296115875E0,-1.058823988E-1,3.228515863E0
2.609426056E0,9.329017639E0,-9.152546525E-2,3.218346357E0
2.611807983E0,9.334401131E0,-1.250249892E-1,3.214159012E0
2.614189962E0,9.320044518E0,-1.154536903E-1,3.195016384E0
2.616571941E0,9.353543282E0,-1.196411327E-1,3.190230846E0
2.618953921E0,9.363115311E0,-1.196411327E-1,3.175873756E0
2.621335848E0,9.367302895E0,-1.148554832E-1,3.189632654E0
2.623717827E0,9.372088432E0,-1.148554832E-1,3.189632654E0
2.626099806E0,9.376873970E0,-1.052841991E-1,3.194418192E0
2.628481785E0,9.367302895E0,-1.004985496E-1,3.184846878E0
2.630863712E0,9.367302895E0,-1.100698411E-1,3.180061340E0
2.633245691E0,9.372088432E0,-1.100698411E-1,3.165704250E0
2.635627671E0,9.381659508E0,-1.148554832E-1,3.165704250E0
2.638009598E0,9.396016121E0,-1.196411327E-1,3.165704250E0
2.640391577E0,9.386445045E0,-1.196411327E-1,3.175275564E0
2.642773556E0,9.376873970E0,-9.092725813E-2,3.170490026E0
2.645155535E0,9.372088432E0,-1.004985496E-1,3.170490026E0
2.647537462E0,9.372088432E0,-1.004985496E-1,3.184846878E0
2.649919441E0,9.372088432E0,-9.571290761E-2,3.184846878E0
2.652301421E0,9.367302895E0,-9.092725813E-2,3.184846878E0
2.654683348E0,9.381659508E0,-8.614161611E-2,3.165704250E0
2.657065327E0,9.367302895E0,-1.004985496E-1,3.165704250E0
2.659447306E0,9.372088432E0,-1.052841991E-1,3.165704250E0
2.661829285E0,9.357730865E0,-8.673982322E-2,3.160918713E0
2.664211212E0,9.357730865E0,-8.135596663E-2,3.170490026E0
2.666593191E0,9.333803177E0,-7.716853172E-2,3.165704250E0
2.668975171E0,9.329017639E0,-6.281159073E-2,3.160918713E0
2.671357150E0,9.319445610E0,-5.802594870E-2,3.165704250E0
2.673739077E0,9.309874535E0,-6.759724021E-2,3.170490026E0
2.676121056E0,9.300303459E0,-9.631111473E-2,3.170490026E0
2.678503035E0,9.285946846E0,-7.776673883E-2,3.156133175E0
2.680885014E0,9.285946846E0,-9.212367237E-2,3.146561861E0
2.683266941E0,9.285946846E0,-8.255238086E-2,3.141776085E0
2.685648921E0,9.285946846E0,-8.733802289E-2,3.136990547E0
2.688030900E0,9.281160355E0,-8.733802289E-2,3.117847919E0
2.690412827E0,9.281160355E0,-8.255238086E-2,3.108276606E0
2.692794806E0,9.281160355E0,-1.016949639E-1,3.132204771E0
2.695176785E0,9.276973724E0,-1.112662554E-1,3.123231649E0
2.697558712E0,9.257232666E0,-1.022931710E-1,3.127419233E0
2.699940691E0,9.276973724E0,-1.064806059E-1,3.127419233E0
2.702322671E0,9.267401695E0,-1.112662554E-1,3.118446112E0
2.704704650E0,9.266803741E0,-9.750752151E-2,3.098705292E0
2.707086577E0,9.272188187E0,-1.208375469E-1,3.099303484E0
2.709468556E0,9.276973724E0,-1.256231815E-1,3.099303484E0
2.711850535E0,9.276374817E0,-1.016949639E-1,3.103491068E0
2.714232514E0,9.272188187E0,-1.208375469E-1,3.104089260E0
2.716614441E0,9.281759262E0,-1.160518974E-1,3.118446112E0
2.718996421E0,9.281759262E0,-1.112662554E-1,3.104089260E0
2.721378400E0,9.276973724E0,-1.160518974E-1,3.118446112E0
2.723760379E0,9.300303459E0,-1.064806059E-1,3.117847919E0
2.726142306E0,9.276374817E0,-9.690931439E-2,3.117847919E0
2.728524285E0,9.276374817E0,-9.690931439E-2,3.127419233E0
2.730906264E0,9.290732384E0,-1.064806059E-1,3.136990547E0
2.733288191E0,9.286544800E0,-1.112662554E-1,3.123231649E0
2.735670171E0,9.285946846E0,-8.733802289E-2,3.122633457E0
2.738052150E0,9.295517921E0,-1.064806059E-1,3.122633457E0
2.740434129E0,9.295517921E0,-9.212367237E-2,3.117847919E0
2.742816056E0,9.305088997E0,-1.016949639E-1,3.117847919E0
2.745198035E0,9.319445610E0,-9.690931439E-2,3.103491068E0
2.747580014E0,9.320044518E0,-1.154536903E-1,3.113660574E0
2.749961993E0,9.329017639E0,-9.152546525E-2,3.113062143E0
2.752343921E0,9.343374252E0,-8.673982322E-2,3.103491068E0
2.754725900E0,9.348159790E0,-8.673982322E-2,3.117847919E0
2.757107879E0,9.348159790E0,-9.152546525E-2,3.117847919E0
2.759489858E0,9.348159790E0,-1.010967568E-1,3.117847919E0
2.761871785E0,9.357730865E0,-1.106680483E-1,3.132204771E0
2.764253764E0,9.357730865E0,-1.202393398E-1,3.136990547E0
2.766635743E0,9.352945328E0,-1.106680483E-1,3.127419233E0
2.769017723E0,9.362516403E0,-9.631111473E-2,3.113062143E0
2.771399650E0,9.352945328E0,-1.058823988E-1,3.117847919E0
2.773781629E0,9.348159790E0,-1.106680483E-1,3.103491068E0
2.776163608E0,9.333803177E0,-1.058823988E-1,3.103491068E0
2.778545535E0,9.333803177E0,-9.152546525E-2,3.103491068E0
2.780927514E0,9.319445610E0,-1.016949639E-1,3.108276606E0
2.783309493E0,9.319445610E0,-1.016949639E-1,3.089133978E0
2.785691473E0,9.305088997E0,-1.064806059E-1,3.084348440E0
2.788073400E0,9.309874535E0,-1.016949639E-1,3.079562664E0
2.790455379E0,9.305088997E0,-1.112662554E-1,3.079562664E0
2.792837358E0,9.285946846E0,-9.690931439E-2,3.084348440E0
2.795219337E0,9.290732384E0,-9.212367237E-2,3.084348440E0
2.797601264E0,9.314660072E0,-1.016949639E-1,3.089133978E0
2.799983243E0,9.290732384E0,-8.733802289E-2,3.093919754E0
2.802365223E0,9.285946846E0,-8.255238086E-2,3.098705292E0
2.804747202E0,9.290732384E0,-8.733802289E-2,3.098705292E0
2.807129129E0,9.309874535E0,-7.776673883E-2,3.108276606E0
2.809511108E0,9.324232101E0,-8.673982322E-2,3.117847919E0
2.811893087E0,9.305088997E0,-9.212367237E-2,3.122633457E0
2.814275014E0,9.324232101E0,-8.195417374E-2,3.127419233E0
2.816656993E0,9.338588715E0,-1.010967568E-1,3.136990547E0
2.819038973E0,9.338588715E0,-9.152546525E-2,3.136990547E0
2.821420900E0,9.338588715E0,-9.631111473E-2,3.151347399E0
2.823802879E0,9.343374252E0,-9.152546525E-2,3.151347399E0
2.826184858E0,9.348159790E0,-1.010967568E-1,3.160918713E0
2.828566837E0,9.367302895E0,-1.052841991E-1,3.165704250E0
2.830948764E0,9.362516403E0,-1.148554832E-1,3.160918713E0
2.833330743E0,9.357730865E0,-1.154536903E-1,3.151347399E0
2.835712723E0,9.358329773E0,-1.250249892E-1,3.147160053E0
2.838094702E0,9.357730865E0,-1.154536903E-1,3.132204771E0
2.840476629E0,9.343374252E0,-1.106680483E-1,3.122633457E0
2.842858608E0,9.333803177E0,-1.154536903E-1,3.098705292E0
2.845240587E0,9.333803177E0,-1.154536903E-1,3.103491068E0
2.847622566E0,9.324830055E0,-1.256231815E-1,3.089732170E0
2.850004493E0,9.329017639E0,-1.160518974E-1,3.084348440E0
2.852386473E0,9.319445610E0,-1.112662554E-1,3.089133978E0
2.854768452E0,9.315258980E0,-1.160518974E-1,3.099303484E0
2.857150431E0,9.315258980E0,-1.208375469E-1,3.108874798E0
2.859532358E0,9.300901413E0,-1.351944804E-1,3.075375319E0
2.861914337E0,9.281759262E0,-1.357926875E-1,3.051447153E0
2.864296316E0,9.281160355E0,-1.070788130E-1,3.031706333E0
2.866678296E0,9.281160355E0,-1.118644550E-1,3.013161898E0
2.869060223E0,9.285946846E0,-1.118644550E-1,3.027518749E0
2.871442202E0,9.276973724E0,-1.214357466E-1,3.027518749E0
2.873824181E0,9.285946846E0,-1.118644550E-1,3.041875839E0
2.876206108E0,9.290732384E0,-8.793623000E-2,3.046063185E0
2.878588087E0,9.295517921E0,-1.064806059E-1,3.065205812E0
2.880970066E0,9.305088997E0,-9.212367237E-2,3.079562664E0
2.883352046E0,9.305088997E0,-8.255238086E-2,3.089133978E0
2.885733973E0,9.300303459E0,-8.255238086E-2,3.079562664E0
2.888115952E0,9.309874535E0,-9.212367237E-2,3.084348440E0
2.890497931E0,9.324232101E0,-7.776673883E-2,3.089133978E0
2.892879910E0,9.329017639E0,-9.212367237E-2,3.089133978E0
2.895261837E0,9.352945328E0,-8.195417374E-2,3.093919754E0
2.897643816E0,9.348159790E0,-8.673982322E-2,3.093919754E0
2.900025796E0,9.367302895E0,-9.631111473E-2,3.103491068E0
2.902407775E0,9.372088432E0,-9.152546525E-2,3.113062143E0
2.904789702E0,9.362516403E0,-9.631111473E-2,3.098705292E0
2.907171681E0,9.372088432E0,-9.152546525E-2,3.108276606E0
2.909553660E0,9.372088432E0,-1.010967568E-1,3.093919754E0
2.911935587E0,9.362516403E0,-9.631111473E-2,3.098705292E0
2.914317566E0,9.352945328E0,-1.010967568E-1,3.098705292E0
2.916699546E0,9.367302895E0,-9.152546525E-2,3.098705292E0
2.919081525E0,9.362516403E0,-9.631111473E-2,3.093919754E0
2.921463452E0,9.352945328E0,-9.631111473E-2,3.108276606E0
2.923845431E0,9.343374252E0,-8.195417374E-2,3.098705292E0
2.926227410E0,9.333803177E0,-8.673982322E-2,3.098705292E0
2.928609389E0,9.338588715E0,-9.631111473E-2,3.079562664E0
2.930991316E0,9.329017639E0,-7.298108935E-2,3.084348440E0
2.933373296E0,9.324232101E0,-7.776673883E-2,3.089133978E0
2.935755275E0,9.314660072E0,-9.690931439E-2,3.079562664E0
2.938137202E0,9.314660072E0,-1.016949639E-1,3.084348440E0
2.940519181E0,9.314660072E0,-8.255238086E-2,3.074777126E0
2.942901160E0,9.319445610E0,-9.690931439E-2,3.065205812E0
2.945283139E0,9.305088997E0,-9.212367237E-2,3.074777126E0
2.947665066E0,9.309874535E0,-8.255238086E-2,3.065205812E0
2.950047046E0,9.314660072E0,-9.212367237E-2,3.050848961E0
2.952429025E0,9.314660072E0,-8.733802289E-2,3.060420275E0
2.954811004E0,9.314660072E0,-8.255238086E-2,3.065205812E0
2.957192931E0,9.319445610E0,-6.819544733E-2,3.065205812E0
2.959574910E0,9.314660072E0,-7.298108935E-2,3.084348440E0
2.961956889E0,9.324232101E0,-8.255238086E-2,3.084348440E0
2.964338816E0,9.319445610E0,-8.255238086E-2,3.084348440E0
2.966720796E0,9.319445610E0,-8.733802289E-2,3.079562664E0
2.969102775E0,9.314660072E0,-9.690931439E-2,3.093919754E0
2.971484754E0,9.329017639E0,-9.690931439E-2,3.098705292E0
2.973866681E0,9.329017639E0,-8.673982322E-2,3.122633457E0
2.976248660E0,9.329017639E0,-7.716853172E-2,3.122633457E0
2.978630639E0,9.333803177E0,-8.195417374E-2,3.127419233E0
2.981012618E0,9.300303459E0,-7.298108935E-2,3.122633457E0
2.983394546E0,9.319445610E0,-8.195417374E-2,3.132204771E0
2.985776525E0,9.309874535E0,-8.255238086E-2,3.146561861E0
2.988158504E0,9.324232101E0,-9.631111473E-2,3.127419233E0
2.990540483E0,9.314660072E0,-9.212367237E-2,3.127419233E0
2.992922410E0,9.314660072E0,-9.690931439E-2,3.132204771E0
2.995304389E0,9.314660072E0,-8.255238086E-2,3.122633457E0
2.997686368E0,9.309874535E0,-1.016949639E-1,3.108276606E0
3.000068348E0,9.320044518E0,-1.160518974E-1,3.104089260E0
3.002450275E0,9.314660072E0,-1.016949639E-1,3.117847919E0
3.004832254E0,9.305088997E0,-9.212367237E-2,3.098705292E0
3.007214233E0,9.309874535E0,-9.690931439E-2,3.098705292E0
3.009596160E0,9.329017639E0,-8.733802289E-2,3.084348440E0
3.011978139E0,9.324232101E0,-9.212367237E-2,3.089133978E0
3.014360118E0,9.333803177E0,-8.733802289E-2,3.084348440E0
3.016742098E0,9.348159790E0,-8.195417374E-2,3.079562664E0
3.019124025E0,9.333803177E0,-8.255238086E-2,3.084348440E0
3.021506004E0,9.348159790E0,-9.631111473E-2,3.079562664E0
3.023887983E0,9.376873970E0,-9.631111473E-2,3.074777126E0
3.026269962E0,9.357730865E0,-9.631111473E-2,3.060420275E0
3.028651889E0,9.386445045E0,-9.631111473E-2,3.074777126E0
3.031033868E0,9.381659508E0,-1.106680483E-1,3.065205812E0
3.033415848E0,9.386445045E0,-1.202393398E-1,3.069991350E0
3.035797775E0,9.391230583E0,-1.154536903E-1,3.060420275E0
3.038179754E0,9.386445045E0,-1.250249892E-1,3.046063185E0
3.040561733E0,9.387042999E0,-1.345962733E-1,3.061018467E0
3.042943712E0,9.372686386E0,-1.393819153E-1,3.061018467E0
3.045325639E0,9.382257462E0,-1.393819153E-1,3.041875839E0
3.047707618E0,9.372686386E0,-1.489532143E-1,3.037090063E0
3.050089598E0,9.367900848E0,-1.298106313E-1,3.032304525E0
3.052471577E0,9.363115311E0,-1.345962733E-1,3.037090063E0
3.054853504E0,9.357730865E0,-1.250249892E-1,3.036491871E0
3.057235483E0,9.343972206E0,-1.304088384E-1,3.037090063E0
3.059617462E0,9.329017639E0,-1.208375469E-1,3.051447153E0
3.061999389E0,9.333803177E0,-1.208375469E-1,3.061018467E0
3.064381368E0,9.324830055E0,-1.495514214E-1,3.046661377E0
3.066763348E0,9.315258980E0,-1.351944804E-1,3.046661377E0
3.069145327E0,9.320044518E0,-1.351944804E-1,3.046661377E0
3.071527306E0,9.309874535E0,-1.160518974E-1,3.061018467E0
3.073909233E0,9.310472488E0,-1.304088384E-1,3.075375319E0
3.076291212E0,9.300901413E0,-1.351944804E-1,3.080160856E0
3.078673191E0,9.315258980E0,-1.399801224E-1,3.089732170E0
3.081055118E0,9.320044518E0,-1.399801224E-1,3.089732170E0
3.083437098E0,9.333803177E0,-1.154536903E-1,3.093919754E0
3.085819077E0,9.324830055E0,-1.154536903E-1,3.127419233E0
3.088201056E0,9.348159790E0,-1.154536903E-1,3.132204771E0
3.090582983E0,9.348159790E0,-1.106680483E-1,3.132204771E0
3.092964962E0,9.367302895E0,-1.106680483E-1,3.117847919E0
3.095346941E0,9.362516403E0,-1.010967568E-1,3.122633457E0
3.097728921E0,9.372088432E0,-1.010967568E-1,3.113062143E0
3.100110848E0,9.362516403E0,-1.202393398E-1,3.113062143E0
3.102492827E0,9.376873970E0,-1.196411327E-1,3.108276606E0
3.104874806E0,9.387042999E0,-1.292124242E-1,3.118446112E0
3.107256733E0,9.376873970E0,-1.202393398E-1,3.098705292E0
3.109638712E0,9.372686386E0,-1.345962733E-1,3.094517946E0
3.112020691E0,9.372686386E0,-1.489532143E-1,3.099303484E0
3.114402671E0,9.363115311E0,-1.393819153E-1,3.104089260E0
3.116784598E0,9.363115311E0,-1.537388563E-1,3.099303484E0
3.119166577E0,9.353543282E0,-1.537388563E-1,3.104089260E0
3.121548556E0,9.324830055E0,-1.489532143E-1,3.118446112E0
3.123930535E0,9.305686951E0,-1.393819153E-1,3.147160053E0
3.126312462E0,9.310472488E0,-1.441675574E-1,3.175873756E0
3.128694441E0,9.315258980E0,-1.298106313E-1,3.214159012E0
3.131076421E0,9.310472488E0,-1.441675574E-1,3.228515863E0
3.133458348E0,9.329615593E0,-1.244267747E-1,3.223730326E0
3.135840327E0,9.320044518E0,-1.393819153E-1,3.171088219E0
3.138222306E0,9.320044518E0,-1.256231815E-1,3.104089260E0
3.140604285E0,9.296115875E0,-1.447657645E-1,3.046661377E0
3.142986264E0,9.286544800E0,-1.453639716E-1,3.008376360E0
3.145368191E0,9.272188187E0,-1.357926875E-1,2.960519791E0
3.147750171E0,9.243474007E0,-1.459621787E-1,2.965305567E0
3.150132150E0,9.233902931E0,-1.268195957E-1,2.970091105E0
3.152514077E0,9.233902931E0,-1.316052526E-1,2.970091105E0
3.154896056E0,9.219545364E0,-1.172483116E-1,2.970091105E0
3.157278035E0,9.214759827E0,-1.082752272E-1,2.955734253E0
3.159660014E0,9.218947411E0,-9.810572863E-2,2.974278450E0
3.162041941E0,9.228518486E0,-7.417750359E-2,2.959921598E0
3.164423921E0,9.228518486E0,-7.417750359E-2,2.955136061E0
3.166805900E0,9.233304024E0,-8.853443712E-2,2.969492912E0
3.169187879E0,9.242876053E0,-8.853443712E-2,2.998206854E0
3.171569806E0,9.238089561E0,-9.810572863E-2,3.002992392E0
3.173951785E0,9.242876053E0,-1.028913707E-1,3.031706333E0
3.176333764E0,9.252447128E0,-1.022931710E-1,3.050848961E0
3.178715743E0,9.247661591E0,-9.750752151E-2,3.074777126E0
3.181097671E0,9.257830620E0,-1.214357466E-1,3.061018467E0
3.183479650E0,9.276374817E0,-1.022931710E-1,3.065205812E0
3.185861629E0,9.285946846E0,-1.070788130E-1,3.060420275E0
3.188243556E0,9.305686951E0,-1.256231815E-1,3.056232691E0
3.190625535E0,9.310472488E0,-1.351944804E-1,3.061018467E0
3.193007514E0,9.310472488E0,-1.399801224E-1,3.070589542E0
3.195389493E0,9.315258980E0,-1.399801224E-1,3.084946632E0
3.197771421E0,9.334401131E0,-1.489532143E-1,3.084946632E0
3.200153400E0,9.343972206E0,-1.393819153E-1,3.089732170E0
3.202535379E0,9.348757744E0,-1.489532143E-1,3.080160856E0
3.204917358E0,9.353543282E0,-1.537388563E-1,3.084946632E0
3.207299285E0,9.367900848E0,-1.585244983E-1,3.075375319E0
3.209681264E0,9.372686386E0,-1.633101404E-1,3.061018467E0
3.212063243E0,9.396614075E0,-1.531406492E-1,3.056232691E0
3.214445171E0,9.401400566E0,-1.531406492E-1,3.056232691E0
3.216827150E0,9.396614075E0,-1.674975902E-1,3.051447153E0
3.219209129E0,9.406186104E0,-1.483550072E-1,3.051447153E0
3.221591108E0,9.406186104E0,-1.579262912E-1,3.037090063E0
3.223973087E0,9.415757179E0,-1.579262912E-1,3.013161898E0
3.226355014E0,9.415757179E0,-1.441675574E-1,2.998805046E0
3.228736993E0,9.430113792E0,-1.435693651E-1,3.003590584E0
3.231118973E0,9.410971642E0,-1.585244983E-1,2.994019270E0
3.233500900E0,9.401400566E0,-1.441675574E-1,2.974876642E0
3.235882879E0,9.376873970E0,-1.345962733E-1,2.974876642E0
3.238264858E0,9.376873970E0,-1.298106313E-1,2.979064226E0
3.240646837E0,9.381659508E0,-1.345962733E-1,2.964707375E0
3.243028764E0,9.372088432E0,-1.351944804E-1,2.950948477E0
3.245410743E0,9.362516403E0,-1.304088384E-1,2.969492912E0
3.247792723E0,9.372088432E0,-1.351944804E-1,2.950948477E0
3.250174702E0,9.367302895E0,-1.256231815E-1,2.945564747E0
3.252556629E0,9.338588715E0,-1.256231815E-1,2.950350285E0
3.254938608E0,9.343374252E0,-1.256231815E-1,2.959921598E0
3.257320587E0,9.343374252E0,-1.208375469E-1,2.955136061E0
3.259702566E0,9.343374252E0,-1.208375469E-1,2.955136061E0
3.262084493E0,9.348159790E0,-1.064806059E-1,2.945564747E0
3.264466473E0,9.352945328E0,-1.208375469E-1,2.945564747E0
3.266848452E0,9.348159790E0,-1.112662554E-1,2.940778971E0
3.269230379E0,9.343972206E0,-1.399801224E-1,2.946162939E0
3.271612358E0,9.343972206E0,-1.399801224E-1,2.946162939E0
3.273994337E0,9.348757744E0,-1.447657645E-1,2.946162939E0
3.276376316E0,9.343972206E0,-1.447657645E-1,2.950948477E0
3.278758243E0,9.339186668E0,-1.591227055E-1,2.960519791E0
3.281140223E0,9.348757744E0,-1.734796464E-1,2.965305567E0
3.283522202E0,9.358329773E0,-1.591227055E-1,2.955734253E0
3.285904181E0,9.358329773E0,-1.686939895E-1,2.965305567E0
3.288286108E0,9.363115311E0,-1.680957973E-1,2.989233732E0
3.290668087E0,9.372686386E0,-1.776670814E-1,2.989233732E0
3.293050066E0,9.382257462E0,-1.537388563E-1,3.008376360E0
3.295432046E0,9.382257462E0,-1.728814393E-1,3.027518749E0
3.297813973E0,9.377471924E0,-1.824527234E-1,3.027518749E0
3.300195952E0,9.387042999E0,-1.872383654E-1,3.022733212E0
3.302577931E0,9.397212982E0,-2.009970993E-1,3.027518749E0
3.304959910E0,9.382257462E0,-1.872383654E-1,3.017947674E0
3.307341837E0,9.382257462E0,-1.585244983E-1,3.022733212E0
3.309723816E0,9.391828537E0,-1.776670814E-1,3.017947674E0
3.312105796E0,9.406186104E0,-1.722832322E-1,3.017947674E0
3.314487723E0,9.401400566E0,-1.585244983E-1,3.008376360E0
3.316869702E0,9.391828537E0,-1.489532143E-1,3.003590584E0
3.319251681E0,9.381659508E0,-1.298106313E-1,2.993421078E0
3.321633660E0,9.372088432E0,-1.250249892E-1,2.983849764E0
3.324015587E0,9.357730865E0,-1.112662554E-1,2.988635540E0
3.326397566E0,9.362516403E0,-1.010967568E-1,3.007778168E0
3.328779546E0,9.348159790E0,-1.208375469E-1,3.012563705E0
3.331161525E0,9.338588715E0,-1.064806059E-1,3.017349243E0
3.333543452E0,9.338588715E0,-1.016949639E-1,3.022135019E0
3.335925431E0,9.329017639E0,-8.733802289E-2,3.007778168E0
3.338307410E0,9.324232101E0,-9.212367237E-2,3.022135019E0
3.340689389E0,9.324232101E0,-9.690931439E-2,3.017349243E0
3.343071316E0,9.343374252E0,-7.776673883E-2,3.031706333E0
3.345453296E0,9.342776299E0,-6.819544733E-2,3.026920557E0
3.347835275E0,9.343374252E0,-9.212367237E-2,3.012563705E0
3.350217254E0,9.348159790E0,-8.733802289E-2,3.012563705E0
3.352599181E0,9.348159790E0,-8.733802289E-2,2.988635540E0
3.354981160E0,9.338588715E0,-1.064806059E-1,2.974278450E0
3.357363139E0,9.348159790E0,-9.690931439E-2,2.974278450E0
3.359745066E0,9.352945328E0,-1.160518974E-1,2.979064226E0
3.362127046E0,9.343374252E0,-1.256231815E-1,2.974278450E0
3.364509025E0,9.333803177E0,-1.208375469E-1,2.964707375E0
3.366891004E0,9.338588715E0,-1.160518974E-1,2.983849764E0
3.369272931E0,9.339186668E0,-1.351944804E-1,2.989233732E0
3.371654910E0,9.334401131E0,-1.495514214E-1,2.989233732E0
3.374036889E0,9.324830055E0,-1.543370634E-1,2.989233732E0
3.376418868E0,9.334401131E0,-1.591227055E-1,3.003590584E0
3.378800796E0,9.310472488E0,-1.591227055E-1,3.013161898E0
3.381182775E0,9.320044518E0,-1.543370634E-1,3.017947674E0
3.383564754E0,9.315258980E0,-1.686939895E-1,3.037090063E0
3.385946733E0,9.324830055E0,-1.495514214E-1,3.041875839E0
3.388328660E0,9.329615593E0,-1.543370634E-1,3.046661377E0
3.390710639E0,9.305686951E0,-1.543370634E-1,3.080160856E0
3.393092618E0,9.310472488E0,-1.543370634E-1,3.080160856E0
3.395474598E0,9.300901413E0,-1.686939895E-1,3.084946632E0
3.397856525E0,9.300901413E0,-1.591227055E-1,3.104089260E0
3.400238504E0,9.305686951E0,-1.686939895E-1,3.108874798E0
3.402620483E0,9.296713829E0,-1.728814393E-1,3.142374277E0
3.405002462E0,9.291330338E0,-1.585244983E-1,3.151945591E0
3.407384389E0,9.277571678E0,-1.782652885E-1,3.156731367E0
3.409766368E0,9.282357216E0,-1.776670814E-1,3.180659533E0
3.412148348E0,9.272188187E0,-1.591227055E-1,3.185445070E0
3.414530275E0,9.272188187E0,-1.591227055E-1,3.175873756E0
3.416912254E0,9.267401695E0,-1.591227055E-1,3.156731367E0
3.419294233E0,9.262616158E0,-1.495514214E-1,3.137588739E0
3.421676212E0,9.262616158E0,-1.351944804E-1,3.132802963E0
3.424058139E0,9.248259544E0,-1.549352705E-1,3.113660574E0
3.426440118E0,9.248259544E0,-1.405783296E-1,3.089732170E0
3.428822098E0,9.233902931E0,-1.357926875E-1,3.089732170E0
3.431204077E0,9.238688469E0,-1.310070455E-1,3.084946632E0
3.433586004E0,9.248259544E0,-1.310070455E-1,3.075375319E0
3.435967983E0,9.248259544E0,-1.262213886E-1,3.075375319E0
3.438349962E0,9.257830620E0,-1.357926875E-1,3.051447153E0
3.440731941E0,9.262616158E0,-1.166501045E-1,3.046661377E0
3.443113868E0,9.267401695E0,-1.166501045E-1,3.041875839E0
3.445495848E0,9.271589279E0,-1.118644550E-1,3.027518749E0
3.447877827E0,9.276374817E0,-1.118644550E-1,3.002992392E0
3.450259806E0,9.281160355E0,-1.118644550E-1,3.007778168E0
3.452641733E0,9.295517921E0,-1.118644550E-1,2.993421078E0
3.455023712E0,9.300303459E0,-9.272187948E-2,2.993421078E0
3.457405691E0,9.305088997E0,-1.118644550E-1,2.979064226E0
3.459787618E0,9.333803177E0,-1.112662554E-1,2.983849764E0
3.462169598E0,9.314660072E0,-9.750752151E-2,2.988635540E0
3.464551577E0,9.324232101E0,-8.733802289E-2,2.979064226E0
3.466933556E0,9.329017639E0,-9.212367237E-2,2.993421078E0
3.469315483E0,9.324232101E0,-1.064806059E-1,2.993421078E0
3.471697462E0,9.343374252E0,-9.690931439E-2,2.998206854E0
3.474079441E0,9.352945328E0,-1.064806059E-1,3.002992392E0
3.476461421E0,9.357730865E0,-1.160518974E-1,2.993421078E0
3.478843348E0,9.362516403E0,-1.298106313E-1,3.003590584E0
3.481225327E0,9.367302895E0,-1.250249892E-1,3.017349243E0
3.483607306E0,9.372686386E0,-1.537388563E-1,3.022733212E0
3.485989285E0,9.387042999E0,-1.441675574E-1,3.017947674E0
3.488371212E0,9.387042999E0,-1.489532143E-1,3.027518749E0
3.490753191E0,9.401400566E0,-1.531406492E-1,3.041875839E0
3.493135171E0,9.410971642E0,-1.674975902E-1,3.027518749E0
3.495517150E0,9.420542717E0,-1.531406492E-1,3.041875839E0
3.497899077E0,9.415757179E0,-1.818545163E-1,3.032304525E0
3.500281056E0,9.415757179E0,-1.914258152E-1,3.032304525E0
3.502663035E0,9.444471359E0,-1.914258152E-1,3.013161898E0
3.505045014E0,9.435498238E0,-2.009970993E-1,3.027518749E0
3.507426941E0,9.444471359E0,-1.962114573E-1,3.037090063E0
3.509808921E0,9.454042435E0,-2.009970993E-1,3.017947674E0
3.512190900E0,9.449854851E0,-2.057827413E-1,3.003590584E0
3.514572827E0,9.449256897E0,-1.962114573E-1,3.008376360E0
3.516954806E0,9.454042435E0,-2.009970993E-1,3.017947674E0
3.519336785E0,9.449256897E0,-1.914258152E-1,3.027518749E0
3.521718764E0,9.430113792E0,-1.866401732E-1,3.051447153E0
3.524100691E0,9.439684868E0,-1.674975902E-1,3.046661377E0
3.526482671E0,9.430113792E0,-1.531406492E-1,3.061018467E0
3.528864650E0,9.434899330E0,-1.579262912E-1,3.080160856E0
3.531246629E0,9.434899330E0,-1.573280841E-1,3.094517946E0
3.533628556E0,9.415159225E0,-1.339980662E-1,3.089133978E0
3.536010535E0,9.406186104E0,-1.339980662E-1,3.084946632E0
3.538392514E0,9.396614075E0,-1.435693651E-1,3.080160856E0
3.540774493E0,9.382257462E0,-1.435693651E-1,3.089732170E0
3.543156421E0,9.377471924E0,-1.489532143E-1,3.089732170E0
3.545538400E0,9.363115311E0,-1.393819153E-1,3.070589542E0
3.547920379E0,9.357730865E0,-1.250249892E-1,3.060420275E0
3.550302358E0,9.358329773E0,-1.441675574E-1,3.061018467E0
3.552684285E0,9.339186668E0,-1.489532143E-1,3.051447153E0
3.555066264E0,9.334401131E0,-1.639083475E-1,3.041875839E0
3.557448243E0,9.329615593E0,-1.591227055E-1,3.051447153E0
3.559830223E0,9.329615593E0,-1.543370634E-1,3.056232691E0
3.562212150E0,9.320044518E0,-1.399801224E-1,3.065804005E0
3.564594129E0,9.315258980E0,-1.304088384E-1,3.075375319E0
3.566976108E0,9.320044518E0,-1.399801224E-1,3.065804005E0
3.569358087E0,9.320044518E0,-1.256231815E-1,3.089732170E0
3.571740014E0,9.305088997E0,-1.112662554E-1,3.113062143E0
3.574121993E0,9.305686951E0,-1.256231815E-1,3.104089260E0
3.576503973E0,9.305686951E0,-1.304088384E-1,3.128017426E0
3.578885900E0,9.300901413E0,-1.304088384E-1,3.142374277E0
3.581267879E0,9.300901413E0,-1.160518974E-1,3.137588739E0
3.583649858E0,9.296115875E0,-1.399801224E-1,3.137588739E0
3.586031837E0,9.296115875E0,-1.399801224E-1,3.137588739E0
3.588413764E0,9.272188187E0,-1.304088384E-1,3.137588739E0
3.590795743E0,9.253045082E0,-1.357926875E-1,3.123231649E0
3.593177723E0,9.257830620E0,-1.118644550E-1,3.123231649E0
3.595559702E0,9.262616158E0,-1.208375469E-1,3.113660574E0
3.597941629E0,9.257830620E0,-1.166501045E-1,3.099303484E0
3.600323608E0,9.257830620E0,-1.262213886E-1,3.084946632E0
3.602705587E0,9.262616158E0,-1.357926875E-1,3.075375319E0
3.605087566E0,9.253045082E0,-1.357926875E-1,3.065804005E0
3.607469493E0,9.243474007E0,-1.214357466E-1,3.061018467E0
3.609851473E0,9.262616158E0,-1.405783296E-1,3.046661377E0
3.612233452E0,9.257830620E0,-1.453639716E-1,3.056232691E0
3.614615431E0,9.262616158E0,-1.597209126E-1,3.056232691E0
3.616997358E0,9.257830620E0,-1.501496136E-1,3.041875839E0
3.619379337E0,9.282357216E0,-1.734796464E-1,3.051447153E0
3.621761316E0,9.286544800E0,-1.639083475E-1,3.061018467E0
3.624143243E0,9.291928291E0,-1.734796464E-1,3.065804005E0
3.626525223E0,9.300901413E0,-1.639083475E-1,3.061018467E0
3.628907202E0,9.306285858E0,-1.926222295E-1,3.084946632E0
3.631289181E0,9.320044518E0,-1.633101404E-1,3.094517946E0
3.633671108E0,9.334401131E0,-1.489532143E-1,3.094517946E0
3.636053087E0,9.329615593E0,-1.728814393E-1,3.094517946E0
3.638435066E0,9.339186668E0,-1.680957973E-1,3.108874798E0
3.640817046E0,9.329615593E0,-1.585244983E-1,3.089732170E0
3.643198973E0,9.334401131E0,-1.441675574E-1,3.099303484E0
3.645580952E0,9.334401131E0,-1.489532143E-1,3.099303484E0
3.647962931E0,9.339186668E0,-1.393819153E-1,3.094517946E0
3.650344910E0,9.329615593E0,-1.393819153E-1,3.094517946E0
3.652726837E0,9.348757744E0,-1.489532143E-1,3.099303484E0
3.655108816E0,9.343972206E0,-1.537388563E-1,3.094517946E0
3.657490796E0,9.353543282E0,-1.393819153E-1,3.099303484E0
3.659872775E0,9.339186668E0,-1.489532143E-1,3.108874798E0
3.662254702E0,9.343972206E0,-1.345962733E-1,3.108874798E0
3.664636681E0,9.334401131E0,-1.441675574E-1,3.094517946E0
3.667018660E0,9.343972206E0,-1.345962733E-1,3.108874798E0
3.669400639E0,9.348159790E0,-1.106680483E-1,3.079562664E0
3.671782566E0,9.339186668E0,-1.250249892E-1,3.094517946E0
3.674164546E0,9.353543282E0,-1.298106313E-1,3.084946632E0
3.676546525E0,9.339186668E0,-1.250249892E-1,3.065804005E0
3.678928504E0,9.357730865E0,-1.202393398E-1,3.065205812E0
3.681310431E0,9.348159790E0,-1.058823988E-1,3.069991350E0
3.683692410E0,9.362516403E0,-1.010967568E-1,3.074777126E0
3.686074389E0,9.376873970E0,-8.673982322E-2,3.069991350E0
3.688456316E0,9.376873970E0,-9.152546525E-2,3.055634499E0
3.690838296E0,9.376873970E0,-9.631111473E-2,3.041277647E0
3.693220275E0,9.372088432E0,-9.152546525E-2,3.036491871E0
3.695602254E0,9.381659508E0,-1.010967568E-1,3.026920557E0
3.697984233E0,9.372686386E0,-1.345962733E-1,3.008376360E0
3.700366160E0,9.367900848E0,-1.585244983E-1,3.008376360E0
3.702748139E0,9.358329773E0,-1.489532143E-1,3.032304525E0
3.705130118E0,9.343972206E0,-1.633101404E-1,3.032304525E0
3.707512046E0,9.329615593E0,-1.639083475E-1,3.046661377E0
3.709894025E0,9.315856934E0,-1.782652885E-1,3.089732170E0
3.712276004E0,9.306285858E0,-1.728814393E-1,3.123231649E0
3.714657983E0,9.315856934E0,-1.776670814E-1,3.142374277E0
3.717039910E0,9.301499367E0,-1.776670814E-1,3.166302681E0
3.719421889E0,9.306285858E0,-1.680957973E-1,3.161516905E0
3.721803868E0,9.305686951E0,-1.680957973E-1,3.128017426E0
3.724185848E0,9.301499367E0,-1.734796464E-1,3.080160856E0
3.726567775E0,9.291928291E0,-1.974078715E-1,3.032304525E0
3.728949754E0,9.272786140E0,-1.836491376E-1,2.965305567E0
3.731331733E0,9.272188187E0,-1.692921966E-1,2.965305567E0
3.733713712E0,9.258428574E0,-1.794617027E-1,2.960519791E0
3.736095639E0,9.253643036E0,-1.884347796E-1,2.994019270E0
3.738477618E0,9.253045082E0,-1.645065546E-1,3.022733212E0
3.740859598E0,9.253643036E0,-1.692921966E-1,3.041875839E0
3.743241577E0,9.253643036E0,-1.740778536E-1,3.065804005E0
3.745623504E0,9.262616158E0,-1.543370634E-1,3.099303484E0
3.748005483E0,9.268000603E0,-1.686939895E-1,3.108874798E0
3.750387462E0,9.291330338E0,-1.489532143E-1,3.161516905E0
3.752769441E0,9.296115875E0,-1.537388563E-1,3.161516905E0
3.755151368E0,9.291330338E0,-1.441675574E-1,3.199802160E0
3.757533348E0,9.300901413E0,-1.441675574E-1,3.223730326E0
3.759915327E0,9.296115875E0,-1.537388563E-1,3.228515863E0
3.762297254E0,9.305686951E0,-1.585244983E-1,3.242872953E0
3.764679233E0,9.311071396E0,-1.722832322E-1,3.252444267E0
3.767061212E0,9.315856934E0,-1.722832322E-1,3.247658491E0
3.769443191E0,9.296115875E0,-1.537388563E-1,3.233301640E0
3.771825171E0,9.300901413E0,-1.537388563E-1,3.209373474E0
3.774207098E0,9.277571678E0,-1.728814393E-1,3.195016384E0
3.776589077E0,9.281759262E0,-1.591227055E-1,3.175873756E0
3.778971056E0,9.272188187E0,-1.399801224E-1,3.171088219E0
3.781352983E0,9.262616158E0,-1.351944804E-1,3.161516905E0
3.783734962E0,9.257830620E0,-1.256231815E-1,3.151945591E0
3.786116941E0,9.257830620E0,-1.160518974E-1,3.137588739E0
3.788498921E0,9.253045082E0,-1.214357466E-1,3.123231649E0
3.790880848E0,9.257830620E0,-1.214357466E-1,3.104089260E0
3.793262827E0,9.262018204E0,-1.022931710E-1,3.074777126E0
3.795644806E0,9.252447128E0,-9.750752151E-2,3.060420275E0
3.798026785E0,9.257232666E0,-9.272187948E-2,3.041277647E0
3.800408712E0,9.262018204E0,-1.022931710E-1,3.022135019E0
3.802790691E0,9.276374817E0,-9.750752151E-2,3.012563705E0
3.805172671E0,9.281160355E0,-7.836493850E-2,3.012563705E0
3.807554650E0,9.295517921E0,-8.315058798E-2,2.993421078E0
3.809936577E0,9.305088997E0,-7.836493850E-2,3.002992392E0
3.812318556E0,9.329017639E0,-7.776673883E-2,2.974278450E0
3.814700535E0,9.343374252E0,-8.733802289E-2,2.998206854E0
3.817082514E0,9.357730865E0,-9.212367237E-2,3.007778168E0
3.819464441E0,9.372088432E0,-7.716853172E-2,3.012563705E0
3.821846421E0,9.391230583E0,-9.152546525E-2,3.026920557E0
3.824228400E0,9.400801659E0,-1.058823988E-1,3.036491871E0
3.826610379E0,9.410373688E0,-1.004985496E-1,3.036491871E0
3.828992306E0,9.424730301E0,-1.052841991E-1,3.046063185E0
3.831374285E0,9.434301376E0,-1.292124242E-1,3.031706333E0
3.833756264E0,9.434301376E0,-1.292124242E-1,3.055634499E0
3.836138243E0,9.439086914E0,-1.244267747E-1,3.055634499E0
3.838520171E0,9.458230019E0,-1.286142170E-1,3.065205812E0
3.840902150E0,9.448657990E0,-1.387837082E-1,3.069991350E0
3.843284129E0,9.454042435E0,-1.477568001E-1,3.080160856E0
3.845666056E0,9.454042435E0,-1.525424421E-1,3.070589542E0
3.848048035E0,9.458827972E0,-1.764706671E-1,3.080160856E0
3.850430014E0,9.468399048E0,-1.956132501E-1,3.061018467E0
3.852811993E0,9.473184586E0,-1.860419661E-1,3.041875839E0
3.855193921E0,9.468399048E0,-1.956132501E-1,3.032304525E0
3.857575900E0,9.468399048E0,-1.908276081E-1,3.027518749E0
3.859957879E0,9.454042435E0,-1.674975902E-1,3.013161898E0
3.862339858E0,9.454042435E0,-1.579262912E-1,3.032304525E0
3.864721785E0,9.439086914E0,-1.387837082E-1,3.041875839E0
3.867103764E0,9.434301376E0,-1.196411327E-1,3.041277647E0
3.869485743E0,9.415159225E0,-1.100698411E-1,3.079562664E0
3.871867723E0,9.400801659E0,-9.571290761E-2,3.089133978E0
3.874249650E0,9.376873970E0,-9.152546525E-2,3.098705292E0
3.876631629E0,9.357730865E0,-8.195417374E-2,3.117847919E0
3.879013608E0,9.352945328E0,-7.716853172E-2,3.122633457E0
3.881395587E0,9.329017639E0,-9.631111473E-2,3.132204771E0
3.883777514E0,9.315258980E0,-1.154536903E-1,3.151945591E0
3.886159493E0,9.290732384E0,-9.212367237E-2,3.141776085E0
3.888541473E0,9.276374817E0,-9.212367237E-2,3.132204771E0
3.890923452E0,9.271589279E0,-1.022931710E-1,3.113062143E0
3.893305379E0,9.272188187E0,-1.064806059E-1,3.128017426E0
3.895687358E0,9.257830620E0,-1.022931710E-1,3.118446112E0
3.898069337E0,9.267401695E0,-1.070788130E-1,3.104089260E0
3.900451316E0,9.262616158E0,-1.022931710E-1,3.108874798E0
3.902833243E0,9.252447128E0,-8.793623000E-2,3.089133978E0
3.905215223E0,9.252447128E0,-8.315058798E-2,3.069991350E0
3.907597202E0,9.257232666E0,-9.750752151E-2,3.069991350E0
3.909979181E0,9.276374817E0,-1.070788130E-1,3.061018467E0
3.912361108E0,9.272188187E0,-1.214357466E-1,3.037090063E0
3.914743087E0,9.262616158E0,-1.166501045E-1,3.027518749E0
3.917125066E0,9.286544800E0,-1.357926875E-1,2.989233732E0
3.919507046E0,9.296115875E0,-1.214357466E-1,2.984447956E0
3.921888973E0,9.309874535E0,-1.166501045E-1,2.994019270E0
3.924270952E0,9.338588715E0,-8.733802289E-2,2.974278450E0
3.926652931E0,9.347561836E0,-5.383851007E-2,2.974278450E0
3.929034910E0,9.347561836E0,-2.991028316E-2,2.988635540E0
3.931416837E0,9.366106033E0,3.589233849E-3,2.993421078E0
3.933798816E0,9.361320496E0,3.708875179E-2,2.997608662E0
3.936180796E0,9.379864693E0,5.623133108E-2,3.007179976E0
3.938562775E0,9.385248184E0,3.230310604E-2,3.016751051E0
3.940944702E0,9.385248184E0,1.794617064E-2,3.016751051E0
3.943326681E0,9.380462646E0,8.374879137E-3,3.007179976E0
3.945708660E0,9.375677109E0,8.374879137E-3,3.031108141E0
3.948090587E0,9.370891571E0,-1.196411322E-3,3.036491871E0
3.950472566E0,9.361918449E0,-2.991028316E-2,3.041277647E0
3.952854546E0,9.352347374E0,-2.991028316E-2,3.036491871E0
3.955236525E0,9.352347374E0,-3.469592705E-2,3.031706333E0
3.957618452E0,9.347561836E0,-3.948157281E-2,3.022135019E0
3.960000431E0,9.352347374E0,-3.948157281E-2,3.017349243E0
3.962382410E0,9.357132912E0,-4.426721856E-2,3.022135019E0
3.964764389E0,9.342776299E0,-4.905286431E-2,3.007778168E0
3.967146316E0,9.357132912E0,-5.862415582E-2,3.012563705E0
3.969528296E0,9.348159790E0,-7.298108935E-2,3.017349243E0
3.971910275E0,9.371489525E0,-5.802594870E-2,3.036491871E0
3.974292254E0,9.348159790E0,-6.819544733E-2,3.041277647E0
3.976674181E0,9.367302895E0,-8.195417374E-2,3.031706333E0
3.979056160E0,9.367302895E0,-9.631111473E-2,3.055634499E0
3.981438139E0,9.352945328E0,-8.255238086E-2,3.055634499E0
3.983820118E0,9.362516403E0,-8.195417374E-2,3.084348440E0
3.986202046E0,9.367302895E0,-9.631111473E-2,3.074777126E0
3.988584025E0,9.372088432E0,-1.202393398E-1,3.069991350E0
3.990966004E0,9.363115311E0,-1.345962733E-1,3.089732170E0
3.993347983E0,9.352945328E0,-1.106680483E-1,3.098705292E0
3.995729910E0,9.357730865E0,-9.631111473E-2,3.089133978E0
3.998111889E0,9.338588715E0,-9.152546525E-2,3.108276606E0
4.000493868E0,9.337990761E0,-5.862415582E-2,3.103491068E0
4.002875848E0,9.333204269E0,-2.033899166E-2,3.098705292E0
4.005257775E0,9.323633194E0,-3.469592705E-2,3.103491068E0
4.007639754E0,9.323633194E0,-3.948157281E-2,3.098705292E0
4.010021733E0,9.318847656E0,-5.982056726E-3,3.093919754E0
4.012403712E0,9.304491043E0,-3.469592705E-2,3.089133978E0
4.014785639E0,9.290133476E0,-1.136590727E-2,3.079562664E0
4.017167618E0,9.275776863E0,-1.794616925E-3,3.084348440E0
4.019549598E0,9.284749985E0,1.256231871E-2,3.065205812E0
4.021931577E0,9.265607834E0,1.734796353E-2,3.060420275E0
4.024313504E0,9.280562401E0,2.991028363E-3,3.069991350E0
4.026695483E0,9.280562401E0,2.991028363E-3,3.060420275E0
4.029077462E0,9.279964447E0,2.691925503E-2,3.064607620E0
4.031459441E0,9.279964447E0,3.170489892E-2,3.074178934E0
4.033841368E0,9.284749985E0,2.691925503E-2,3.055036306E0
4.036223348E0,9.299106598E0,3.649054468E-2,3.064607620E0
4.038605327E0,9.284749985E0,4.606183618E-2,3.069393158E0
4.040987306E0,9.289535522E0,3.170489892E-2,3.064607620E0
4.043369233E0,9.284749985E0,4.606183618E-2,3.069393158E0
4.045751212E0,9.299106598E0,4.127619043E-2,3.069393158E0
4.048133191E0,9.294321060E0,5.084748194E-2,3.059821844E0
4.050515171E0,9.299106598E0,2.751746029E-2,3.078964472E0
4.052897098E0,9.313464165E0,1.794617064E-2,3.078964472E0
4.055279077E0,9.308678627E0,2.273181453E-2,3.088535786E0
4.057661056E0,9.318249702E0,1.316052489E-2,3.093919754E0
4.060043035E0,9.303893089E0,8.374879137E-3,3.093919754E0
4.062424962E0,9.308678627E0,3.230310604E-2,3.112463951E0
4.064806941E0,9.309276581E0,-1.196411322E-3,3.117847919E0
4.067188921E0,9.314062119E0,-1.196411322E-3,3.122633457E0
4.069570848E0,9.318847656E0,-1.555334684E-2,3.117847919E0
4.071952827E0,9.314062119E0,-2.512463741E-2,3.122633457E0
4.074334806E0,9.285347939E0,-2.512463741E-2,3.108276606E0
4.076716785E0,9.314062119E0,-3.948157281E-2,3.089133978E0
4.079098764E0,9.304491043E0,-4.905286431E-2,3.098705292E0
4.081480691E0,9.309276581E0,-4.905286431E-2,3.074777126E0
4.083862671E0,9.285347939E0,-4.965107143E-2,3.050848961E0
4.086244650E0,9.285946846E0,-5.922235921E-2,3.026920557E0
4.088626577E0,9.285946846E0,-7.357929647E-2,3.026920557E0
4.091008556E0,9.285946846E0,-6.879365444E-2,3.012563705E0
4.093390535E0,9.271589279E0,-8.793623000E-2,3.002992392E0
4.095772514E0,9.276374817E0,-8.793623000E-2,3.002992392E0
4.098154493E0,9.257232666E0,-8.853443712E-2,2.998206854E0
4.100536421E0,9.262018204E0,-7.896314561E-2,2.979064226E0
4.102918400E0,9.242876053E0,-9.332008660E-2,2.993421078E0
4.105300379E0,9.233304024E0,-8.374879509E-2,2.993421078E0
4.107682358E0,9.238089561E0,-7.896314561E-2,2.993421078E0
4.110064285E0,9.242876053E0,-8.374879509E-2,3.007778168E0
4.112446264E0,9.257232666E0,-9.272187948E-2,3.012563705E0
4.114828243E0,9.252447128E0,-9.810572863E-2,3.002992392E0
4.117210223E0,9.242876053E0,-9.332008660E-2,3.031706333E0
4.119592150E0,9.252447128E0,-1.022931710E-1,3.036491871E0
4.121974129E0,9.252447128E0,-9.272187948E-2,3.050848961E0
4.124356108E0,9.257232666E0,-9.750752151E-2,3.055634499E0
4.126738087E0,9.252447128E0,-1.022931710E-1,3.041277647E0
4.129120014E0,9.253045082E0,-1.118644550E-1,3.051447153E0
4.131501993E0,9.262018204E0,-1.070788130E-1,3.051447153E0
4.133883973E0,9.266803741E0,-8.793623000E-2,3.065205812E0
4.136265900E0,9.276374817E0,-1.070788130E-1,3.084348440E0
4.138647879E0,9.276374817E0,-1.022931710E-1,3.084348440E0
4.141029858E0,9.272188187E0,-1.112662554E-1,3.099303484E0
4.143411837E0,9.281160355E0,-1.064806059E-1,3.098705292E0
4.145793764E0,9.300901413E0,-1.208375469E-1,3.118446112E0
4.148175743E0,9.305686951E0,-1.208375469E-1,3.128017426E0
4.150557723E0,9.305686951E0,-1.160518974E-1,3.128017426E0
4.152939702E0,9.305686951E0,-1.250249892E-1,3.147160053E0
4.155321629E0,9.324830055E0,-1.298106313E-1,3.147160053E0
4.157703608E0,9.334401131E0,-1.393819153E-1,3.151945591E0
4.160085587E0,9.334401131E0,-1.537388563E-1,3.171088219E0
4.162467566E0,9.353543282E0,-1.435693651E-1,3.166302681E0
4.164849493E0,9.343972206E0,-1.483550072E-1,3.180659533E0
4.167231473E0,9.339186668E0,-1.441675574E-1,3.185445070E0
4.169613452E0,9.358329773E0,-1.483550072E-1,3.209373474E0
4.171995431E0,9.353543282E0,-1.579262912E-1,3.204587698E0
4.174377358E0,9.348757744E0,-1.387837082E-1,3.228515863E0
4.176759337E0,9.339186668E0,-1.435693651E-1,3.238087177E0
4.179141316E0,9.329615593E0,-1.292124242E-1,3.233301640E0
4.181523296E0,9.315258980E0,-1.106680483E-1,3.223730326E0
4.183905223E0,9.310472488E0,-1.202393398E-1,3.238087177E0
4.186287202E0,9.286544800E0,-1.058823988E-1,3.218944550E0
4.188669181E0,9.300901413E0,-1.106680483E-1,3.214159012E0
4.191051160E0,9.271589279E0,-9.690931439E-2,3.199203968E0
4.193433087E0,9.252447128E0,-9.212367237E-2,3.180061340E0
4.195815066E0,9.252447128E0,-8.255238086E-2,3.184846878E0
4.198197046E0,9.257232666E0,-8.255238086E-2,3.160918713E0
4.200579025E0,9.223732948E0,-8.793623000E-2,3.156133175E0
4.202960952E0,9.223732948E0,-8.315058798E-2,3.136990547E0
4.205342931E0,9.229117393E0,-1.022931710E-1,3.123231649E0
4.207724910E0,9.209376335E0,-8.793623000E-2,3.132204771E0
4.210106889E0,9.219545364E0,-1.070788130E-1,3.108874798E0
4.212488816E0,9.219545364E0,-1.022931710E-1,3.113660574E0
4.214870796E0,9.219545364E0,-1.262213886E-1,3.099303484E0
4.217252775E0,9.195617676E0,-1.316052526E-1,3.094517946E0
4.219634754E0,9.224330902E0,-1.501496136E-1,3.094517946E0
4.222016681E0,9.238688469E0,-1.549352705E-1,3.084946632E0
4.224398660E0,9.219545364E0,-1.459621787E-1,3.075375319E0
4.226780639E0,9.224929810E0,-1.645065546E-1,3.075375319E0
4.229162618E0,9.234500885E0,-1.645065546E-1,3.080160856E0
4.231544546E0,9.257830620E0,-1.597209126E-1,3.089732170E0
4.233926525E0,9.253045082E0,-1.549352705E-1,3.080160856E0
4.236308504E0,9.272188187E0,-1.591227055E-1,3.084946632E0
4.238690483E0,9.282357216E0,-1.686939895E-1,3.089732170E0
4.241072410E0,9.296115875E0,-1.686939895E-1,3.094517946E0
4.243454389E0,9.281759262E0,-1.591227055E-1,3.084946632E0
4.245836368E0,9.282357216E0,-1.734796464E-1,3.123231649E0
4.248218348E0,9.282357216E0,-1.686939895E-1,3.118446112E0
4.250600275E0,9.282357216E0,-1.782652885E-1,3.118446112E0
4.252982254E0,9.277571678E0,-1.830509305E-1,3.123231649E0
4.255364233E0,9.268000603E0,-1.734796464E-1,3.128017426E0
4.257746212E0,9.268000603E0,-1.686939895E-1,3.156731367E0
4.260128139E0,9.272786140E0,-1.734796464E-1,3.151945591E0
4.262510118E0,9.287142754E0,-1.680957973E-1,3.175873756E0
4.264892098E0,9.276973724E0,-1.585244983E-1,3.199802160E0
4.267274077E0,9.287142754E0,-1.776670814E-1,3.223730326E0
4.269656004E0,9.277571678E0,-1.680957973E-1,3.238087177E0
4.272037983E0,9.291330338E0,-1.393819153E-1,3.233301640E0
4.274419962E0,9.300901413E0,-1.345962733E-1,3.252444267E0
4.276801941E0,9.300901413E0,-1.435693651E-1,3.271586657E0
4.279183868E0,9.305686951E0,-1.292124242E-1,3.266801119E0
4.281565848E0,9.324830055E0,-1.483550072E-1,3.266801119E0
4.283947827E0,9.339186668E0,-1.483550072E-1,3.271586657E0
4.286329806E0,9.353543282E0,-1.477568001E-1,3.271586657E0
4.288711733E0,9.372686386E0,-1.621137410E-1,3.252444267E0
4.291093712E0,9.372686386E0,-1.621137410E-1,3.223730326E0
4.293475691E0,9.377471924E0,-1.573280841E-1,3.223730326E0
4.295857671E0,9.377471924E0,-1.716850251E-1,3.228515863E0
4.298239598E0,9.387042999E0,-1.668993831E-1,3.233301640E0
4.300621577E0,9.367900848E0,-1.668993831E-1,3.242872953E0
4.303003556E0,9.377471924E0,-1.525424421E-1,3.238087177E0
4.305385535E0,9.348757744E0,-1.387837082E-1,3.252444267E0
4.307767462E0,9.358329773E0,-1.525424421E-1,3.281157970E0
4.310149441E0,9.348757744E0,-1.381855011E-1,3.295515060E0
4.312531421E0,9.348757744E0,-1.094716340E-1,3.333201885E0
4.314913400E0,9.358329773E0,-1.094716340E-1,3.342773199E0
4.317295327E0,9.363115311E0,-1.142572835E-1,3.333201885E0
4.319677306E0,9.367302895E0,-1.094716340E-1,3.285345554E0
4.322059285E0,9.367302895E0,-1.148554832E-1,3.237488985E0
4.324441264E0,9.372686386E0,-1.292124242E-1,3.175873756E0
4.326823191E0,9.343972206E0,-1.298106313E-1,3.132802963E0
4.329205171E0,9.343972206E0,-1.345962733E-1,3.123231649E0
4.331587150E0,9.339186668E0,-1.441675574E-1,3.137588739E0
4.333969129E0,9.343972206E0,-1.441675574E-1,3.132802963E0
4.336351056E0,9.343972206E0,-1.441675574E-1,3.147160053E0
4.338733035E0,9.324830055E0,-1.441675574E-1,3.156731367E0
4.341115014E0,9.315258980E0,-1.537388563E-1,3.151945591E0
4.343496993E0,9.324830055E0,-1.633101404E-1,3.171088219E0
4.345878921E0,9.320044518E0,-1.489532143E-1,3.171088219E0
4.348260900E0,9.320044518E0,-1.585244983E-1,3.195016384E0
4.350642879E0,9.296115875E0,-1.585244983E-1,3.214159012E0
4.353024858E0,9.305686951E0,-1.393819153E-1,3.223730326E0
4.355406785E0,9.310472488E0,-1.387837082E-1,3.247658491E0
4.357788764E0,9.300901413E0,-1.244267747E-1,3.290729284E0
4.360170743E0,9.310472488E0,-1.292124242E-1,3.295515060E0
4.362552723E0,9.300901413E0,-1.244267747E-1,3.305086374E0
4.364934650E0,9.296115875E0,-1.148554832E-1,3.324228764E0
4.367316629E0,9.296115875E0,-1.148554832E-1,3.329014540E0
4.369698608E0,9.281759262E0,-1.154536903E-1,3.314657450E0
4.372080587E0,9.286544800E0,-1.244267747E-1,3.314657450E0
4.374462514E0,9.300901413E0,-1.052841991E-1,3.314059258E0
4.376844493E0,9.305686951E0,-1.100698411E-1,3.314657450E0
4.379226473E0,9.310472488E0,-1.052841991E-1,3.323630571E0
4.381608452E0,9.295517921E0,-9.571290761E-2,3.333201885E0
4.383990379E0,9.295517921E0,-9.092725813E-2,3.328416348E0
4.386372358E0,9.291330338E0,-9.571290761E-2,3.333201885E0
4.388754337E0,9.309874535E0,-9.571290761E-2,3.333201885E0
4.391136316E0,9.314660072E0,-7.178468257E-2,3.337987661E0
4.393518243E0,9.290732384E0,-8.135596663E-2,3.328416348E0
4.395900223E0,9.305088997E0,-7.178468257E-2,3.309273720E0
4.398282202E0,9.314660072E0,-6.221338734E-2,3.314059258E0
4.400664181E0,9.309874535E0,-8.135596663E-2,3.309273720E0
4.403046108E0,9.314660072E0,-6.221338734E-2,3.294916868E0
4.405428087E0,9.319445610E0,-6.699903309E-2,3.304488182E0
4.407810066E0,9.319445610E0,-7.178468257E-2,3.280559778E0
4.410192046E0,9.338588715E0,-9.092725813E-2,3.270988464E0
4.412573973E0,9.343374252E0,-9.571290761E-2,3.270988464E0
4.414955952E0,9.352945328E0,-7.178468257E-2,3.261417150E0
4.417337931E0,9.381659508E0,-9.511470050E-2,3.251846075E0
4.419719910E0,9.376873970E0,-1.094716340E-1,3.237488985E0
4.422101837E0,9.382257462E0,-1.238285750E-1,3.232703447E0
4.424483816E0,9.386445045E0,-1.190429255E-1,3.227917671E0
4.426865796E0,9.396614075E0,-1.238285750E-1,3.227917671E0
4.429247775E0,9.406186104E0,-1.286142170E-1,3.227917671E0
4.431629702E0,9.401400566E0,-1.429711580E-1,3.218944550E0
4.434011681E0,9.415757179E0,-1.573280841E-1,3.228515863E0
4.436393660E0,9.420542717E0,-1.573280841E-1,3.209373474E0
4.438775639E0,9.420542717E0,-1.477568001E-1,3.204587698E0
4.441157566E0,9.410971642E0,-1.573280841E-1,3.218944550E0
4.443539546E0,9.391828537E0,-1.573280841E-1,3.228515863E0
4.445921525E0,9.382257462E0,-1.621137410E-1,3.223730326E0
4.448303504E0,9.372686386E0,-1.531406492E-1,3.223730326E0
4.450685431E0,9.358329773E0,-1.483550072E-1,3.228515863E0
4.453067410E0,9.329615593E0,-1.483550072E-1,3.214159012E0
4.455449389E0,9.320044518E0,-1.393819153E-1,3.238087177E0
4.457831368E0,9.300901413E0,-1.537388563E-1,3.233301640E0
4.460213348E0,9.277571678E0,-1.585244983E-1,3.228515863E0
4.462595275E0,9.263215065E0,-1.543370634E-1,3.209373474E0
4.464977254E0,9.248259544E0,-1.208375469E-1,3.223730326E0
4.467359233E0,9.233902931E0,-1.208375469E-1,3.233301640E0
4.469741160E0,9.233902931E0,-1.160518974E-1,3.223730326E0
4.472123139E0,9.214759827E0,-1.070788130E-1,3.214159012E0
4.474505118E0,9.200403214E0,-9.750752151E-2,3.228515863E0
4.476887098E0,9.200403214E0,-8.793623000E-2,3.228515863E0
4.479269025E0,9.175876617E0,-7.357929647E-2,3.223132133E0
4.481651004E0,9.185447693E0,-7.357929647E-2,3.227917671E0
4.484032983E0,9.190233231E0,-6.879365444E-2,3.242274761E0
4.486414962E0,9.204590797E0,-6.879365444E-2,3.237488985E0
4.488796889E0,9.190233231E0,-7.357929647E-2,3.247060299E0
4.491178868E0,9.204590797E0,-5.443671346E-2,3.251846075E0
4.493560848E0,9.214161873E0,-6.340979785E-2,3.256631613E0
4.495942827E0,9.218947411E0,-7.776673883E-2,3.247060299E0
4.498324754E0,9.238089561E0,-7.298108935E-2,3.251846075E0
4.500706733E0,9.233304024E0,-8.733802289E-2,3.247060299E0
4.503088712E0,9.247661591E0,-8.733802289E-2,3.256631613E0
4.505470691E0,9.238688469E0,-9.690931439E-2,3.252444267E0
4.507852671E0,9.253045082E0,-9.212367237E-2,3.247060299E0
4.510234598E0,9.248259544E0,-1.016949639E-1,3.276372433E0
4.512616577E0,9.253045082E0,-9.690931439E-2,3.262015581E0
4.514998556E0,9.253045082E0,-1.064806059E-1,3.257229805E0
4.517380483E0,9.257830620E0,-1.154536903E-1,3.290729284E0
4.519762462E0,9.272188187E0,-1.250249892E-1,3.285943747E0
4.522144441E0,9.267401695E0,-1.106680483E-1,3.281157970E0
4.524526421E0,9.253045082E0,-1.250249892E-1,3.285943747E0
4.526908400E0,9.267401695E0,-1.393819153E-1,3.300300598E0
4.529290327E0,9.253045082E0,-1.345962733E-1,3.285943747E0
4.531672306E0,9.262616158E0,-1.345962733E-1,3.276372433E0
4.534054285E0,9.281759262E0,-1.441675574E-1,3.276372433E0
4.536436264E0,9.276973724E0,-1.393819153E-1,3.276372433E0
4.538818191E0,9.291330338E0,-1.393819153E-1,3.281157970E0
4.541200171E0,9.315258980E0,-1.292124242E-1,3.271586657E0
4.543582150E0,9.324830055E0,-1.531406492E-1,3.271586657E0
4.545964129E0,9.329615593E0,-1.579262912E-1,3.271586657E0
4.548346056E0,9.334999084E0,-1.627119333E-1,3.281157970E0
4.550728035E0,9.358927727E0,-1.668993831E-1,3.290729284E0
4.553110014E0,9.373284340E0,-1.716850251E-1,3.295515060E0
4.555491941E0,9.382257462E0,-1.621137410E-1,3.319443226E0
4.557873921E0,9.377471924E0,-1.668993831E-1,3.300300598E0
4.560255900E0,9.401400566E0,-1.663011760E-1,3.305086374E0
4.562637879E0,9.401400566E0,-1.567298770E-1,3.324228764E0
4.565019806E0,9.410971642E0,-1.471585929E-1,3.333800077E0
4.567401785E0,9.425328255E0,-1.471585929E-1,3.333800077E0
4.569783764E0,9.454042435E0,-1.609173268E-1,3.338585854E0
4.572165743E0,9.468399048E0,-1.322034448E-1,3.328416348E0
4.574547671E0,9.468399048E0,-1.322034448E-1,3.337987661E0
4.576929650E0,9.486943245E0,-1.274178028E-1,3.347558975E0
4.579311629E0,9.492327690E0,-1.322034448E-1,3.352344513E0
4.581693608E0,9.506086349E0,-1.124626622E-1,3.357130051E0
4.584075587E0,9.515657425E0,-1.268195957E-1,3.371487141E0
4.586457514E0,9.516255379E0,-1.507478207E-1,3.372085333E0
4.588839493E0,9.516255379E0,-1.411765367E-1,3.390629768E0
4.591221473E0,9.511469841E0,-1.507478207E-1,3.386442184E0
4.593603452E0,9.516255379E0,-1.555334777E-1,3.391227961E0
4.595985379E0,9.511469841E0,-1.651047617E-1,3.391227961E0
4.598367358E0,9.497113228E0,-1.411765367E-1,3.391227961E0
4.600749337E0,9.482755661E0,-1.411765367E-1,3.396013498E0
4.603131316E0,9.482157707E0,-1.130608693E-1,3.381058455E0
4.605513243E0,9.463613510E0,-1.369891018E-1,3.391227961E0
4.607895223E0,9.472586632E0,-1.082752272E-1,3.371487141E0
4.610277202E0,9.463015556E0,-1.178465188E-1,3.376272678E0
4.612659181E0,9.458230019E0,-1.178465188E-1,3.352344513E0
4.615041108E0,9.448657990E0,-9.870393574E-2,3.342773199E0
4.617423087E0,9.443872452E0,-1.130608693E-1,3.352344513E0
4.619805066E0,9.443872452E0,-1.136590764E-1,3.342773199E0
4.622187046E0,9.430113792E0,-1.232303679E-1,3.337987661E0
4.624568973E0,9.419944763E0,-1.040877849E-1,3.337987661E0
4.626950952E0,9.415757179E0,-1.232303679E-1,3.328416348E0
4.629332931E0,9.415159225E0,-1.136590764E-1,3.337987661E0
4.631714910E0,9.391828537E0,-1.142572835E-1,3.328416348E0
4.634096837E0,9.415757179E0,-1.232303679E-1,3.337987661E0
4.636478816E0,9.419944763E0,-1.136590764E-1,3.342773199E0
4.638860796E0,9.410971642E0,-1.280160099E-1,3.343371391E0
4.641242775E0,9.410971642E0,-1.232303679E-1,3.347558975E0
4.643624702E0,9.410971642E0,-1.280160099E-1,3.333800077E0
4.646006681E0,9.420542717E0,-1.328016520E-1,3.357728481E0
4.648388660E0,9.415757179E0,-1.375873089E-1,3.352942705E0
4.650770639E0,9.430113792E0,-1.280160099E-1,3.347558975E0
4.653152566E0,9.425328255E0,-1.567298770E-1,3.352942705E0
4.655534546E0,9.439684868E0,-1.561316848E-1,3.362514019E0
4.657916525E0,9.434899330E0,-1.609173268E-1,3.343371391E0
4.660298504E0,9.430113792E0,-1.609173268E-1,3.362514019E0
4.662680431E0,9.444471359E0,-1.609173268E-1,3.352942705E0
4.665062410E0,9.439684868E0,-1.513460279E-1,3.372085333E0
4.667444389E0,9.449256897E0,-1.561316848E-1,3.372085333E0
4.669826368E0,9.444471359E0,-1.561316848E-1,3.372085333E0
4.672208296E0,9.458827972E0,-1.465603858E-1,3.376870871E0
4.674590275E0,9.449256897E0,-1.609173268E-1,3.376870871E0
4.676972254E0,9.454042435E0,-1.513460279E-1,3.400799274E0
4.679354233E0,9.458827972E0,-1.561316848E-1,3.391227961E0
4.681736160E0,9.454042435E0,-1.752742529E-1,3.396013498E0
4.684118139E0,9.434899330E0,-1.704886109E-1,3.405584812E0
4.686500118E0,9.440283775E0,-1.752742529E-1,3.410370588E0
4.688882098E0,9.434899330E0,-1.657029688E-1,3.415156126E0
4.691264077E0,9.425926208E0,-1.752742529E-1,3.415156126E0
4.693646004E0,9.420542717E0,-1.657029688E-1,3.410370588E0
4.696027983E0,9.425328255E0,-1.657029688E-1,3.410370588E0
4.698409962E0,9.411569595E0,-1.752742529E-1,3.410370588E0
4.700791889E0,9.401400566E0,-1.423729509E-1,3.400799274E0
4.703173868E0,9.401400566E0,-1.328016520E-1,3.386442184E0
4.705555848E0,9.396614075E0,-1.375873089E-1,3.396013498E0
4.707937827E0,9.382257462E0,-1.280160099E-1,3.372085333E0
4.710319806E0,9.387042999E0,-1.328016520E-1,3.367299557E0
4.712701733E0,9.382257462E0,-1.136590764E-1,3.352344513E0
4.715083712E0,9.357730865E0,-1.046859920E-1,3.328416348E0
4.717465691E0,9.362516403E0,-9.990034252E-2,3.328416348E0
4.719847618E0,9.343374252E0,-9.032905847E-2,3.314059258E0
4.722229598E0,9.352945328E0,-7.597211748E-2,3.323630571E0
4.724611577E0,9.357730865E0,-8.075776696E-2,3.309273720E0
4.726993556E0,9.348159790E0,-8.554340899E-2,3.309273720E0
4.729375535E0,9.376873970E0,-8.554340899E-2,3.328416348E0
4.731757462E0,9.372088432E0,-7.597211748E-2,3.318845034E0
4.734139441E0,9.381659508E0,-7.597211748E-2,3.323630571E0
4.736521421E0,9.381659508E0,-8.554340899E-2,3.333201885E0
4.738903348E0,9.396016121E0,-9.451649338E-2,3.342773199E0
4.741285327E0,9.419944763E0,-9.451649338E-2,3.357130051E0
4.743667306E0,9.434301376E0,-9.870393574E-2,3.357130051E0
4.746049285E0,9.463015556E0,-1.082752272E-1,3.376272678E0
4.748431264E0,9.463015556E0,-9.391828626E-2,3.371487141E0
4.750813191E0,9.486943245E0,-9.810572863E-2,3.385843992E0
4.753195171E0,9.501300812E0,-1.076770201E-1,3.390629768E0
4.755577150E0,9.525228500E0,-1.076770201E-1,3.381058455E0
4.757959129E0,9.525228500E0,-9.332008660E-2,3.376272678E0
4.760341056E0,9.534799576E0,-9.750752151E-2,3.381058455E0
4.762723035E0,9.564111710E0,-1.022931710E-1,3.400201082E0
4.765105014E0,9.559326172E0,-8.793623000E-2,3.404986620E0
4.767486993E0,9.564111710E0,-9.272187948E-2,3.395415306E0
4.769868921E0,9.568299294E0,-7.357929647E-2,3.428914785E0
4.772250900E0,9.592227936E0,-6.819544733E-2,3.419343472E0
4.774632879E0,9.577870369E0,-7.776673883E-2,3.424129248E0
4.777014858E0,9.587442398E0,-7.298108935E-2,3.438486099E0
4.779396785E0,9.587442398E0,-6.819544733E-2,3.448057413E0
4.781778764E0,9.601799011E0,-8.255238086E-2,3.457628727E0
4.784160743E0,9.597611427E0,-8.733802289E-2,3.462414265E0
4.786542723E0,9.602396965E0,-9.212367237E-2,3.452843189E0
4.788924650E0,9.607182503E0,-1.112662554E-1,3.452843189E0
4.791306629E0,9.630513191E0,-9.152546525E-2,3.448057413E0
4.793688608E0,9.620942116E0,-9.212367237E-2,3.428914785E0
4.796070587E0,9.620942116E0,-7.238288224E-2,3.443271875E0
4.798452514E0,9.630513191E0,-6.281159073E-2,3.438486099E0
4.800834493E0,9.630513191E0,-5.324030295E-2,3.433700562E0
4.803216473E0,9.635298729E0,-5.802594870E-2,3.433700562E0
4.805598452E0,9.635298729E0,-5.802594870E-2,3.438486099E0
4.807980431E0,9.635298729E0,-4.845465720E-2,3.452843189E0
4.810362358E0,9.654440880E0,-5.324030295E-2,3.438486099E0
4.812744337E0,9.635298729E0,-5.802594870E-2,3.443271875E0
4.815126316E0,9.635298729E0,-5.324030295E-2,3.448057413E0
4.817508296E0,9.616155624E0,-4.426721856E-2,3.448057413E0
4.819890223E0,9.601799011E0,-4.905286431E-2,3.448057413E0
4.822272202E0,9.611370087E0,-5.862415582E-2,3.443271875E0
4.824654181E0,9.587442398E0,-4.426721856E-2,3.438486099E0
4.827036108E0,9.563513756E0,-5.922235921E-2,3.438486099E0
4.829418087E0,9.587442398E0,-5.862415582E-2,3.448057413E0
4.831800066E0,9.568299294E0,-5.443671346E-2,3.438486099E0
4.834182046E0,9.582656860E0,-7.298108935E-2,3.433700562E0
4.836564025E0,9.587442398E0,-7.298108935E-2,3.428914785E0
4.838945952E0,9.588040352E0,-8.255238086E-2,3.448057413E0
4.841327931E0,9.611968994E0,-9.212367237E-2,3.467200041E0
4.843709910E0,9.621540070E0,-1.010967568E-1,3.462414265E0
4.846091889E0,9.640682220E0,-1.250249892E-1,3.467200041E0
4.848473816E0,9.674181938E0,-1.148554832E-1,3.491128206E0
4.850855796E0,9.678967476E0,-1.387837082E-1,3.495913982E0
4.853237775E0,9.698110580E0,-1.483550072E-1,3.510270834E0
4.855619754E0,9.727422714E0,-1.668993831E-1,3.510270834E0
4.858001681E0,9.731609344E0,-1.477568001E-1,3.510270834E0
4.860383660E0,9.726823807E0,-1.477568001E-1,3.524627686E0
4.862765639E0,9.741779327E0,-1.764706671E-1,3.515056372E0
4.865147618E0,9.741779327E0,-1.812563092E-1,3.530011654E0
4.867529546E0,9.741779327E0,-1.716850251E-1,3.519842148E0
4.869911525E0,9.736394882E0,-1.429711580E-1,3.524627686E0
4.872293504E0,9.736394882E0,-1.429711580E-1,3.543770313E0
4.874675483E0,9.707681656E0,-1.333998591E-1,3.553341627E0
4.877057410E0,9.712467194E0,-1.190429255E-1,3.582055569E0
4.879439389E0,9.707083702E0,-7.597211748E-2,3.582055569E0
4.881821368E0,9.692726135E0,-7.118647546E-2,3.577269793E0
4.884203348E0,9.683155060E0,-6.699903309E-2,3.577269793E0
4.886585327E0,9.678369522E0,-6.161518395E-2,3.601198196E0
4.888967254E0,9.658628464E0,-2.392822690E-2,3.595814228E0
4.891349233E0,9.668798447E0,-2.871387079E-2,3.591028690E0
4.893731212E0,9.649057388E0,-2.392822690E-2,3.576671600E0
4.896113191E0,9.644869804E0,-3.349951655E-2,3.567698479E0
4.898495118E0,9.629914284E0,-5.383851007E-3,3.552743435E0
4.900877098E0,9.625128746E0,-1.495514158E-2,3.519243956E0
4.903259077E0,9.615557671E0,-1.076770201E-2,3.500101328E0
4.905641056E0,9.620343208E0,-2.033899166E-2,3.480958700E0
4.908022983E0,9.610772133E0,-1.555334684E-2,3.471387386E0
4.910404962E0,9.601201057E0,-1.076770201E-2,3.466601849E0
4.912786941E0,9.610772133E0,-2.512463741E-2,3.466601849E0
4.915168921E0,9.605986595E0,-2.033899166E-2,3.509672642E0
4.917550848E0,9.601799011E0,-3.888336942E-2,3.529413462E0
4.919932827E0,9.611370087E0,-5.802594870E-2,3.577269793E0
4.922314806E0,9.592227936E0,-5.324030295E-2,3.615555048E0
4.924696785E0,9.606584549E0,-6.221338734E-2,3.663411379E0
4.927078712E0,9.630513191E0,-5.264209956E-2,3.672982693E0
