"Time (s)","Gyroscope x (rad/s)","Gyroscope y (rad/s)","Gyroscope z (rad/s)"
5.304829600E-2,-2.137965336E-2,5.803049076E-3,-4.581354558E-3
5.543022300E-2,-1.893626526E-2,4.581354558E-3,-5.803049076E-3
5.781220200E-2,-1.527118124E-2,7.024743594E-3,-4.581354558E-3
6.019418100E-2,-1.267508045E-2,4.581354558E-3,-9.162708884E-4
6.257616000E-2,-9.009997360E-3,2.290677279E-3,1.527118147E-3
6.495808700E-2,-2.748812549E-3,-2.596100792E-3,1.679830020E-3
6.734006600E-2,5.955760833E-3,-9.773556143E-3,4.123218823E-3
6.972204600E-2,1.221694518E-2,-1.466033421E-2,5.344913341E-3
7.210397300E-2,1.969982497E-2,-1.588202827E-2,1.679830020E-3
7.448595200E-2,2.702999115E-2,-1.099525020E-2,-7.635590737E-4
7.686793100E-2,3.313846514E-2,-3.665083554E-3,-3.206948051E-3
7.924991000E-2,3.924693540E-2,9.773556143E-3,-6.872031838E-3
8.163183700E-2,4.046862945E-2,2.305948362E-2,-6.872031838E-3
8.401381600E-2,3.909422457E-2,3.756710514E-2,-9.468132630E-3
8.639579600E-2,3.787253052E-2,4.856235534E-2,-1.191152167E-2
8.877772300E-2,3.527642787E-2,5.940489471E-2,-1.068982668E-2
9.115970200E-2,3.283303976E-2,6.429167092E-2,-8.246437646E-3
9.354168100E-2,3.283303976E-2,5.696150661E-2,-5.803049076E-3
9.592360800E-2,3.420744836E-2,4.978405312E-2,-4.581354558E-3
9.830558700E-2,3.542914242E-2,4.001049697E-2,-3.206948051E-3
1.006875660E-1,3.924693540E-2,2.916795574E-2,-1.985253533E-3
1.030695460E-1,4.062134400E-2,1.466033421E-2,4.581354442E-4
1.054514730E-1,4.306473210E-2,4.886778072E-3,4.581354442E-4
1.078334520E-1,4.443913698E-2,-4.734066315E-3,6.108472589E-4
1.102154310E-1,4.443913698E-2,-1.328592747E-2,6.108472589E-4
1.125973580E-1,4.321744293E-2,-1.817270555E-2,5.497625098E-3
1.149793370E-1,3.955236077E-2,-2.290677279E-2,7.941014133E-3
1.173613160E-1,3.588727489E-2,-2.412846684E-2,9.162709117E-3
1.197432960E-1,3.222219273E-2,-2.779355086E-2,1.038440317E-2
1.221252230E-1,2.718270384E-2,-3.268032894E-2,9.162709117E-3
1.245072020E-1,2.351761982E-2,-3.756710514E-2,1.282779220E-2
1.268891810E-1,1.740914769E-2,-4.367557913E-2,1.404948719E-2
1.292711080E-1,1.252236869E-2,-4.978405312E-2,1.282779220E-2
1.316530870E-1,8.857285604E-3,-5.940489471E-2,1.282779220E-2
1.340350660E-1,6.413896102E-3,-6.917845458E-2,1.404948719E-2
1.364169930E-1,3.970507067E-3,-8.017370105E-2,1.282779220E-2
1.387989730E-1,3.970507067E-3,-8.735115826E-2,1.038440317E-2
1.411809520E-1,3.054236295E-4,-9.223793447E-2,6.719320081E-3
1.435629310E-1,-2.290677279E-3,-9.239064902E-2,5.497625098E-3
1.459448580E-1,-5.955760833E-3,-8.750387281E-2,1.832541777E-3
1.483268370E-1,-1.221694518E-2,-7.788302749E-2,-6.108472589E-4
1.507088160E-1,-1.481304597E-2,-6.810946763E-2,-7.635590737E-4
1.530907430E-1,-1.985253580E-2,-5.360184610E-2,-3.206948051E-3
1.554727230E-1,-2.107422985E-2,-4.275930673E-2,-4.428642802E-3
1.578547020E-1,-2.244863659E-2,-3.176405653E-2,-4.428642802E-3
1.602366810E-1,-2.122694254E-2,-2.214321308E-2,-5.803049076E-3
1.626186080E-1,-1.511846948E-2,-1.114796288E-2,-4.581354558E-3
1.650005870E-1,-1.023169141E-2,-3.817795310E-3,-3.359660041E-3
1.673825660E-1,-3.054236295E-4,1.068982761E-3,-5.803049076E-3
1.697644930E-1,7.177455351E-3,4.734066315E-3,-1.985253533E-3
1.721464730E-1,1.450762246E-2,1.206423342E-2,4.581354442E-4
1.745284520E-1,2.199050039E-2,1.939439960E-2,1.679830020E-3
1.769103790E-1,2.809897438E-2,2.428117767E-2,4.123218823E-3
1.792923580E-1,3.313846514E-2,2.550287358E-2,7.788302377E-3
1.816743370E-1,3.680354729E-2,2.794626169E-2,1.145338640E-2
1.840563160E-1,4.306473210E-2,2.687728032E-2,1.389677543E-2
1.864382430E-1,4.672981426E-2,2.687728032E-2,1.511846948E-2
1.888202230E-1,4.810422286E-2,2.199050039E-2,1.756185852E-2
1.912022020E-1,4.688252881E-2,1.236965694E-2,1.649287529E-2
1.935841290E-1,4.810422286E-2,3.817795310E-3,1.771457121E-2
1.959661080E-1,4.581354558E-2,-4.734066315E-3,2.015795931E-2
1.983480870E-1,4.703523964E-2,-9.468132630E-3,2.015795931E-2
2.007300660E-1,4.703523964E-2,-1.801999472E-2,2.137965336E-2
2.031119930E-1,4.840964451E-2,-2.641914412E-2,2.382304333E-2
2.054939730E-1,4.718795046E-2,-3.130592033E-2,2.641914412E-2
2.078759520E-1,4.718795046E-2,-3.619270027E-2,2.764083818E-2
2.102578790E-1,4.718795046E-2,-3.863608837E-2,2.886253223E-2
2.126398580E-1,4.963133857E-2,-4.214845970E-2,2.764083818E-2
2.150218370E-1,5.344913527E-2,-4.214845970E-2,2.886253223E-2
2.174037640E-1,5.589252338E-2,-4.337015375E-2,2.886253223E-2
2.197857430E-1,5.833591148E-2,-4.337015375E-2,2.886253223E-2
2.221677230E-1,6.093201414E-2,-4.581354558E-2,2.886253223E-2
2.245497020E-1,6.337540597E-2,-4.459185153E-2,2.886253223E-2
2.269316290E-1,6.581879407E-2,-4.581354558E-2,2.886253223E-2
2.293136080E-1,6.581879407E-2,-5.054761097E-2,2.764083818E-2
2.316955870E-1,6.581879407E-2,-5.176930502E-2,2.764083818E-2
2.340775140E-1,6.581879407E-2,-5.299099907E-2,2.519745007E-2
2.364594930E-1,6.459710002E-2,-5.421269313E-2,2.397575416E-2
2.388414730E-1,6.093201414E-2,-5.192201585E-2,2.031067200E-2
2.412234520E-1,5.589252338E-2,-4.337015375E-2,1.908897609E-2
2.436053790E-1,4.474456236E-2,-3.741439432E-2,2.275406010E-2
2.459873580E-1,3.466558084E-2,-2.901524492E-2,2.137965336E-2
2.483693370E-1,2.596100792E-2,-2.061609551E-2,1.771457121E-2
2.507512640E-1,1.725643501E-2,-1.084253844E-2,1.634016447E-2
2.531332430E-1,7.330167107E-3,-1.221694518E-3,1.511846948E-2
2.555152230E-1,-1.527118147E-4,4.734066315E-3,1.267508045E-2
2.578972020E-1,-5.192201585E-3,9.620844387E-3,1.145338640E-2
2.602791290E-1,-1.023169141E-2,1.435491070E-2,1.130067464E-2
2.626611080E-1,-1.389677543E-2,1.801999472E-2,1.130067464E-2
2.650430870E-1,-1.771457121E-2,2.168507688E-2,8.857285604E-3
2.674250140E-1,-2.260134928E-2,2.641914412E-2,1.130067464E-2
2.698069930E-1,-2.397575416E-2,3.130592033E-2,1.007897966E-2
2.721889730E-1,-2.764083818E-2,3.130592033E-2,8.857285604E-3
2.745709000E-1,-2.764083818E-2,3.252761811E-2,8.857285604E-3
2.769528790E-1,-2.764083818E-2,3.497100621E-2,8.857285604E-3
2.793348580E-1,-2.519745007E-2,3.741439432E-2,6.413896102E-3
2.817168370E-1,-2.519745007E-2,3.497100621E-2,5.192201585E-3
2.840987640E-1,-2.519745007E-2,3.497100621E-2,5.192201585E-3
2.864807430E-1,-2.519745007E-2,3.252761811E-2,3.970507067E-3
2.888627230E-1,-2.153236605E-2,3.130592033E-2,-9.162708884E-4
2.912446500E-1,-2.275406010E-2,3.130592033E-2,-4.734066315E-3
2.936266290E-1,-1.786728203E-2,3.130592033E-2,-7.024743594E-3
2.960086080E-1,-1.420219894E-2,3.008422814E-2,-1.313321572E-2
2.983905350E-1,-1.298050396E-2,2.886253223E-2,-1.572931744E-2
3.007725140E-1,-1.175880991E-2,2.886253223E-2,-1.939439960E-2
3.031544930E-1,-5.497625098E-3,2.764083818E-2,-2.428117767E-2
3.055364730E-1,-3.054236295E-3,2.641914412E-2,-2.535016090E-2
3.079184000E-1,-1.832541777E-3,2.519745007E-2,-2.916795574E-2
3.103003790E-1,6.108472589E-4,2.764083818E-2,-3.161134571E-2
3.126823580E-1,3.054236295E-3,2.519745007E-2,-3.527642787E-2
3.150643370E-1,1.832541777E-3,2.504473738E-2,-3.894151375E-2
3.174462640E-1,3.054236295E-3,2.153236605E-2,-4.382828996E-2
3.198282430E-1,6.108472589E-4,1.664558798E-2,-4.504998401E-2
3.222102230E-1,-1.832541777E-3,1.420219894E-2,-4.627167806E-2
3.245921500E-1,-1.832541777E-3,1.175880991E-2,-5.115845799E-2
3.269741290E-1,-4.275931045E-3,1.053711493E-2,-4.993676394E-2
3.293561080E-1,-3.054236295E-3,9.315420873E-3,-5.238015205E-2
3.317380350E-1,-4.275931045E-3,1.985253533E-3,-5.238015205E-2
3.341200140E-1,-4.275931045E-3,-4.581354442E-4,-5.360184610E-2
3.365019930E-1,-5.497625098E-3,-6.566607859E-3,-5.100574717E-2
3.388839730E-1,-6.719320081E-3,-1.252236869E-2,-4.856235534E-2
3.412659000E-1,-7.941014133E-3,-1.618745178E-2,-4.978405312E-2
3.436478790E-1,-6.566607859E-3,-2.229592577E-2,-4.734066129E-2
3.460298580E-1,-5.344913341E-3,-2.947338112E-2,-4.611896724E-2
3.484117850E-1,-6.566607859E-3,-3.680354729E-2,-4.245388508E-2
3.507937640E-1,-9.009997360E-3,-4.413371533E-2,-4.001049697E-2
3.531757430E-1,-1.007897966E-2,-4.886778072E-2,-3.634541109E-2
3.555577230E-1,-1.252236869E-2,-5.497625470E-2,-3.008422814E-2
3.579396500E-1,-1.007897966E-2,-5.497625470E-2,-2.764083818E-2
3.603216290E-1,-1.130067464E-2,-5.741964281E-2,-2.519745007E-2
3.627036080E-1,-1.252236869E-2,-5.971032009E-2,-2.397575416E-2
3.650855350E-1,-9.926267900E-3,-6.337540597E-2,-2.031067200E-2
3.674675140E-1,-1.114796288E-2,-6.581879407E-2,-2.031067200E-2
3.698494930E-1,-8.704573847E-3,-6.826218218E-2,-1.786728203E-2
3.722314730E-1,-5.039489828E-3,-6.581879407E-2,-1.664558798E-2
3.746134000E-1,-2.443389036E-3,-6.459710002E-2,-1.786728203E-2
3.769953790E-1,1.221694518E-3,-6.337540597E-2,-1.786728203E-2
3.793773580E-1,4.886778072E-3,-5.726693198E-2,-1.542389300E-2
3.817592850E-1,8.551862091E-3,-5.360184610E-2,-1.175880991E-2
3.841412640E-1,1.359135192E-2,-4.627167806E-2,-1.298050396E-2
3.865232430E-1,1.481304597E-2,-4.138490185E-2,-9.315420873E-3
3.889051710E-1,1.603474095E-2,-3.894151375E-2,-9.315420873E-3
3.912871500E-1,1.725643501E-2,-3.649812192E-2,-9.315420873E-3
3.936691290E-1,1.847812906E-2,-3.771981969E-2,-8.093725890E-3
3.960511080E-1,1.725643501E-2,-3.649812192E-2,-5.650337320E-3
3.984330350E-1,1.725643501E-2,-3.771981969E-2,-5.650337320E-3
4.008150140E-1,1.725643501E-2,-3.771981969E-2,-4.428642802E-3
4.031969930E-1,1.847812906E-2,-3.771981969E-2,-4.428642802E-3
4.055789210E-1,1.603474095E-2,-4.016320780E-2,-6.108472589E-4
4.079609000E-1,1.863084175E-2,-4.245388508E-2,1.832541777E-3
4.103428790E-1,1.725643501E-2,-4.245388508E-2,1.832541777E-3
4.127248580E-1,2.107422985E-2,-4.245388508E-2,3.054236295E-3
4.151067850E-1,2.107422985E-2,-4.123219103E-2,3.054236295E-3
4.174887640E-1,2.351761982E-2,-4.367557913E-2,3.054236295E-3
4.198707430E-1,2.473931387E-2,-4.245388508E-2,4.275931045E-3
4.222526710E-1,2.855710872E-2,-4.001049697E-2,5.497625098E-3
4.246346500E-1,3.222219273E-2,-4.245388508E-2,6.719320081E-3
4.270166290E-1,2.733541466E-2,-4.840964451E-2,1.404948719E-2
4.293985560E-1,2.122694254E-2,-5.085303262E-2,2.504473738E-2
4.317805350E-1,1.511846948E-2,-4.840964451E-2,3.481829539E-2
4.341625140E-1,6.413896102E-3,-4.001049697E-2,3.726168349E-2
4.365444410E-1,5.039489828E-3,-3.268032894E-2,3.848337755E-2
4.389264210E-1,1.374406274E-3,-2.657185495E-2,3.848337755E-2
4.413084000E-1,-1.221694518E-3,-2.672456764E-2,3.603998944E-2
4.436903790E-1,-4.886778072E-3,-3.512371704E-2,3.726168349E-2
4.460723060E-1,-5.955760833E-3,-4.489727318E-2,3.481829539E-2
4.484542850E-1,-4.734066315E-3,-5.329642445E-2,3.726168349E-2
4.508362640E-1,-3.512371797E-3,-6.184828654E-2,3.481829539E-2
4.532182430E-1,-9.162708884E-4,-6.795676053E-2,3.481829539E-2
4.556001710E-1,3.054236295E-4,-7.635590434E-2,3.497100621E-2
4.579821500E-1,4.123218823E-3,-8.246438205E-2,3.130592033E-2
4.603641290E-1,6.566607859E-3,-8.490777016E-2,3.252761811E-2
4.627460560E-1,1.023169141E-2,-8.735115826E-2,3.008422814E-2
4.651280350E-1,1.282779220E-2,-8.842013776E-2,2.764083818E-2
4.675100140E-1,1.527118124E-2,-8.964183182E-2,2.641914412E-2
4.698919410E-1,1.771457121E-2,-8.964183182E-2,2.519745007E-2
4.722739210E-1,2.015795931E-2,-9.086353332E-2,2.397575416E-2
4.746559000E-1,2.260134928E-2,-9.208522737E-2,2.153236605E-2
4.770378790E-1,2.260134928E-2,-9.697200358E-2,1.786728203E-2
4.794198060E-1,2.397575416E-2,-1.018587798E-1,1.542389300E-2
4.818017850E-1,2.260134928E-2,-1.055238619E-1,1.175880991E-2
4.841837640E-1,2.397575416E-2,-1.140757278E-1,9.315420873E-3
4.865656910E-1,2.397575416E-2,-1.200314835E-1,8.093725890E-3
4.889476710E-1,2.153236605E-2,-1.273616552E-1,8.093725890E-3
4.913296500E-1,1.786728203E-2,-1.322484314E-1,6.872031838E-3
4.937116290E-1,1.420219894E-2,-1.395785958E-1,5.650337320E-3
4.960935560E-1,1.298050396E-2,-1.432436854E-1,5.650337320E-3
4.984755350E-1,9.162709117E-3,-1.456870735E-1,6.872031838E-3
5.008575140E-1,6.719320081E-3,-1.491994411E-1,8.093725890E-3
5.032394410E-1,4.275931045E-3,-1.528645307E-1,1.053711493E-2
5.056214210E-1,-6.108472589E-4,-1.577513069E-1,1.298050396E-2
5.080034000E-1,-1.832541777E-3,-1.650814712E-1,1.801999472E-2
5.103853270E-1,-1.679830020E-3,-1.685938388E-1,2.046338283E-2
5.127673060E-1,-4.581354442E-4,-1.771457046E-1,2.290677279E-2
5.151492850E-1,-4.581354442E-4,-1.832541823E-1,2.412846684E-2
5.175312640E-1,-3.054236295E-4,-1.928750277E-1,2.779355086E-2
5.199131910E-1,9.162708884E-4,-1.965401024E-1,2.916795574E-2
5.222951710E-1,2.137965523E-3,-2.012741715E-1,3.038965166E-2
5.246771500E-1,-3.054236295E-4,-2.061609477E-1,3.038965166E-2
5.270591290E-1,1.068982761E-3,-2.086043358E-1,3.038965166E-2
5.294410560E-1,1.068982761E-3,-2.098260373E-1,2.916795574E-2
5.318230350E-1,1.068982761E-3,-2.086043358E-1,2.916795574E-2
5.342050140E-1,-1.527118147E-3,-2.061609477E-1,3.038965166E-2
5.365869410E-1,-2.748812549E-3,-2.061609477E-1,2.916795574E-2
5.389689210E-1,-3.970507067E-3,-2.050919682E-1,2.672456764E-2
5.413509000E-1,-5.192201585E-3,-2.063136548E-1,2.535016090E-2
5.437328270E-1,-7.788302377E-3,-2.050919682E-1,2.168507688E-2
5.461148060E-1,-1.145338640E-2,-2.038702667E-1,1.557660475E-2
5.484967850E-1,-1.404948719E-2,-2.063136548E-1,1.313321572E-2
5.508787640E-1,-1.893626526E-2,-2.064663768E-1,1.191152167E-2
5.532606910E-1,-2.275406010E-2,-2.064663768E-1,5.803049076E-3
5.556426710E-1,-2.519745007E-2,-2.113531530E-1,2.137965523E-3
5.580246500E-1,-2.764083818E-2,-2.174616307E-1,-1.527118147E-3
5.604065770E-1,-3.130592033E-2,-2.223484069E-1,-3.970507067E-3
5.627885560E-1,-3.130592033E-2,-2.296785712E-1,-7.635590620E-3
5.651705350E-1,-3.497100621E-2,-2.380777150E-1,-1.130067464E-2
5.675525140E-1,-3.497100621E-2,-2.454078794E-1,-1.374406368E-2
5.699344410E-1,-3.497100621E-2,-2.527380586E-1,-1.863084175E-2
5.723164210E-1,-3.741439432E-2,-2.600682080E-1,-2.107422985E-2
5.746984000E-1,-3.619270027E-2,-2.684673667E-1,-2.351761982E-2
5.770803270E-1,-3.619270027E-2,-2.733541429E-1,-2.596100792E-2
5.794623060E-1,-3.374931216E-2,-2.745758295E-1,-2.962609194E-2
5.818442850E-1,-3.252761811E-2,-2.757975459E-1,-3.084778599E-2
5.842262640E-1,-2.870982140E-2,-2.757975459E-1,-3.329117596E-2
5.866081910E-1,-2.382304333E-2,-2.745758295E-1,-3.451287001E-2
5.889901710E-1,-2.260134928E-2,-2.684673667E-1,-3.573456407E-2
5.913721500E-1,-1.771457121E-2,-2.623589039E-1,-3.695625812E-2
5.937540770E-1,-1.527118124E-2,-2.564031482E-1,-3.695625812E-2
5.961360560E-1,-1.160609815E-2,-2.490729690E-1,-3.939964995E-2
5.985180350E-1,-9.162709117E-3,-2.392994165E-1,-3.939964995E-2
6.009000140E-1,-6.719320081E-3,-2.272351831E-1,-3.955236077E-2
6.032819410E-1,-6.719320081E-3,-2.162399292E-1,-3.833066672E-2
6.056639210E-1,-6.872031838E-3,-2.066190839E-1,-3.466558084E-2
6.080459000E-1,-6.872031838E-3,-1.980672181E-1,-3.588727489E-2
6.104278270E-1,-5.650337320E-3,-1.895153672E-1,-3.222219273E-2
6.128098060E-1,-5.650337320E-3,-1.798945218E-1,-2.977880463E-2
6.151917850E-1,-4.428642802E-3,-1.750077456E-1,-2.611372061E-2
6.175737120E-1,-4.428642802E-3,-1.688992679E-1,-2.489202656E-2
6.199556910E-1,-1.985253533E-3,-1.603474021E-1,-2.244863659E-2
6.223376710E-1,-4.581354558E-3,-1.566823274E-1,-2.000524849E-2
6.247196500E-1,-3.359660041E-3,-1.507265568E-1,-1.756185852E-2
6.271015770E-1,1.679830020E-3,-1.470614821E-1,-1.511846948E-2
6.294835560E-1,1.679830020E-3,-1.409530044E-1,-9.009997360E-3
6.318655350E-1,4.123218823E-3,-1.383569092E-1,-2.901524538E-3
6.342474620E-1,5.344913341E-3,-1.348445266E-1,-1.679830020E-3
6.366294410E-1,6.719320081E-3,-1.324011385E-1,1.985253533E-3
6.390114210E-1,1.160609815E-2,-1.298050433E-1,3.206948051E-3
6.413934000E-1,1.527118124E-2,-1.273616552E-1,6.872031838E-3
6.437753270E-1,2.153236605E-2,-1.249182671E-1,9.315420873E-3
6.461573060E-1,2.397575416E-2,-1.224748790E-1,1.175880991E-2
6.485392850E-1,2.764083818E-2,-1.175880954E-1,1.298050396E-2
6.509212120E-1,3.023693897E-2,-1.163664013E-1,1.420219894E-2
6.533031910E-1,3.512371704E-2,-1.139230132E-1,1.542389300E-2
6.556851710E-1,4.001049697E-2,-1.102579311E-1,1.420219894E-2
6.580671500E-1,4.260659590E-2,-1.090362370E-1,1.298050396E-2
6.604490770E-1,4.382828996E-2,-1.090362370E-1,1.435491070E-2
6.628310560E-1,4.627167806E-2,-1.078145429E-1,1.191152167E-2
6.652130350E-1,4.993676394E-2,-1.065928489E-1,9.468132630E-3
6.675949620E-1,5.115845799E-2,-1.053711548E-1,1.068982668E-2
6.699769410E-1,5.115845799E-2,-1.029277667E-1,1.068982668E-2
6.723589210E-1,5.238015205E-2,-1.017060652E-1,8.093725890E-3
6.747408480E-1,5.482354015E-2,-9.926267713E-2,9.315420873E-3
6.771228270E-1,5.482354015E-2,-9.437590092E-2,1.053711493E-2
6.795048060E-1,5.604523420E-2,-9.071081877E-2,1.175880991E-2
6.818867850E-1,5.726693198E-2,-8.842013776E-2,1.175880991E-2
6.842687120E-1,5.848862603E-2,-8.353336155E-2,1.664558798E-2
6.866506910E-1,6.093201414E-2,-7.742489129E-2,1.908897609E-2
6.890326710E-1,6.352811307E-2,-7.375980914E-2,2.290677279E-2
6.914145980E-1,6.597150117E-2,-7.131642103E-2,2.657185495E-2
6.937965770E-1,6.597150117E-2,-6.642963737E-2,2.901524492E-2
6.961785560E-1,6.597150117E-2,-6.154286116E-2,3.512371704E-2
6.985605350E-1,6.963659078E-2,-5.787777901E-2,3.756710514E-2
7.009424620E-1,7.223268598E-2,-5.543438718E-2,4.001049697E-2
7.033244410E-1,7.345438004E-2,-5.054761097E-2,4.367557913E-2
7.057064210E-1,7.589777559E-2,-4.566083103E-2,4.611896724E-2
7.080883480E-1,7.834116369E-2,-4.077405483E-2,5.100574717E-2
7.104703270E-1,7.834116369E-2,-3.588727489E-2,5.467082933E-2
7.128523060E-1,7.956285775E-2,-3.222219273E-2,5.711421743E-2
7.152342330E-1,8.078455180E-2,-2.733541466E-2,5.955760926E-2
7.176162120E-1,8.078455180E-2,-2.244863659E-2,6.077930331E-2
7.199981910E-1,8.078455180E-2,-1.634016447E-2,6.200099736E-2
7.223801710E-1,8.078455180E-2,-1.389677543E-2,6.444438547E-2
7.247620980E-1,7.696675509E-2,-1.038440317E-2,6.444438547E-2
7.271440770E-1,7.696675509E-2,-7.941014133E-3,6.566607952E-2
7.295260560E-1,7.452336699E-2,-5.497625098E-3,6.551336497E-2
7.319080350E-1,7.085828483E-2,-4.275931045E-3,6.306997687E-2
7.342899620E-1,6.581879407E-2,-7.941014133E-3,6.184828654E-2
7.366719410E-1,6.215370819E-2,-1.282779220E-2,6.184828654E-2
7.390539210E-1,5.467082933E-2,-1.649287529E-2,6.062658876E-2
7.414358480E-1,5.100574717E-2,-2.015795931E-2,5.818320066E-2
7.438178270E-1,4.474456236E-2,-2.275406010E-2,5.573981255E-2
7.461998060E-1,3.985778242E-2,-2.275406010E-2,5.085303262E-2
7.485817330E-1,3.603998944E-2,-1.908897609E-2,4.337015375E-2
7.509637120E-1,2.733541466E-2,-1.679829881E-2,3.726168349E-2
7.533456910E-1,2.229592577E-2,-1.572931744E-2,2.870982140E-2
7.557276710E-1,1.847812906E-2,-1.328592747E-2,2.137965336E-2
7.581095980E-1,1.221694518E-2,-1.099525020E-2,1.634016447E-2
7.604915770E-1,7.330167107E-3,-9.773556143E-3,9.009997360E-3
7.628735560E-1,3.512371797E-3,-1.221694518E-2,2.901524538E-3
7.652554830E-1,-3.970507067E-3,-1.603474095E-2,-3.206948051E-3
7.676374620E-1,-1.145338640E-2,-1.725643501E-2,-9.468132630E-3
7.700194410E-1,-1.878355257E-2,-2.214321308E-2,-1.313321572E-2
7.724014210E-1,-2.504473738E-2,-2.702999115E-2,-1.801999472E-2
7.747833480E-1,-3.497100621E-2,-3.191677108E-2,-2.046338283E-2
7.771653270E-1,-4.352286831E-2,-3.817795217E-2,-2.412846684E-2
7.795473060E-1,-5.222744122E-2,-4.672981426E-2,-2.657185495E-2
7.819292330E-1,-5.848862603E-2,-5.039490014E-2,-2.901524492E-2
7.843112120E-1,-6.337540597E-2,-5.650337040E-2,-2.901524492E-2
7.866931910E-1,-7.070557028E-2,-6.139015034E-2,-2.901524492E-2
7.890751710E-1,-7.941014320E-2,-6.383354217E-2,-2.901524492E-2
7.914570980E-1,-8.689302206E-2,-6.994201243E-2,-2.535016090E-2
7.938390770E-1,-9.422318637E-2,-7.834116369E-2,-2.290677279E-2
7.962210560E-1,-1.027750522E-1,-8.811471611E-2,-2.046338283E-2
7.986029830E-1,-1.088835225E-1,-1.003316641E-1,-1.924168877E-2
8.009849620E-1,-1.175880954E-1,-1.088835225E-1,-1.679829881E-2
8.033669410E-1,-1.224748790E-1,-1.197260618E-1,-1.191152167E-2
8.057488680E-1,-1.261399537E-1,-1.330119967E-1,-8.246437646E-3
8.081308480E-1,-1.272089481E-1,-1.440072358E-1,-4.581354558E-3
8.105128270E-1,-1.284306347E-1,-1.560714692E-1,-4.428642802E-3
8.128948060E-1,-1.307213157E-1,-1.693574041E-1,1.679830020E-3
8.152767330E-1,-1.307213157E-1,-1.803526580E-1,5.344913341E-3
8.176587120E-1,-1.293469071E-1,-1.948602796E-1,5.344913341E-3
8.200406910E-1,-1.267508119E-1,-2.069245130E-1,7.941014133E-3
8.224226710E-1,-1.217113137E-1,-2.214321345E-1,9.162709117E-3
8.248045980E-1,-1.204896197E-1,-2.324273884E-1,1.282779220E-2
8.271865770E-1,-1.130067408E-1,-2.420482337E-1,1.908897609E-2
8.295685560E-1,-1.029277667E-1,-2.504473627E-1,2.153236605E-2
8.319504830E-1,-9.422318637E-2,-2.600682080E-1,2.657185495E-2
8.343324620E-1,-8.170082420E-2,-2.672456801E-1,3.023693897E-2
8.367144410E-1,-6.810946763E-2,-2.695363462E-1,3.145863488E-2
8.390964210E-1,-5.558710173E-2,-2.756448388E-1,3.649812192E-2
8.414783480E-1,-3.833066672E-2,-2.767138183E-1,3.771981969E-2
8.438603270E-1,-2.092151903E-2,-2.765611112E-1,3.909422457E-2
8.462423060E-1,-3.512371797E-3,-2.765611112E-1,3.909422457E-2
8.486242330E-1,1.496575773E-2,-2.727433145E-1,3.909422457E-2
8.510062120E-1,2.993151546E-2,-2.690782249E-1,3.802524135E-2
8.533881910E-1,4.596625641E-2,-2.605263591E-1,3.802524135E-2
8.557701180E-1,6.444438547E-2,-2.542651594E-1,3.680354729E-2
8.581520980E-1,8.063183725E-2,-2.457133085E-1,3.680354729E-2
8.605340770E-1,9.422318637E-2,-2.444916219E-1,3.680354729E-2
8.629160560E-1,1.102579311E-1,-2.383831441E-1,3.695625812E-2
8.652979830E-1,1.214058921E-1,-2.345653474E-1,3.573456407E-2
8.676799620E-1,1.313321590E-1,-2.296785712E-1,3.573456407E-2
8.700619410E-1,1.412584335E-1,-2.247917950E-1,3.695625812E-2
8.724438680E-1,1.511846930E-1,-2.223484069E-1,3.451287001E-2
8.748258480E-1,1.548497826E-1,-2.174616307E-1,3.451287001E-2
8.772078270E-1,1.597365588E-1,-2.125748396E-1,3.451287001E-2
8.795898060E-1,1.634016484E-1,-2.064663768E-1,3.451287001E-2
8.819717330E-1,1.672194302E-1,-2.040229887E-1,3.573456407E-2
8.843537120E-1,1.670667231E-1,-2.015796006E-1,3.451287001E-2
8.867356910E-1,1.682884246E-1,-1.980672181E-1,3.329117596E-2
8.891176180E-1,1.658450365E-1,-1.944021434E-1,3.573456407E-2
8.914995980E-1,1.634016484E-1,-1.919587553E-1,3.451287001E-2
8.938815770E-1,1.595838517E-1,-1.907370538E-1,3.695625812E-2
8.962635040E-1,1.546970755E-1,-1.884463727E-1,3.573456407E-2
8.986454830E-1,1.484358907E-1,-1.847812980E-1,3.924693540E-2
9.010274620E-1,1.435490996E-1,-1.835595965E-1,4.046862945E-2
9.034094410E-1,1.360662282E-1,-1.835595965E-1,4.169032723E-2
9.057913680E-1,1.285833418E-1,-1.847812980E-1,4.291202128E-2
9.081733480E-1,1.224748790E-1,-1.824906170E-1,4.413371533E-2
9.105553270E-1,1.149920002E-1,-1.800472289E-1,4.535540938E-2
9.129373060E-1,1.088835225E-1,-1.800472289E-1,4.779879749E-2
9.153192330E-1,1.026223376E-1,-1.776038408E-1,4.902049154E-2
9.177012120E-1,9.513945878E-2,-1.740914732E-1,4.764608666E-2
9.200831910E-1,8.765657991E-2,-1.704263836E-1,4.642439261E-2
9.224651180E-1,8.139539510E-2,-1.681357026E-1,4.520269856E-2
9.248470980E-1,7.406523079E-2,-1.632489264E-1,4.642439261E-2
9.272290770E-1,6.536065787E-2,-1.585148573E-1,4.382828996E-2
9.296110040E-1,5.787777901E-2,-1.560714692E-1,4.016320780E-2
9.319929830E-1,5.528167635E-2,-1.524063945E-1,4.016320780E-2
9.343749620E-1,5.039490014E-2,-1.513374150E-1,3.527642787E-2
9.367569410E-1,4.535540938E-2,-1.452289373E-1,3.283303976E-2
9.391388680E-1,4.275930673E-2,-1.429382563E-1,3.283303976E-2
9.415208480E-1,4.031591862E-2,-1.417165697E-1,3.268032894E-2
9.439028270E-1,3.787253052E-2,-1.441599578E-1,3.023693897E-2
9.462847540E-1,3.665083647E-2,-1.429382563E-1,3.023693897E-2
9.486667330E-1,3.787253052E-2,-1.453816444E-1,2.901524492E-2
9.510487120E-1,3.787253052E-2,-1.441599578E-1,3.023693897E-2
9.534306910E-1,3.542914242E-2,-1.453816444E-1,2.901524492E-2
9.558126180E-1,3.787253052E-2,-1.429382563E-1,2.657185495E-2
9.581945980E-1,3.787253052E-2,-1.429382563E-1,2.657185495E-2
9.605765770E-1,3.665083647E-2,-1.441599578E-1,2.779355086E-2
9.629585040E-1,4.031591862E-2,-1.429382563E-1,2.779355086E-2
9.653404830E-1,3.909422457E-2,-1.404948682E-1,2.657185495E-2
9.677224620E-1,4.275930673E-2,-1.380514801E-1,2.657185495E-2
9.701044410E-1,4.398100078E-2,-1.392731816E-1,2.657185495E-2
9.724863680E-1,4.398100078E-2,-1.404948682E-1,2.535016090E-2
9.748683480E-1,4.520269856E-2,-1.392731816E-1,2.412846684E-2
9.772503270E-1,4.642439261E-2,-1.368297935E-1,2.168507688E-2
9.796322540E-1,4.886778072E-2,-1.319430023E-1,2.046338283E-2
9.820142330E-1,5.008947477E-2,-1.294996142E-1,2.046338283E-2
9.843962120E-1,5.131116882E-2,-1.272089481E-1,1.924168877E-2
9.867781910E-1,5.008947477E-2,-1.223221645E-1,1.801999472E-2
9.891601180E-1,5.131116882E-2,-1.174353883E-1,1.679829881E-2
9.915420980E-1,5.253286287E-2,-1.149920002E-1,1.557660475E-2
9.939240770E-1,5.253286287E-2,-1.113269106E-1,1.313321572E-2
9.963060040E-1,5.238015205E-2,-1.065928489E-1,1.191152167E-2
9.986879830E-1,5.238015205E-2,-1.004843712E-1,1.068982668E-2
1.001069962E0,5.238015205E-2,-9.681928903E-2,1.053711493E-2
1.003451941E0,5.100574717E-2,-8.842013776E-2,8.093725890E-3
1.005833868E0,4.856235534E-2,-8.353336155E-2,6.872031838E-3
1.008215848E0,5.222744122E-2,-7.620319724E-2,6.872031838E-3
1.010597827E0,5.222744122E-2,-7.024743408E-2,4.428642802E-3
1.012979754E0,5.222744122E-2,-6.536065787E-2,3.206948051E-3
1.015361733E0,5.467082933E-2,-6.047387794E-2,3.206948051E-3
1.017743712E0,5.451811850E-2,-5.558710173E-2,3.206948051E-3
1.020125691E0,5.573981255E-2,-4.963133857E-2,7.635590737E-4
1.022507618E0,5.696150661E-2,-4.474456236E-2,-6.108472589E-4
1.024889598E0,5.696150661E-2,-4.107947648E-2,-1.832541777E-3
1.027271577E0,5.696150661E-2,-3.619270027E-2,-4.275931045E-3
1.029653504E0,5.940489471E-2,-3.390202299E-2,-5.497625098E-3
1.032035483E0,6.062658876E-2,-3.145863488E-2,-6.719320081E-3
1.034417462E0,6.184828654E-2,-2.779355086E-2,-7.941014133E-3
1.036799441E0,6.306997687E-2,-2.290677279E-2,-7.941014133E-3
1.039181368E0,6.551336497E-2,-1.924168877E-2,-7.941014133E-3
1.041563348E0,6.551336497E-2,-1.557660475E-2,-7.941014133E-3
1.043945327E0,6.795676053E-2,-1.068982668E-2,-6.719320081E-3
1.046327254E0,6.917845458E-2,-9.468132630E-3,-6.719320081E-3
1.048709233E0,7.040014863E-2,-4.734066315E-3,-9.162709117E-3
1.051091212E0,6.780404598E-2,-3.512371797E-3,-1.038440317E-2
1.053473191E0,7.162184268E-2,-2.290677279E-3,-9.162709117E-3
1.055855118E0,7.406523079E-2,1.527118147E-4,-9.162709117E-3
1.058237098E0,7.162184268E-2,2.596100792E-3,-1.038440317E-2
1.060619077E0,7.406523079E-2,1.374406274E-3,-1.160609815E-2
1.063001004E0,7.406523079E-2,5.039489828E-3,-1.160609815E-2
1.065382983E0,7.528692484E-2,6.261184346E-3,-1.160609815E-2
1.067764962E0,7.528692484E-2,5.039489828E-3,-1.038440317E-2
1.070146889E0,7.528692484E-2,3.817795310E-3,-1.160609815E-2
1.072528868E0,7.528692484E-2,6.261184346E-3,-1.038440317E-2
1.074910848E0,7.650861889E-2,6.261184346E-3,-1.160609815E-2
1.077292827E0,7.650861889E-2,9.926267900E-3,-1.160609815E-2
1.079674754E0,7.406523079E-2,1.114796288E-2,-9.162709117E-3
1.082056733E0,7.528692484E-2,1.236965694E-2,-7.941014133E-3
1.084438712E0,7.773031294E-2,1.236965694E-2,-7.941014133E-3
1.086820639E0,7.650861889E-2,1.481304597E-2,-7.941014133E-3
1.089202618E0,7.391251624E-2,1.954711229E-2,-6.719320081E-3
1.091584598E0,7.024743408E-2,2.076880634E-2,-5.650337320E-3
1.093966577E0,7.269082218E-2,2.321219631E-2,-3.054236295E-3
1.096348504E0,6.902574003E-2,2.321219631E-2,-1.985253533E-3
1.098730483E0,6.902574003E-2,2.809897438E-2,4.581354442E-4
1.101112462E0,6.902574003E-2,3.054236248E-2,2.901524538E-3
1.103494389E0,6.902574003E-2,3.298575059E-2,5.344913341E-3
1.105876368E0,6.780404598E-2,3.420744836E-2,7.788302377E-3
1.108258348E0,6.902574003E-2,3.542914242E-2,9.009997360E-3
1.110640327E0,7.024743408E-2,3.665083647E-2,1.282779220E-2
1.113022254E0,7.406523079E-2,3.665083647E-2,1.527118124E-2
1.115404233E0,7.528692484E-2,3.665083647E-2,1.771457121E-2
1.117786212E0,7.773031294E-2,3.680354729E-2,2.015795931E-2
1.120168139E0,8.017370105E-2,4.169032723E-2,2.260134928E-2
1.122550118E0,8.139539510E-2,4.291202128E-2,2.260134928E-2
1.124932098E0,8.399149776E-2,4.046862945E-2,2.382304333E-2
1.127314025E0,8.399149776E-2,3.802524135E-2,2.382304333E-2
1.129696004E0,8.643488586E-2,3.680354729E-2,2.504473738E-2
1.132077983E0,8.643488586E-2,3.680354729E-2,2.626643144E-2
1.134459962E0,8.643488586E-2,3.924693540E-2,2.626643144E-2
1.136841941E0,8.765657991E-2,3.924693540E-2,2.382304333E-2
1.139223868E0,8.765657991E-2,3.924693540E-2,2.382304333E-2
1.141605848E0,8.643488586E-2,4.046862945E-2,2.382304333E-2
1.143987827E0,8.521319181E-2,4.169032723E-2,2.015795931E-2
1.146369754E0,8.643488586E-2,4.291202128E-2,1.771457121E-2
1.148751733E0,8.261708915E-2,4.398100078E-2,1.893626526E-2
1.151133712E0,8.261708915E-2,4.275930673E-2,1.771457121E-2
1.153515639E0,8.139539510E-2,4.642439261E-2,1.527118124E-2
1.155897618E0,8.017370105E-2,4.886778072E-2,1.527118124E-2
1.158279598E0,8.261708915E-2,4.764608666E-2,1.282779220E-2
1.160661577E0,8.261708915E-2,4.764608666E-2,1.160609815E-2
1.163043504E0,8.017370105E-2,4.642439261E-2,1.038440317E-2
1.165425483E0,7.895200700E-2,4.642439261E-2,9.162709117E-3
1.167807462E0,8.017370105E-2,4.520269856E-2,6.566607859E-3
1.170189389E0,8.017370105E-2,4.398100078E-2,1.038440317E-2
1.172571368E0,7.757759839E-2,4.642439261E-2,9.009997360E-3
1.174953348E0,7.773031294E-2,4.398100078E-2,9.162709117E-3
1.177335327E0,7.391251624E-2,4.031591862E-2,5.344913341E-3
1.179717254E0,7.146912813E-2,3.909422457E-2,6.566607859E-3
1.182099233E0,6.780404598E-2,3.909422457E-2,7.788302377E-3
1.184481212E0,6.536065787E-2,3.787253052E-2,7.788302377E-3
1.186863139E0,6.154286116E-2,3.787253052E-2,6.566607859E-3
1.189245118E0,5.665608495E-2,3.649812192E-2,5.344913341E-3
1.191627098E0,5.283828825E-2,3.649812192E-2,4.123218823E-3
1.194009077E0,4.672981426E-2,3.649812192E-2,1.679830020E-3
1.196391004E0,4.169032723E-2,3.771981969E-2,4.581354442E-4
1.198772983E0,4.046862945E-2,4.138490185E-2,2.901524538E-3
1.201154962E0,3.542914242E-2,4.123219103E-2,2.901524538E-3
1.203536889E0,2.809897438E-2,4.611896724E-2,3.970507067E-3
1.205918868E0,2.428117767E-2,4.856235534E-2,2.748812549E-3
1.208300848E0,2.305948362E-2,5.207473040E-2,1.527118147E-3
1.210682827E0,2.183778957E-2,5.207473040E-2,2.748812549E-3
1.213064754E0,1.801999472E-2,5.329642445E-2,3.054236295E-4
1.215446733E0,1.679829881E-2,5.940489471E-2,-9.162708884E-4
1.217828712E0,1.435491070E-2,5.940489471E-2,1.527118147E-3
1.220210639E0,1.298050396E-2,5.940489471E-2,-9.162708884E-4
1.222592618E0,9.315420873E-3,5.925218388E-2,-9.162708884E-4
1.224974598E0,8.093725890E-3,6.169557199E-2,-9.162708884E-4
1.227356577E0,6.872031838E-3,6.291726977E-2,3.054236295E-4
1.229738504E0,5.650337320E-3,6.291726977E-2,3.054236295E-4
1.232120483E0,1.832541777E-3,6.291726977E-2,1.527118147E-3
1.234502462E0,6.108472589E-4,6.169557199E-2,1.527118147E-3
1.236884389E0,-5.497625098E-3,6.169557199E-2,1.527118147E-4
1.239266368E0,-5.497625098E-3,6.047387794E-2,1.527118147E-4
1.241648348E0,-7.941014133E-3,5.803048983E-2,1.527118147E-4
1.244030327E0,-9.315420873E-3,5.680879578E-2,-2.290677279E-3
1.246412254E0,-1.053711493E-2,5.803048983E-2,-3.512371797E-3
1.248794233E0,-1.175880991E-2,5.436540768E-2,-4.734066315E-3
1.251176212E0,-1.298050396E-2,5.436540768E-2,-5.955760833E-3
1.253558191E0,-1.175880991E-2,5.192201585E-2,-7.177455351E-3
1.255940118E0,-1.053711493E-2,5.558710173E-2,-8.399149403E-3
1.258322098E0,-1.175880991E-2,5.558710173E-2,-8.399149403E-3
1.260704077E0,-9.315420873E-3,5.680879578E-2,-1.084253844E-2
1.263086004E0,-8.093725890E-3,5.558710173E-2,-1.084253844E-2
1.265467983E0,-8.093725890E-3,5.436540768E-2,-1.206423342E-2
1.267849962E0,-4.275931045E-3,5.436540768E-2,-1.084253844E-2
1.270231889E0,-3.054236295E-3,5.192201585E-2,-1.206423342E-2
1.272613868E0,-3.054236295E-3,5.070032179E-2,-1.084253844E-2
1.274995848E0,6.108472589E-4,4.581354558E-2,-1.313321572E-2
1.277377827E0,6.108472589E-4,4.107947648E-2,-1.191152167E-2
1.279759754E0,-4.581354442E-4,3.497100621E-2,-1.068982668E-2
1.282141733E0,1.985253533E-3,3.252761811E-2,-1.068982668E-2
1.284523712E0,3.206948051E-3,2.519745007E-2,-1.068982668E-2
1.286905639E0,1.985253533E-3,1.801999472E-2,-1.191152167E-2
1.289287618E0,1.985253533E-3,1.435491070E-2,-1.435491070E-2
1.291669598E0,1.985253533E-3,1.191152167E-2,-1.557660475E-2
1.294051577E0,9.162708884E-4,7.024743594E-3,-1.313321572E-2
1.296433504E0,-2.901524538E-3,2.137965523E-3,-1.435491070E-2
1.298815483E0,-4.123218823E-3,-3.054236295E-4,-1.191152167E-2
1.301197462E0,-7.788302377E-3,-1.527118147E-3,-1.313321572E-2
1.303579389E0,-9.009997360E-3,9.162708884E-4,-1.557660475E-2
1.305961368E0,-1.404948719E-2,2.137965523E-3,-1.557660475E-2
1.308343348E0,-1.649287529E-2,5.803049076E-3,-1.557660475E-2
1.310725327E0,-1.649287529E-2,9.315420873E-3,-1.557660475E-2
1.313107254E0,-1.771457121E-2,1.298050396E-2,-1.313321572E-2
1.315489233E0,-2.031067200E-2,1.786728203E-2,-1.313321572E-2
1.317871212E0,-2.397575416E-2,2.153236605E-2,-1.450762246E-2
1.320253139E0,-2.275406010E-2,2.748812735E-2,-1.084253844E-2
1.322635118E0,-2.153236605E-2,3.115320951E-2,-8.399149403E-3
1.325017098E0,-2.031067200E-2,3.481829539E-2,-5.955760833E-3
1.327399077E0,-1.786728203E-2,3.603998944E-2,-5.955760833E-3
1.329781004E0,-1.542389300E-2,3.619270027E-2,-4.581354558E-3
1.332162983E0,-1.404948719E-2,3.741439432E-2,-3.359660041E-3
1.334544962E0,-1.175880991E-2,4.214845970E-2,-5.955760833E-3
1.336926889E0,-7.941014133E-3,5.070032179E-2,-7.177455351E-3
1.339308868E0,-8.093725890E-3,5.680879578E-2,-8.399149403E-3
1.341690848E0,-6.872031838E-3,6.765133142E-2,-1.084253844E-2
1.344072827E0,-8.246437646E-3,7.498150319E-2,-1.572931744E-2
1.346454754E0,-5.803049076E-3,7.971556485E-2,-1.695101149E-2
1.348836733E0,-8.246437646E-3,7.971556485E-2,-1.939439960E-2
1.351218712E0,-9.468132630E-3,7.849387079E-2,-2.428117767E-2
1.353600639E0,-1.328592747E-2,7.605048269E-2,-2.687728032E-2
1.355982618E0,-1.695101149E-2,7.238540053E-2,-2.932066843E-2
1.358364598E0,-2.183778957E-2,6.994201243E-2,-3.298575059E-2
1.360746577E0,-2.443389036E-2,6.627693027E-2,-3.420744836E-2
1.363128504E0,-2.932066843E-2,6.139015034E-2,-3.665083647E-2
1.365510483E0,-3.420744836E-2,5.772506446E-2,-4.031591862E-2
1.367892462E0,-4.046862945E-2,5.390727147E-2,-4.520269856E-2
1.370274389E0,-4.917320609E-2,5.146388337E-2,-4.764608666E-2
1.372656368E0,-5.543438718E-2,5.146388337E-2,-5.008947477E-2
1.375038348E0,-6.276455522E-2,4.657710344E-2,-5.512896553E-2
1.377420327E0,-7.024743408E-2,4.886778072E-2,-5.512896553E-2
1.379802254E0,-7.773031294E-2,5.008947477E-2,-5.757235363E-2
1.382184233E0,-8.399149776E-2,5.253286287E-2,-6.001574174E-2
1.384566212E0,-8.887827396E-2,5.360184610E-2,-6.123743951E-2
1.386948139E0,-9.391776472E-2,5.971032009E-2,-6.261184067E-2
1.389330118E0,-9.758284688E-2,5.971032009E-2,-6.261184067E-2
1.391712098E0,-1.014006436E-1,5.848862603E-2,-6.139015034E-2
1.394094025E0,-1.050657257E-1,5.604523420E-2,-6.261184067E-2
1.396476004E0,-1.062874198E-1,5.360184610E-2,-6.139015034E-2
1.398857983E0,-1.050657257E-1,4.749337584E-2,-6.016845629E-2
1.401239962E0,-1.036913246E-1,3.665083647E-2,-5.757235363E-2
1.403621889E0,-1.010952219E-1,2.809897438E-2,-5.268557742E-2
1.406003868E0,-9.743013978E-2,1.847812906E-2,-5.024218559E-2
1.408385848E0,-9.361234307E-2,1.130067464E-2,-4.764608666E-2
1.410767775E0,-8.857285231E-2,3.054236295E-4,-5.008947477E-2
1.413149754E0,-8.353336155E-2,-6.872031838E-3,-5.008947477E-2
1.415531733E0,-7.864658535E-2,-1.298050396E-2,-5.008947477E-2
1.417913712E0,-6.872031838E-2,-1.649287529E-2,-5.131116882E-2
1.420295639E0,-6.245913357E-2,-2.015795931E-2,-5.482354015E-2
1.422677618E0,-5.619794875E-2,-2.260134928E-2,-5.726693198E-2
1.425059598E0,-4.886778072E-2,-2.504473738E-2,-5.726693198E-2
1.427441577E0,-4.138490185E-2,-2.489202656E-2,-5.971032009E-2
1.429823504E0,-3.771981969E-2,-2.367033064E-2,-6.215370819E-2
1.432205483E0,-3.405473381E-2,-2.244863659E-2,-6.459710002E-2
1.434587462E0,-2.779355086E-2,-2.122694254E-2,-6.337540597E-2
1.436969389E0,-2.412846684E-2,-2.000524849E-2,-6.459710002E-2
1.439351368E0,-2.046338283E-2,-1.634016447E-2,-6.826218218E-2
1.441733348E0,-1.664558798E-2,-1.267508045E-2,-6.948387623E-2
1.444115327E0,-1.420219894E-2,-7.941014133E-3,-7.070557028E-2
1.446497254E0,-1.175880991E-2,-4.275931045E-3,-7.192726433E-2
1.448879233E0,-1.191152167E-2,1.832541777E-3,-7.192726433E-2
1.451261212E0,-8.093725890E-3,6.719320081E-3,-7.192726433E-2
1.453643139E0,-8.246437646E-3,1.282779220E-2,-7.192726433E-2
1.456025118E0,-9.468132630E-3,1.878355257E-2,-7.070557028E-2
1.458407098E0,-8.246437646E-3,2.244863659E-2,-6.948387623E-2
1.460789077E0,-8.246437646E-3,2.733541466E-2,-6.826218218E-2
1.463171004E0,-8.246437646E-3,3.344388679E-2,-6.215370819E-2
1.465552983E0,-7.024743594E-3,3.833066672E-2,-6.093201414E-2
1.467934962E0,-8.246437646E-3,4.321744293E-2,-5.619794875E-2
1.470316941E0,-9.468132630E-3,4.688252881E-2,-5.253286287E-2
1.472698868E0,-1.191152167E-2,4.917320609E-2,-4.886778072E-2
1.475080848E0,-1.191152167E-2,4.932591692E-2,-4.504998401E-2
1.477462827E0,-1.313321572E-2,5.176930502E-2,-4.016320780E-2
1.479844754E0,-1.572931744E-2,5.772506446E-2,-3.909422457E-2
1.482226733E0,-1.817270555E-2,5.650337040E-2,-3.283303976E-2
1.484608712E0,-2.061609551E-2,5.894676223E-2,-3.298575059E-2
1.486990691E0,-2.183778957E-2,6.016845629E-2,-3.054236248E-2
1.489372618E0,-2.428117767E-2,6.139015034E-2,-2.687728032E-2
1.491754598E0,-2.672456764E-2,6.261184067E-2,-2.443389036E-2
1.494136577E0,-2.932066843E-2,6.383354217E-2,-2.443389036E-2
1.496518504E0,-3.054236248E-2,6.139015034E-2,-2.199050039E-2
1.498900483E0,-3.298575059E-2,6.139015034E-2,-2.076880634E-2
1.501282462E0,-3.420744836E-2,5.894676223E-2,-2.076880634E-2
1.503664441E0,-3.665083647E-2,5.772506446E-2,-1.954711229E-2
1.506046368E0,-3.909422457E-2,6.016845629E-2,-2.076880634E-2
1.508428348E0,-3.909422457E-2,5.894676223E-2,-1.954711229E-2
1.510810327E0,-4.031591862E-2,6.016845629E-2,-2.076880634E-2
1.513192254E0,-4.413371533E-2,5.894676223E-2,-1.954711229E-2
1.515574233E0,-4.413371533E-2,6.016845629E-2,-1.832541823E-2
1.517956212E0,-4.413371533E-2,6.016845629E-2,-1.832541823E-2
1.520338139E0,-4.779879749E-2,5.894676223E-2,-1.832541823E-2
1.522720118E0,-4.779879749E-2,6.261184067E-2,-1.954711229E-2
1.525102098E0,-4.779879749E-2,6.383354217E-2,-2.076880634E-2
1.527484077E0,-4.902049154E-2,6.612421572E-2,-2.076880634E-2
1.529866004E0,-4.657710344E-2,6.734590977E-2,-1.954711229E-2
1.532247983E0,-4.779879749E-2,6.856760383E-2,-1.832541823E-2
1.534629962E0,-4.917320609E-2,7.101099193E-2,-1.832541823E-2
1.537011941E0,-4.657710344E-2,7.345438004E-2,-1.954711229E-2
1.539393868E0,-4.917320609E-2,7.467607409E-2,-1.710372418E-2
1.541775848E0,-4.795150831E-2,7.711946964E-2,-1.710372418E-2
1.544157827E0,-4.672981426E-2,8.078455180E-2,-1.954711229E-2
1.546539754E0,-4.550812021E-2,8.567132801E-2,-1.710372418E-2
1.548921733E0,-4.428642616E-2,8.933641016E-2,-1.710372418E-2
1.551303712E0,-4.306473210E-2,9.407047927E-2,-1.588202827E-2
1.553685691E0,-4.184303805E-2,9.773556143E-2,-1.588202827E-2
1.556067618E0,-3.939964995E-2,1.038440317E-1,-1.710372418E-2
1.558449598E0,-3.939964995E-2,1.062874198E-1,-1.588202827E-2
1.560831577E0,-3.558185324E-2,1.087308154E-1,-1.466033421E-2
1.563213504E0,-3.313846514E-2,1.111742035E-1,-1.221694518E-2
1.565595483E0,-3.069507517E-2,1.123958975E-1,-1.221694518E-2
1.567977462E0,-2.825168520E-2,1.160609797E-1,-1.343864016E-2
1.570359389E0,-2.702999115E-2,1.148392856E-1,-1.221694518E-2
1.572741368E0,-2.443389036E-2,1.160609797E-1,-9.773556143E-3
1.575123348E0,-2.076880634E-2,1.148392856E-1,-9.773556143E-3
1.577505327E0,-1.832541823E-2,1.137702987E-1,-8.551862091E-3
1.579887254E0,-1.695101149E-2,1.088835225E-1,-8.551862091E-3
1.582269233E0,-1.695101149E-2,1.052184403E-1,-8.551862091E-3
1.584651212E0,-1.572931744E-2,1.015533581E-1,-7.330167107E-3
1.587033191E0,-1.817270555E-2,9.788827598E-2,-3.665083554E-3
1.589415118E0,-1.817270555E-2,9.315420687E-2,-3.512371797E-3
1.591797098E0,-1.939439960E-2,8.948912472E-2,-3.512371797E-3
1.594179077E0,-2.183778957E-2,8.460234851E-2,-2.290677279E-3
1.596561004E0,-2.305948362E-2,7.971556485E-2,-1.068982761E-3
1.598942983E0,-2.672456764E-2,7.605048269E-2,-1.068982761E-3
1.601324962E0,-2.794626169E-2,7.360709459E-2,1.527118147E-4
1.603706941E0,-3.038965166E-2,7.116370648E-2,1.527118147E-4
1.606088868E0,-3.283303976E-2,6.872031838E-2,1.527118147E-4
1.608470848E0,-3.527642787E-2,6.642963737E-2,1.374406274E-3
1.610852827E0,-3.771981969E-2,6.398624927E-2,3.817795310E-3
1.613234754E0,-3.909422457E-2,6.276455522E-2,1.374406274E-3
1.615616733E0,-4.153761268E-2,6.383354217E-2,1.374406274E-3
1.617998712E0,-4.153761268E-2,6.627693027E-2,2.596100792E-3
1.620380691E0,-4.398100078E-2,6.749862432E-2,3.817795310E-3
1.622762618E0,-4.642439261E-2,6.749862432E-2,2.596100792E-3
1.625144598E0,-4.902049154E-2,6.994201243E-2,2.443389036E-3
1.627526577E0,-4.779879749E-2,7.238540053E-2,2.443389036E-3
1.629908504E0,-4.902049154E-2,7.360709459E-2,2.443389036E-3
1.632290483E0,-5.390727147E-2,7.238540053E-2,1.221694518E-3
1.634672462E0,-5.512896553E-2,7.482878864E-2,2.443389036E-3
1.637054441E0,-5.650337040E-2,7.589777559E-2,2.443389036E-3
1.639436368E0,-5.894676223E-2,7.589777559E-2,2.443389036E-3
1.641818348E0,-6.139015034E-2,7.467607409E-2,2.443389036E-3
1.644200327E0,-6.520794332E-2,7.711946964E-2,2.443389036E-3
1.646582306E0,-6.642963737E-2,7.711946964E-2,4.886778072E-3
1.648964233E0,-6.887302548E-2,7.834116369E-2,4.886778072E-3
1.651346212E0,-6.887302548E-2,7.467607409E-2,3.665083554E-3
1.653728191E0,-6.887302548E-2,7.589777559E-2,2.443389036E-3
1.656110118E0,-7.009471953E-2,7.834116369E-2,6.108472589E-3
1.658492098E0,-7.131642103E-2,7.956285775E-2,7.330167107E-3
1.660874077E0,-7.131642103E-2,7.956285775E-2,6.108472589E-3
1.663256056E0,-7.009471953E-2,7.956285775E-2,6.108472589E-3
1.665637983E0,-7.131642103E-2,7.711946964E-2,7.330167107E-3
1.668019962E0,-7.009471953E-2,8.078455180E-2,6.108472589E-3
1.670401941E0,-6.765133142E-2,8.200624585E-2,6.108472589E-3
1.672783868E0,-6.505523622E-2,8.078455180E-2,6.108472589E-3
1.675165848E0,-6.139015034E-2,8.322793990E-2,3.665083554E-3
1.677547827E0,-6.016845629E-2,8.322793990E-2,3.665083554E-3
1.679929806E0,-5.650337040E-2,8.200624585E-2,6.108472589E-3
1.682311733E0,-5.405998230E-2,8.200624585E-2,3.665083554E-3
1.684693712E0,-5.146388337E-2,7.956285775E-2,1.221694518E-3
1.687075691E0,-4.779879749E-2,8.093725890E-2,3.665083554E-3
1.689457618E0,-4.535540938E-2,7.727217674E-2,2.443389036E-3
1.691839598E0,-4.153761268E-2,7.605048269E-2,-0.000000000E0
1.694221577E0,-3.909422457E-2,7.116370648E-2,1.527118147E-4
1.696603556E0,-3.771981969E-2,6.520794332E-2,2.596100792E-3
1.698985483E0,-3.405473381E-2,6.154286116E-2,1.374406274E-3
1.701367462E0,-3.405473381E-2,5.787777901E-2,1.374406274E-3
1.703749441E0,-3.405473381E-2,5.176930502E-2,1.527118147E-4
1.706131368E0,-3.268032894E-2,4.581354558E-2,1.374406274E-3
1.708513348E0,-3.145863488E-2,3.970507160E-2,1.374406274E-3
1.710895327E0,-3.268032894E-2,3.603998944E-2,1.527118147E-4
1.713277306E0,-3.145863488E-2,3.115320951E-2,-1.068982761E-3
1.715659233E0,-3.268032894E-2,2.626643144E-2,-2.290677279E-3
1.718041212E0,-3.268032894E-2,2.031067200E-2,-2.137965523E-3
1.720423191E0,-3.268032894E-2,1.664558798E-2,-2.137965523E-3
1.722805171E0,-3.252761811E-2,1.420219894E-2,-9.162708884E-4
1.725187098E0,-3.497100621E-2,9.315420873E-3,-9.162708884E-4
1.727569077E0,-3.497100621E-2,6.872031838E-3,-2.137965523E-3
1.729951056E0,-3.634541109E-2,8.093725890E-3,-9.162708884E-4
1.732332983E0,-3.619270027E-2,6.872031838E-3,-9.162708884E-4
1.734714962E0,-3.374931216E-2,6.872031838E-3,-9.162708884E-4
1.737096941E0,-3.374931216E-2,9.315420873E-3,3.054236295E-4
1.739478921E0,-3.374931216E-2,1.053711493E-2,3.054236295E-4
1.741860848E0,-3.497100621E-2,8.093725890E-3,3.054236295E-4
1.744242827E0,-3.252761811E-2,1.053711493E-2,1.527118147E-3
1.746624806E0,-3.252761811E-2,1.542389300E-2,1.527118147E-3
1.749006733E0,-3.008422814E-2,1.664558798E-2,1.527118147E-3
1.751388712E0,-3.008422814E-2,1.786728203E-2,3.054236295E-4
1.753770691E0,-2.886253223E-2,2.031067200E-2,3.054236295E-4
1.756152671E0,-2.886253223E-2,2.275406010E-2,3.054236295E-4
1.758534598E0,-2.886253223E-2,2.641914412E-2,3.054236295E-4
1.760916577E0,-2.886253223E-2,2.397575416E-2,-9.162708884E-4
1.763298556E0,-3.008422814E-2,2.153236605E-2,-9.162708884E-4
1.765680483E0,-3.008422814E-2,2.031067200E-2,-9.162708884E-4
1.768062462E0,-3.130592033E-2,1.786728203E-2,-9.162708884E-4
1.770444441E0,-3.252761811E-2,1.542389300E-2,3.054236295E-4
1.772826421E0,-3.008422814E-2,1.053711493E-2,1.527118147E-3
1.775208348E0,-3.374931216E-2,6.872031838E-3,3.054236295E-4
1.777590327E0,-3.497100621E-2,3.359660041E-3,3.054236295E-4
1.779972306E0,-3.619270027E-2,-1.527118147E-3,3.054236295E-4
1.782354233E0,-3.619270027E-2,-7.635590620E-3,3.054236295E-4
1.784736212E0,-3.741439432E-2,-1.130067464E-2,3.054236295E-4
1.787118191E0,-3.863608837E-2,-1.374406368E-2,3.054236295E-4
1.789500171E0,-4.107947648E-2,-1.740914769E-2,-9.162708884E-4
1.791882098E0,-4.230117425E-2,-1.863084175E-2,3.054236295E-4
1.794264077E0,-4.352286831E-2,-1.985253580E-2,1.527118147E-3
1.796646056E0,-4.489727318E-2,-1.618745178E-2,-9.162708884E-4
1.799028035E0,-4.474456236E-2,-1.740914769E-2,-9.162708884E-4
1.801409962E0,-4.489727318E-2,-1.130067464E-2,1.527118147E-3
1.803791941E0,-4.489727318E-2,-8.857285604E-3,-9.162708884E-4
1.806173921E0,-4.489727318E-2,-3.970507067E-3,3.054236295E-4
1.808555848E0,-4.489727318E-2,4.428642802E-3,3.054236295E-4
1.810937827E0,-4.367557913E-2,1.175880991E-2,-1.068982761E-3
1.813319806E0,-4.245388508E-2,1.786728203E-2,-1.068982761E-3
1.815701785E0,-4.016320780E-2,2.504473738E-2,-2.290677279E-3
1.818083712E0,-4.016320780E-2,3.237490356E-2,-3.512371797E-3
1.820465691E0,-3.771981969E-2,3.970507160E-2,-2.290677279E-3
1.822847671E0,-3.649812192E-2,4.566083103E-2,-2.290677279E-3
1.825229598E0,-3.161134571E-2,4.932591692E-2,-4.734066315E-3
1.827611577E0,-3.161134571E-2,5.665608495E-2,-4.734066315E-3
1.829993556E0,-3.038965166E-2,5.909947306E-2,-3.512371797E-3
1.832375535E0,-2.794626169E-2,5.909947306E-2,-3.512371797E-3
1.834757462E0,-2.535016090E-2,6.032116711E-2,-3.512371797E-3
1.837139441E0,-2.412846684E-2,6.154286116E-2,-5.955760833E-3
1.839521421E0,-2.168507688E-2,6.276455522E-2,-2.290677279E-3
1.841903348E0,-2.046338283E-2,6.520794332E-2,-2.290677279E-3
1.844285327E0,-1.924168877E-2,6.520794332E-2,-2.290677279E-3
1.846667306E0,-1.801999472E-2,6.642963737E-2,-3.512371797E-3
1.849049285E0,-1.435491070E-2,6.887302548E-2,-3.512371797E-3
1.851431212E0,-1.313321572E-2,6.887302548E-2,-4.734066315E-3
1.853813191E0,-9.315420873E-3,7.131642103E-2,-4.734066315E-3
1.856195171E0,-8.093725890E-3,7.131642103E-2,-7.177455351E-3
1.858577150E0,-5.650337320E-3,7.375980914E-2,-8.399149403E-3
1.860959077E0,-6.872031838E-3,7.375980914E-2,-7.177455351E-3
1.863341056E0,-5.650337320E-3,7.864658535E-2,-1.084253844E-2
1.865723035E0,-3.206948051E-3,7.864658535E-2,-1.206423342E-2
1.868104962E0,-1.985253533E-3,7.986827940E-2,-1.450762246E-2
1.870486941E0,-1.985253533E-3,8.338065445E-2,-1.450762246E-2
1.872868921E0,-1.985253533E-3,8.108997345E-2,-1.572931744E-2
1.875250900E0,-3.359660041E-3,8.215895295E-2,-1.817270555E-2
1.877632827E0,-7.024743594E-3,8.215895295E-2,-2.061609551E-2
1.880014806E0,-7.024743594E-3,8.215895295E-2,-2.061609551E-2
1.882396785E0,-7.024743594E-3,8.215895295E-2,-2.061609551E-2
1.884778764E0,-8.246437646E-3,7.849387079E-2,-2.183778957E-2
1.887160691E0,-1.191152167E-2,7.727217674E-2,-2.183778957E-2
1.889542671E0,-1.191152167E-2,7.482878864E-2,-2.305948362E-2
1.891924650E0,-1.435491070E-2,7.482878864E-2,-1.939439960E-2
1.894306577E0,-1.557660475E-2,7.116370648E-2,-1.939439960E-2
1.896688556E0,-1.679829881E-2,6.872031838E-2,-1.817270555E-2
1.899070535E0,-1.801999472E-2,6.642963737E-2,-1.939439960E-2
1.901452514E0,-2.183778957E-2,6.642963737E-2,-1.572931744E-2
1.903834441E0,-2.428117767E-2,5.909947306E-2,-1.328592747E-2
1.906216421E0,-2.794626169E-2,5.176930502E-2,-1.328592747E-2
1.908598400E0,-3.161134571E-2,4.566083103E-2,-1.084253844E-2
1.910980327E0,-3.283303976E-2,3.970507160E-2,-9.620844387E-3
1.913362306E0,-3.268032894E-2,3.481829539E-2,-8.399149403E-3
1.915744285E0,-3.771981969E-2,2.993151546E-2,-7.177455351E-3
1.918126212E0,-3.771981969E-2,2.626643144E-2,-8.399149403E-3
1.920508191E0,-3.634541109E-2,2.504473738E-2,-8.399149403E-3
1.922890171E0,-3.634541109E-2,2.382304333E-2,-7.177455351E-3
1.925272150E0,-3.634541109E-2,2.626643144E-2,-8.399149403E-3
1.927654077E0,-3.512371704E-2,2.748812735E-2,-7.177455351E-3
1.930036056E0,-3.390202299E-2,2.870982140E-2,-8.399149403E-3
1.932418035E0,-3.390202299E-2,3.115320951E-2,-8.399149403E-3
1.934800014E0,-3.268032894E-2,2.993151546E-2,-1.084253844E-2
1.937181941E0,-3.145863488E-2,3.359659761E-2,-1.084253844E-2
1.939563921E0,-3.161134571E-2,3.848337755E-2,-1.206423342E-2
1.941945900E0,-3.023693897E-2,4.092676565E-2,-1.206423342E-2
1.944327827E0,-2.916795574E-2,4.688252881E-2,-1.328592747E-2
1.946709806E0,-3.038965166E-2,4.932591692E-2,-1.572931744E-2
1.949091785E0,-3.038965166E-2,5.176930502E-2,-1.695101149E-2
1.951473764E0,-2.916795574E-2,5.665608495E-2,-1.695101149E-2
1.953855691E0,-2.794626169E-2,5.543438718E-2,-1.939439960E-2
1.956237671E0,-2.672456764E-2,5.543438718E-2,-2.061609551E-2
1.958619650E0,-2.550287358E-2,5.543438718E-2,-2.183778957E-2
1.961001577E0,-2.550287358E-2,5.543438718E-2,-2.305948362E-2
1.963383556E0,-2.305948362E-2,5.421269313E-2,-2.428117767E-2
1.965765535E0,-2.305948362E-2,5.665608495E-2,-2.183778957E-2
1.968147514E0,-2.428117767E-2,5.787777901E-2,-2.305948362E-2
1.970529441E0,-2.183778957E-2,5.421269313E-2,-2.428117767E-2
1.972911421E0,-2.046338283E-2,5.299099907E-2,-2.428117767E-2
1.975293400E0,-2.046338283E-2,5.176930502E-2,-2.183778957E-2
1.977675379E0,-2.168507688E-2,4.810422286E-2,-2.305948362E-2
1.980057306E0,-2.168507688E-2,4.566083103E-2,-2.305948362E-2
1.982439285E0,-2.046338283E-2,4.321744293E-2,-2.183778957E-2
1.984821264E0,-2.046338283E-2,4.199574888E-2,-2.305948362E-2
1.987203191E0,-2.168507688E-2,4.092676565E-2,-2.183778957E-2
1.989585171E0,-1.924168877E-2,4.092676565E-2,-2.061609551E-2
1.991967150E0,-1.786728203E-2,3.848337755E-2,-1.817270555E-2
1.994349129E0,-1.786728203E-2,4.092676565E-2,-1.572931744E-2
1.996731056E0,-1.664558798E-2,4.337015375E-2,-1.695101149E-2
1.999113035E0,-1.298050396E-2,4.337015375E-2,-1.572931744E-2
2.001495014E0,-1.298050396E-2,4.459185153E-2,-1.450762246E-2
2.003876993E0,-1.298050396E-2,4.703523964E-2,-1.450762246E-2
2.006258921E0,-1.053711493E-2,4.825693369E-2,-1.328592747E-2
2.008640900E0,-1.053711493E-2,5.192201585E-2,-1.084253844E-2
2.011022879E0,-9.315420873E-3,5.436540768E-2,-9.620844387E-3
2.013404858E0,-9.315420873E-3,5.436540768E-2,-1.084253844E-2
2.015786785E0,-8.093725890E-3,5.680879578E-2,-9.620844387E-3
2.018168764E0,-6.872031838E-3,5.925218388E-2,-1.084253844E-2
2.020550743E0,-6.872031838E-3,6.047387794E-2,-9.620844387E-3
2.022932671E0,-6.872031838E-3,6.276455522E-2,-8.399149403E-3
2.025314650E0,-8.093725890E-3,6.398624927E-2,-7.177455351E-3
2.027696629E0,-9.315420873E-3,6.642963737E-2,-5.955760833E-3
2.030078556E0,-1.053711493E-2,6.642963737E-2,-8.399149403E-3
2.032460535E0,-9.315420873E-3,6.887302548E-2,-8.399149403E-3
2.034842514E0,-1.053711493E-2,7.253811508E-2,-7.177455351E-3
2.037224493E0,-1.068982668E-2,7.375980914E-2,-8.399149403E-3
2.039606421E0,-1.068982668E-2,7.375980914E-2,-9.620844387E-3
2.041988400E0,-1.191152167E-2,7.620319724E-2,-1.084253844E-2
2.044370379E0,-1.191152167E-2,7.727217674E-2,-1.206423342E-2
2.046752306E0,-1.313321572E-2,7.727217674E-2,-1.084253844E-2
2.049134285E0,-1.313321572E-2,7.727217674E-2,-1.206423342E-2
2.051516264E0,-1.313321572E-2,7.727217674E-2,-1.206423342E-2
2.053898243E0,-1.313321572E-2,7.375980914E-2,-1.450762246E-2
2.056280171E0,-1.313321572E-2,7.605048269E-2,-1.817270555E-2
2.058662150E0,-1.313321572E-2,7.482878864E-2,-1.817270555E-2
2.061044129E0,-1.435491070E-2,7.131642103E-2,-1.695101149E-2
2.063426056E0,-1.191152167E-2,7.131642103E-2,-1.572931744E-2
2.065808035E0,-1.191152167E-2,6.642963737E-2,-1.817270555E-2
2.068190014E0,-1.313321572E-2,6.398624927E-2,-1.939439960E-2
2.070571993E0,-1.435491070E-2,6.276455522E-2,-2.061609551E-2
2.072953921E0,-1.557660475E-2,6.154286116E-2,-1.939439960E-2
2.075335900E0,-1.435491070E-2,5.665608495E-2,-2.061609551E-2
2.077717879E0,-1.679829881E-2,5.665608495E-2,-1.939439960E-2
2.080099858E0,-1.557660475E-2,5.543438718E-2,-1.695101149E-2
2.082481785E0,-1.679829881E-2,5.176930502E-2,-1.817270555E-2
2.084863764E0,-1.679829881E-2,5.176930502E-2,-1.695101149E-2
2.087245743E0,-1.542389300E-2,4.947862774E-2,-1.572931744E-2
2.089627723E0,-1.298050396E-2,4.825693369E-2,-1.572931744E-2
2.092009650E0,-1.679829881E-2,4.947862774E-2,-1.450762246E-2
2.094391629E0,-1.679829881E-2,4.825693369E-2,-1.572931744E-2
2.096773608E0,-1.542389300E-2,4.947862774E-2,-1.206423342E-2
2.099155535E0,-1.420219894E-2,5.192201585E-2,-1.328592747E-2
2.101537514E0,-1.420219894E-2,5.070032179E-2,-1.206423342E-2
2.103919493E0,-1.420219894E-2,5.436540768E-2,-1.084253844E-2
2.106301421E0,-1.175880991E-2,5.680879578E-2,-8.399149403E-3
2.108683400E0,-1.053711493E-2,5.436540768E-2,-9.620844387E-3
2.111065379E0,-1.175880991E-2,5.314370990E-2,-9.620844387E-3
2.113447358E0,-1.053711493E-2,5.436540768E-2,-8.399149403E-3
2.115829337E0,-1.053711493E-2,5.558710173E-2,-8.399149403E-3
2.118211264E0,-1.053711493E-2,5.558710173E-2,-9.620844387E-3
2.120593243E0,-1.053711493E-2,5.314370990E-2,-1.206423342E-2
2.122975223E0,-1.053711493E-2,5.436540768E-2,-1.084253844E-2
2.125357150E0,-1.053711493E-2,5.070032179E-2,-9.620844387E-3
2.127739129E0,-9.315420873E-3,4.947862774E-2,-1.084253844E-2
2.130121108E0,-8.093725890E-3,4.703523964E-2,-1.328592747E-2
2.132503035E0,-8.093725890E-3,4.703523964E-2,-1.206423342E-2
2.134885014E0,-6.719320081E-3,4.459185153E-2,-1.328592747E-2
2.137266993E0,-8.093725890E-3,4.581354558E-2,-1.328592747E-2
2.139648973E0,-5.497625098E-3,4.459185153E-2,-1.695101149E-2
2.142030900E0,-5.497625098E-3,4.459185153E-2,-1.695101149E-2
2.144412879E0,-3.054236295E-3,4.459185153E-2,-1.939439960E-2
2.146794858E0,-3.054236295E-3,4.337015375E-2,-1.939439960E-2
2.149176837E0,-4.275931045E-3,4.337015375E-2,-1.939439960E-2
2.151558764E0,-6.872031838E-3,4.214845970E-2,-2.183778957E-2
2.153940743E0,-6.872031838E-3,4.459185153E-2,-2.305948362E-2
2.156322723E0,-8.093725890E-3,4.337015375E-2,-2.305948362E-2
2.158704650E0,-1.053711493E-2,4.214845970E-2,-2.183778957E-2
2.161086629E0,-9.315420873E-3,4.337015375E-2,-2.428117767E-2
2.163468608E0,-9.315420873E-3,4.337015375E-2,-2.305948362E-2
2.165850587E0,-1.175880991E-2,4.092676565E-2,-2.550287358E-2
2.168232514E0,-1.298050396E-2,4.214845970E-2,-2.428117767E-2
2.170614493E0,-1.420219894E-2,4.214845970E-2,-2.183778957E-2
2.172996473E0,-1.298050396E-2,4.092676565E-2,-2.183778957E-2
2.175378400E0,-1.542389300E-2,3.848337755E-2,-2.305948362E-2
2.177760379E0,-1.664558798E-2,3.848337755E-2,-2.061609551E-2
2.180142358E0,-1.664558798E-2,3.848337755E-2,-1.817270555E-2
2.182524337E0,-1.786728203E-2,3.603998944E-2,-1.939439960E-2
2.184906264E0,-1.786728203E-2,3.726168349E-2,-1.817270555E-2
2.187288243E0,-2.031067200E-2,3.359659761E-2,-1.695101149E-2
2.189670223E0,-2.031067200E-2,3.237490356E-2,-1.817270555E-2
2.192052202E0,-2.031067200E-2,2.993151546E-2,-1.695101149E-2
2.194434129E0,-2.031067200E-2,2.870982140E-2,-1.817270555E-2
2.196816108E0,-2.290677279E-2,2.870982140E-2,-1.939439960E-2
2.199197671E0,-2.412846684E-2,2.626643144E-2,-1.817270555E-2
2.201626837E0,-2.412846684E-2,2.626643144E-2,-1.817270555E-2
2.204056004E0,-2.412846684E-2,2.382304333E-2,-2.061609551E-2
2.206485691E0,-2.535016090E-2,1.893626526E-2,-2.183778957E-2
2.208915223E0,-2.535016090E-2,1.893626526E-2,-2.428117767E-2
2.211344806E0,-2.535016090E-2,1.771457121E-2,-2.305948362E-2
2.213774389E0,-2.657185495E-2,1.649287529E-2,-2.428117767E-2
2.216203921E0,-2.657185495E-2,1.542389300E-2,-2.428117767E-2
2.218633504E0,-2.535016090E-2,1.420219894E-2,-2.428117767E-2
2.221063087E0,-2.657185495E-2,1.542389300E-2,-2.428117767E-2
2.223492671E0,-2.779355086E-2,1.404948719E-2,-2.550287358E-2
2.225922202E0,-2.779355086E-2,1.527118124E-2,-2.428117767E-2
2.228351785E0,-2.901524492E-2,1.404948719E-2,-2.428117767E-2
2.230781368E0,-2.779355086E-2,1.527118124E-2,-2.428117767E-2
2.233210952E0,-2.901524492E-2,1.649287529E-2,-2.305948362E-2
2.235640483E0,-2.901524492E-2,1.893626526E-2,-2.305948362E-2
2.238070066E0,-3.023693897E-2,2.015795931E-2,-2.305948362E-2
2.240499650E0,-3.023693897E-2,1.893626526E-2,-2.183778957E-2
2.242929181E0,-3.023693897E-2,2.137965336E-2,-2.183778957E-2
2.245358764E0,-3.145863488E-2,2.260134928E-2,-2.061609551E-2
2.247788348E0,-2.901524492E-2,2.382304333E-2,-2.183778957E-2
2.250217931E0,-2.901524492E-2,2.382304333E-2,-2.183778957E-2
2.252647462E0,-2.901524492E-2,2.382304333E-2,-2.061609551E-2
2.255077046E0,-3.145863488E-2,2.748812735E-2,-2.061609551E-2
2.257506629E0,-3.023693897E-2,2.993151546E-2,-1.939439960E-2
2.259936212E0,-3.145863488E-2,2.993151546E-2,-1.695101149E-2
2.262365743E0,-3.145863488E-2,3.115320951E-2,-1.450762246E-2
2.264795327E0,-3.145863488E-2,3.115320951E-2,-1.450762246E-2
2.267224910E0,-2.779355086E-2,3.237490356E-2,-1.328592747E-2
2.269654441E0,-2.657185495E-2,3.237490356E-2,-1.450762246E-2
2.272084025E0,-2.779355086E-2,3.237490356E-2,-1.084253844E-2
2.274513608E0,-2.535016090E-2,3.115320951E-2,-9.620844387E-3
2.276943191E0,-2.412846684E-2,3.237490356E-2,-1.084253844E-2
2.279372723E0,-2.275406010E-2,3.359659761E-2,-7.177455351E-3
2.281802306E0,-1.908897609E-2,3.481829539E-2,-7.177455351E-3
2.284231889E0,-1.908897609E-2,3.481829539E-2,-5.955760833E-3
2.286661473E0,-1.786728203E-2,3.359659761E-2,-7.177455351E-3
2.289091004E0,-1.664558798E-2,3.252761811E-2,-5.803049076E-3
2.291520587E0,-1.664558798E-2,3.497100621E-2,-2.137965523E-3
2.293950171E0,-1.664558798E-2,3.497100621E-2,-3.359660041E-3
2.296379702E0,-1.786728203E-2,3.374931216E-2,-5.803049076E-3
2.298809285E0,-1.527118124E-2,3.252761811E-2,-4.581354558E-3
2.301238868E0,-1.542389300E-2,3.497100621E-2,-5.803049076E-3
2.303668452E0,-1.542389300E-2,3.374931216E-2,-4.581354558E-3
2.306097983E0,-1.404948719E-2,3.252761811E-2,-3.359660041E-3
2.308527566E0,-1.404948719E-2,3.374931216E-2,-4.581354558E-3
2.310957150E0,-1.282779220E-2,3.497100621E-2,-5.803049076E-3
2.313386733E0,-1.282779220E-2,3.252761811E-2,-5.803049076E-3
2.315816264E0,-1.038440317E-2,3.252761811E-2,-4.581354558E-3
2.318245848E0,-9.162709117E-3,3.130592033E-2,-4.581354558E-3
2.320675431E0,-1.038440317E-2,3.252761811E-2,-7.024743594E-3
2.323060223E0,-9.162709117E-3,3.252761811E-2,-8.246437646E-3
2.325442202E0,-6.719320081E-3,3.374931216E-2,-4.581354558E-3
2.327824181E0,-7.941014133E-3,3.008422814E-2,-5.803049076E-3
2.330206108E0,-7.941014133E-3,2.886253223E-2,-8.246437646E-3
2.332588087E0,-7.941014133E-3,2.641914412E-2,-7.024743594E-3
2.334970066E0,-6.719320081E-3,3.008422814E-2,-5.803049076E-3
2.337352046E0,-5.344913341E-3,2.764083818E-2,-7.024743594E-3
2.339733973E0,-6.719320081E-3,2.519745007E-2,-8.246437646E-3
2.342115952E0,-9.162709117E-3,2.519745007E-2,-4.581354558E-3
2.344497931E0,-7.941014133E-3,2.519745007E-2,-5.803049076E-3
2.346879910E0,-1.038440317E-2,2.275406010E-2,-4.581354558E-3
2.349261837E0,-1.038440317E-2,2.519745007E-2,-4.581354558E-3
2.351643816E0,-1.160609815E-2,2.519745007E-2,-3.359660041E-3
2.354025796E0,-1.038440317E-2,2.641914412E-2,-4.581354558E-3
2.356407775E0,-1.160609815E-2,2.641914412E-2,-4.581354558E-3
2.358789702E0,-1.282779220E-2,2.519745007E-2,-2.137965523E-3
2.361171681E0,-1.282779220E-2,2.519745007E-2,-9.162708884E-4
2.363553660E0,-1.038440317E-2,2.275406010E-2,-9.162708884E-4
2.365935587E0,-9.009997360E-3,2.290677279E-2,3.054236295E-4
2.368317566E0,-9.009997360E-3,2.397575416E-2,3.054236295E-4
2.370699546E0,-9.009997360E-3,2.290677279E-2,1.527118147E-3
2.373081525E0,-9.009997360E-3,1.924168877E-2,2.748812549E-3
2.375463452E0,-6.566607859E-3,1.924168877E-2,1.527118147E-3
2.377845431E0,-6.566607859E-3,1.679829881E-2,2.748812549E-3
2.380227410E0,-5.192201585E-3,1.313321572E-2,5.192201585E-3
2.382609337E0,-2.748812549E-3,8.399149403E-3,5.192201585E-3
2.384991316E0,-1.527118147E-3,5.955760833E-3,5.344913341E-3
2.387373296E0,2.137965523E-3,5.955760833E-3,5.344913341E-3
2.389755275E0,3.512371797E-3,2.290677279E-3,7.788302377E-3
2.392137202E0,3.512371797E-3,1.068982761E-3,7.788302377E-3
2.394519181E0,7.177455351E-3,-2.443389036E-3,7.788302377E-3
2.396901160E0,9.773556143E-3,-6.108472589E-3,7.788302377E-3
2.399283139E0,1.221694518E-2,-9.773556143E-3,9.009997360E-3
2.401665066E0,1.343864016E-2,-1.099525020E-2,7.788302377E-3
2.404047046E0,1.603474095E-2,-1.588202827E-2,6.566607859E-3
2.406429025E0,1.725643501E-2,-1.695101149E-2,6.566607859E-3
2.408810952E0,1.725643501E-2,-1.695101149E-2,7.788302377E-3
2.411192931E0,1.969982497E-2,-2.183778957E-2,6.566607859E-3
2.413574910E0,2.214321308E-2,-2.305948362E-2,6.719320081E-3
2.415956889E0,2.214321308E-2,-2.305948362E-2,6.719320081E-3
2.418338816E0,2.351761982E-2,-2.428117767E-2,6.719320081E-3
2.420720796E0,2.473931387E-2,-2.550287358E-2,6.719320081E-3
2.423102775E0,2.596100792E-2,-2.550287358E-2,6.719320081E-3
2.425484754E0,2.596100792E-2,-2.550287358E-2,6.719320081E-3
2.427866681E0,2.473931387E-2,-2.428117767E-2,7.941014133E-3
2.430248660E0,2.473931387E-2,-2.672456764E-2,7.941014133E-3
2.432630639E0,2.351761982E-2,-2.672456764E-2,7.941014133E-3
2.435012566E0,2.596100792E-2,-2.550287358E-2,7.941014133E-3
2.437394546E0,2.351761982E-2,-2.550287358E-2,9.162709117E-3
2.439776525E0,2.351761982E-2,-2.672456764E-2,1.038440317E-2
2.442158504E0,2.351761982E-2,-2.428117767E-2,9.162709117E-3
2.444540431E0,2.473931387E-2,-2.061609551E-2,7.941014133E-3
2.446922410E0,2.596100792E-2,-1.817270555E-2,9.162709117E-3
2.449304389E0,2.458660305E-2,-1.695101149E-2,7.788302377E-3
2.451686368E0,2.336490713E-2,-1.450762246E-2,7.788302377E-3
2.454068296E0,2.458660305E-2,-1.206423342E-2,7.788302377E-3
2.456450275E0,2.458660305E-2,-1.328592747E-2,6.566607859E-3
2.458832254E0,2.214321308E-2,-1.206423342E-2,6.566607859E-3
2.461214233E0,2.336490713E-2,-1.328592747E-2,6.566607859E-3
2.463596160E0,2.092151903E-2,-1.343864016E-2,5.344913341E-3
2.465978139E0,1.969982497E-2,-1.695101149E-2,5.344913341E-3
2.468360118E0,1.725643501E-2,-1.695101149E-2,6.566607859E-3
2.470742046E0,1.725643501E-2,-2.061609551E-2,4.123218823E-3
2.473124025E0,1.725643501E-2,-2.305948362E-2,4.123218823E-3
2.475506004E0,1.603474095E-2,-2.672456764E-2,2.901524538E-3
2.477887983E0,1.359135192E-2,-2.672456764E-2,5.344913341E-3
2.480269910E0,1.359135192E-2,-3.161134571E-2,4.123218823E-3
2.482651889E0,1.481304597E-2,-3.405473381E-2,4.275931045E-3
2.485033868E0,1.603474095E-2,-3.283303976E-2,6.719320081E-3
2.487415848E0,1.603474095E-2,-3.405473381E-2,6.719320081E-3
2.489797775E0,1.603474095E-2,-3.283303976E-2,6.719320081E-3
2.492179754E0,1.603474095E-2,-3.161134571E-2,5.497625098E-3
2.494561733E0,1.603474095E-2,-2.916795574E-2,5.344913341E-3
2.496943660E0,1.847812906E-2,-2.428117767E-2,5.344913341E-3
2.499325639E0,1.847812906E-2,-2.672456764E-2,5.344913341E-3
2.501707618E0,2.092151903E-2,-2.672456764E-2,4.275931045E-3
2.504089598E0,2.092151903E-2,-2.672456764E-2,5.497625098E-3
2.506471525E0,1.969982497E-2,-2.550287358E-2,5.344913341E-3
2.508853504E0,2.107422985E-2,-3.038965166E-2,9.162709117E-3
2.511235483E0,2.107422985E-2,-3.283303976E-2,5.497625098E-3
2.513617462E0,1.985253580E-2,-3.878879920E-2,4.275931045E-3
2.515999389E0,1.985253580E-2,-4.001049697E-2,5.497625098E-3
2.518381368E0,2.107422985E-2,-4.489727318E-2,4.275931045E-3
2.520763348E0,1.985253580E-2,-4.489727318E-2,4.275931045E-3
2.523145275E0,1.985253580E-2,-4.611896724E-2,3.054236295E-3
2.525527254E0,2.107422985E-2,-4.611896724E-2,3.054236295E-3
2.527909233E0,1.985253580E-2,-4.978405312E-2,1.832541777E-3
2.530291212E0,1.985253580E-2,-5.344913527E-2,4.275931045E-3
2.532673139E0,1.985253580E-2,-5.711421743E-2,1.832541777E-3
2.535055118E0,1.985253580E-2,-6.062658876E-2,3.054236295E-3
2.537437098E0,1.740914769E-2,-6.062658876E-2,3.054236295E-3
2.539819077E0,1.740914769E-2,-5.589252338E-2,3.054236295E-3
2.542201004E0,1.359135192E-2,-5.344913527E-2,-6.108472589E-4
2.544582983E0,9.926267900E-3,-4.749337584E-2,-1.832541777E-3
2.546964962E0,7.330167107E-3,-4.382828996E-2,-7.635590737E-4
2.549346889E0,3.665083554E-3,-4.016320780E-2,-1.985253533E-3
2.551728868E0,-1.527118147E-4,-3.771981969E-2,-4.428642802E-3
2.554110848E0,-2.596100792E-3,-3.176405653E-2,-4.428642802E-3
2.556492827E0,-5.039489828E-3,-2.932066843E-2,-4.428642802E-3
2.558874754E0,-7.635590620E-3,-2.809897438E-2,-3.206948051E-3
2.561256733E0,-1.130067464E-2,-2.565558441E-2,-5.650337320E-3
2.563638712E0,-1.634016447E-2,-2.336490713E-2,-4.428642802E-3
2.566020691E0,-1.756185852E-2,-2.336490713E-2,-5.650337320E-3
2.568402618E0,-2.122694254E-2,-2.214321308E-2,-7.024743594E-3
2.570784598E0,-2.382304333E-2,-2.458660305E-2,-9.468132630E-3
2.573166577E0,-2.244863659E-2,-3.069507517E-2,-8.246437646E-3
2.575548504E0,-2.489202656E-2,-3.436015919E-2,-8.093725890E-3
2.577930483E0,-2.733541466E-2,-3.665083647E-2,-6.872031838E-3
2.580312462E0,-2.611372061E-2,-3.787253052E-2,-6.872031838E-3
2.582694441E0,-2.489202656E-2,-4.153761268E-2,-6.872031838E-3
2.585076368E0,-2.611372061E-2,-4.275930673E-2,-9.315420873E-3
2.587458348E0,-2.244863659E-2,-4.520269856E-2,-5.650337320E-3
2.589840327E0,-1.985253580E-2,-4.520269856E-2,-4.428642802E-3
2.592222306E0,-1.740914769E-2,-4.886778072E-2,-5.650337320E-3
2.594604233E0,-1.374406368E-2,-4.398100078E-2,-6.872031838E-3
2.596986212E0,-8.704573847E-3,-4.382828996E-2,-5.650337320E-3
2.599368191E0,-6.261184346E-3,-4.504998401E-2,-5.650337320E-3
2.601750118E0,-1.221694518E-3,-4.382828996E-2,-1.985253533E-3
2.604132098E0,-2.596100792E-3,-4.627167806E-2,-4.428642802E-3
2.606514077E0,-1.221694518E-3,-5.115845799E-2,-4.428642802E-3
2.608896056E0,1.221694518E-3,-5.360184610E-2,-3.206948051E-3
2.611277983E0,2.443389036E-3,-5.482354015E-2,-4.428642802E-3
2.613659962E0,2.443389036E-3,-5.482354015E-2,-4.428642802E-3
2.616041941E0,2.443389036E-3,-5.711421743E-2,-4.428642802E-3
2.618423921E0,1.221694518E-3,-6.077930331E-2,6.108472589E-4
2.620805848E0,2.596100792E-3,-6.077930331E-2,6.108472589E-4
2.623187827E0,0.000000000E0,-6.200099736E-2,-6.108472589E-4
2.625569806E0,-1.221694518E-3,-6.077930331E-2,6.108472589E-4
2.627951785E0,-3.665083554E-3,-6.077930331E-2,6.108472589E-4
2.630333712E0,-6.108472589E-3,-5.833591148E-2,3.054236295E-3
2.632715691E0,-4.886778072E-3,-5.833591148E-2,-7.635590737E-4
2.635097671E0,-6.108472589E-3,-5.482354015E-2,1.679830020E-3
2.637479598E0,-6.261184346E-3,-5.115845799E-2,1.679830020E-3
2.639861577E0,-4.886778072E-3,-4.993676394E-2,2.901524538E-3
2.642243556E0,-3.665083554E-3,-4.749337584E-2,1.679830020E-3
2.644625535E0,-5.039489828E-3,-4.504998401E-2,1.679830020E-3
2.647007462E0,-3.817795310E-3,-3.894151375E-2,2.901524538E-3
2.649389441E0,-3.817795310E-3,-3.405473381E-2,2.901524538E-3
2.651771421E0,-1.374406274E-3,-2.932066843E-2,1.679830020E-3
2.654153348E0,1.068982761E-3,-2.809897438E-2,1.679830020E-3
2.656535327E0,1.068982761E-3,-2.443389036E-2,1.679830020E-3
2.658917306E0,2.290677279E-3,-2.199050039E-2,4.123218823E-3
2.661299285E0,3.512371797E-3,-2.076880634E-2,1.679830020E-3
2.663681212E0,4.886778072E-3,-2.321219631E-2,4.123218823E-3
2.666063191E0,7.330167107E-3,-2.199050039E-2,4.123218823E-3
2.668445171E0,8.551862091E-3,-1.954711229E-2,2.901524538E-3
2.670827150E0,9.773556143E-3,-2.199050039E-2,2.901524538E-3
2.673209077E0,8.551862091E-3,-2.550287358E-2,5.344913341E-3
2.675591056E0,8.551862091E-3,-2.550287358E-2,2.901524538E-3
2.677973035E0,8.551862091E-3,-2.794626169E-2,2.901524538E-3
2.680355014E0,9.773556143E-3,-3.283303976E-2,2.901524538E-3
2.682736941E0,9.773556143E-3,-3.405473381E-2,1.679830020E-3
2.685118921E0,1.114796288E-2,-3.649812192E-2,2.901524538E-3
2.687500900E0,8.551862091E-3,-3.894151375E-2,1.679830020E-3
2.689882827E0,7.330167107E-3,-4.138490185E-2,4.581354442E-4
2.692264806E0,7.330167107E-3,-4.382828996E-2,4.581354442E-4
2.694646785E0,7.330167107E-3,-4.382828996E-2,4.581354442E-4
2.697028712E0,7.330167107E-3,-4.504998401E-2,-7.635590737E-4
2.699410691E0,7.482878864E-3,-4.749337584E-2,-7.635590737E-4
2.701792671E0,4.886778072E-3,-4.749337584E-2,-7.635590737E-4
2.704174650E0,3.665083554E-3,-4.871506989E-2,-1.985253533E-3
2.706556577E0,3.665083554E-3,-4.871506989E-2,-7.635590737E-4
2.708938556E0,1.221694518E-3,-5.115845799E-2,-1.985253533E-3
2.711320535E0,1.221694518E-3,-5.115845799E-2,-1.985253533E-3
2.713702514E0,0.000000000E0,-5.238015205E-2,-7.635590737E-4
2.716084441E0,0.000000000E0,-5.467082933E-2,1.832541777E-3
2.718466421E0,-1.221694518E-3,-5.589252338E-2,-7.635590737E-4
2.720848400E0,-3.665083554E-3,-5.726693198E-2,-7.635590737E-4
2.723230379E0,-6.108472589E-3,-5.726693198E-2,4.581354442E-4
2.725612306E0,-4.886778072E-3,-5.955760926E-2,4.581354442E-4
2.727994285E0,-8.704573847E-3,-6.093201414E-2,-7.635590737E-4
2.730376264E0,-9.926267900E-3,-5.971032009E-2,-1.985253533E-3
2.732758191E0,-1.114796288E-2,-6.093201414E-2,-1.985253533E-3
2.735140171E0,-1.236965694E-2,-5.971032009E-2,-3.206948051E-3
2.737522150E0,-1.359135192E-2,-5.971032009E-2,-3.206948051E-3
2.739904129E0,-1.359135192E-2,-5.971032009E-2,-7.635590737E-4
2.742286056E0,-1.481304597E-2,-6.093201414E-2,-3.206948051E-3
2.744668035E0,-1.481304597E-2,-6.093201414E-2,-7.635590737E-4
2.747050014E0,-1.603474095E-2,-5.971032009E-2,-7.635590737E-4
2.749431993E0,-1.725643501E-2,-6.093201414E-2,-7.635590737E-4
2.751813921E0,-1.603474095E-2,-5.971032009E-2,-3.206948051E-3
2.754195900E0,-1.863084175E-2,-5.726693198E-2,-7.635590737E-4
2.756577879E0,-1.985253580E-2,-5.726693198E-2,4.581354442E-4
2.758959858E0,-1.985253580E-2,-5.604523420E-2,1.679830020E-3
2.761341785E0,-1.740914769E-2,-5.360184610E-2,-7.635590737E-4
2.763723764E0,-1.740914769E-2,-4.993676394E-2,1.679830020E-3
2.766105743E0,-1.740914769E-2,-4.749337584E-2,1.679830020E-3
2.768487723E0,-1.496575773E-2,-4.260659590E-2,1.679830020E-3
2.770869650E0,-1.252236869E-2,-3.787253052E-2,2.901524538E-3
2.773251629E0,-1.114796288E-2,-3.542914242E-2,2.901524538E-3
2.775633608E0,-9.926267900E-3,-3.420744836E-2,1.679830020E-3
2.778015535E0,-7.482878864E-3,-3.298575059E-2,2.901524538E-3
2.780397514E0,-7.482878864E-3,-2.932066843E-2,2.901524538E-3
2.782779493E0,-3.817795310E-3,-2.687728032E-2,4.581354442E-4
2.785161473E0,-1.527118147E-4,-2.687728032E-2,4.581354442E-4
2.787543400E0,-1.527118147E-4,-2.932066843E-2,4.581354442E-4
2.789925379E0,2.290677279E-3,-2.565558441E-2,-7.635590737E-4
2.792307358E0,4.734066315E-3,-2.321219631E-2,-1.985253533E-3
2.794689337E0,7.330167107E-3,-2.565558441E-2,-1.985253533E-3
2.797071264E0,6.108472589E-3,-2.443389036E-2,-3.206948051E-3
2.799453243E0,8.551862091E-3,-3.038965166E-2,-1.985253533E-3
2.801835223E0,1.221694518E-2,-3.038965166E-2,-1.985253533E-3
2.804217202E0,9.773556143E-3,-3.161134571E-2,-5.650337320E-3
2.806599129E0,9.773556143E-3,-3.405473381E-2,-5.650337320E-3
2.808981108E0,9.773556143E-3,-3.649812192E-2,-7.635590737E-4
2.811363087E0,9.773556143E-3,-4.016320780E-2,-3.206948051E-3
2.813745014E0,8.551862091E-3,-4.016320780E-2,-1.985253533E-3
2.816126993E0,9.926267900E-3,-4.138490185E-2,-3.206948051E-3
2.818508973E0,9.926267900E-3,-4.504998401E-2,-3.206948051E-3
2.820890900E0,9.926267900E-3,-4.627167806E-2,-4.428642802E-3
2.823272879E0,9.926267900E-3,-4.504998401E-2,-3.206948051E-3
2.825654858E0,9.926267900E-3,-4.382828996E-2,-1.985253533E-3
2.828036837E0,8.551862091E-3,-4.260659590E-2,-3.206948051E-3
2.830418764E0,4.886778072E-3,-4.260659590E-2,-1.985253533E-3
2.832800743E0,3.665083554E-3,-4.138490185E-2,-7.635590737E-4
2.835182723E0,3.665083554E-3,-3.894151375E-2,4.581354442E-4
2.837564702E0,3.665083554E-3,-3.527642787E-2,-7.635590737E-4
2.839946629E0,3.665083554E-3,-3.283303976E-2,-7.635590737E-4
2.842328608E0,-1.374406274E-3,-3.054236248E-2,4.581354442E-4
2.844710587E0,-1.527118147E-4,-2.932066843E-2,4.581354442E-4
2.847092566E0,-1.527118147E-4,-2.932066843E-2,4.581354442E-4
2.849474493E0,-1.527118147E-4,-2.565558441E-2,2.901524538E-3
2.851856473E0,-1.374406274E-3,-2.321219631E-2,2.901524538E-3
2.854238452E0,-2.596100792E-3,-2.199050039E-2,2.901524538E-3
2.856620431E0,-2.596100792E-3,-1.832541823E-2,5.344913341E-3
2.859002358E0,-5.039489828E-3,-2.076880634E-2,5.344913341E-3
2.861384337E0,-7.482878864E-3,-2.199050039E-2,6.566607859E-3
2.863766316E0,-6.261184346E-3,-2.199050039E-2,1.023169141E-2
2.866148296E0,-6.261184346E-3,-2.565558441E-2,1.145338640E-2
2.868530223E0,-5.039489828E-3,-2.809897438E-2,9.009997360E-3
2.870912202E0,-3.817795310E-3,-3.161134571E-2,9.009997360E-3
2.873294181E0,-3.817795310E-3,-3.649812192E-2,9.009997360E-3
2.875676108E0,-3.665083554E-3,-3.894151375E-2,1.023169141E-2
2.878058087E0,-4.886778072E-3,-4.138490185E-2,9.009997360E-3
2.880440066E0,-3.665083554E-3,-4.382828996E-2,9.009997360E-3
2.882822046E0,-4.886778072E-3,-4.382828996E-2,9.009997360E-3
2.885203973E0,-2.443389036E-3,-4.627167806E-2,1.038440317E-2
2.887585952E0,-3.665083554E-3,-4.138490185E-2,9.009997360E-3
2.889967931E0,-2.443389036E-3,-4.382828996E-2,9.009997360E-3
2.892349910E0,-1.221694518E-3,-4.138490185E-2,7.788302377E-3
2.894731837E0,0.000000000E0,-4.016320780E-2,7.788302377E-3
2.897113816E0,1.221694518E-3,-4.138490185E-2,6.566607859E-3
2.899495796E0,0.000000000E0,-3.771981969E-2,7.788302377E-3
2.901877775E0,2.443389036E-3,-3.405473381E-2,5.344913341E-3
2.904259702E0,2.443389036E-3,-3.649812192E-2,6.566607859E-3
2.906641681E0,2.443389036E-3,-3.283303976E-2,6.566607859E-3
2.909023660E0,2.443389036E-3,-3.161134571E-2,4.123218823E-3
2.911405587E0,2.443389036E-3,-3.038965166E-2,2.901524538E-3
2.913787566E0,2.443389036E-3,-2.916795574E-2,2.901524538E-3
2.916169546E0,2.443389036E-3,-2.809897438E-2,1.679830020E-3
2.918551525E0,1.068982761E-3,-2.565558441E-2,1.679830020E-3
2.920933452E0,-2.596100792E-3,-2.443389036E-2,4.581354442E-4
2.923315431E0,-2.596100792E-3,-2.321219631E-2,-7.635590737E-4
2.925697410E0,-3.817795310E-3,-2.321219631E-2,-7.635590737E-4
2.928079389E0,-5.192201585E-3,-2.321219631E-2,-1.985253533E-3
2.930461316E0,-5.039489828E-3,-2.199050039E-2,4.581354442E-4
2.932843296E0,-5.192201585E-3,-2.076880634E-2,-7.635590737E-4
2.935225275E0,-6.413896102E-3,-2.199050039E-2,-7.635590737E-4
2.937607202E0,-7.635590620E-3,-2.443389036E-2,4.581354442E-4
2.939989181E0,-7.635590620E-3,-2.687728032E-2,-7.635590737E-4
2.942371160E0,-7.635590620E-3,-2.687728032E-2,-7.635590737E-4
2.944753139E0,-1.007897966E-2,-2.809897438E-2,-7.635590737E-4
2.947135066E0,-1.007897966E-2,-2.932066843E-2,1.679830020E-3
2.949517046E0,-9.926267900E-3,-3.176405653E-2,2.901524538E-3
2.951899025E0,-8.704573847E-3,-3.176405653E-2,2.901524538E-3
2.954281004E0,-9.926267900E-3,-3.542914242E-2,2.901524538E-3
2.956662931E0,-9.926267900E-3,-3.665083647E-2,2.901524538E-3
2.959044910E0,-1.114796288E-2,-3.909422457E-2,1.679830020E-3
2.961426889E0,-1.114796288E-2,-3.894151375E-2,4.123218823E-3
2.963808816E0,-9.926267900E-3,-3.771981969E-2,5.344913341E-3
2.966190796E0,-9.926267900E-3,-3.649812192E-2,5.344913341E-3
2.968572775E0,-1.236965694E-2,-4.016320780E-2,5.344913341E-3
2.970954754E0,-1.236965694E-2,-4.016320780E-2,5.344913341E-3
2.973336681E0,-1.481304597E-2,-4.138490185E-2,6.566607859E-3
2.975718660E0,-1.359135192E-2,-3.894151375E-2,6.566607859E-3
2.978100639E0,-1.359135192E-2,-3.894151375E-2,6.566607859E-3
2.980482618E0,-1.618745178E-2,-3.909422457E-2,6.566607859E-3
2.982864546E0,-1.618745178E-2,-3.787253052E-2,6.566607859E-3
2.985246525E0,-1.618745178E-2,-4.031591862E-2,5.344913341E-3
2.987628504E0,-1.618745178E-2,-3.787253052E-2,6.566607859E-3
2.990010483E0,-1.496575773E-2,-3.787253052E-2,6.566607859E-3
2.992392410E0,-1.618745178E-2,-3.787253052E-2,5.344913341E-3
2.994774389E0,-1.496575773E-2,-3.894151375E-2,6.566607859E-3
2.997156368E0,-1.618745178E-2,-3.909422457E-2,6.566607859E-3
2.999538348E0,-1.618745178E-2,-3.665083647E-2,6.566607859E-3
3.001920275E0,-1.496575773E-2,-3.787253052E-2,6.566607859E-3
3.004302254E0,-1.618745178E-2,-3.665083647E-2,6.566607859E-3
3.006684233E0,-1.618745178E-2,-3.894151375E-2,9.009997360E-3
3.009066160E0,-1.359135192E-2,-3.771981969E-2,7.788302377E-3
3.011448139E0,-1.114796288E-2,-3.542914242E-2,5.344913341E-3
3.013830118E0,-8.704573847E-3,-3.649812192E-2,6.566607859E-3
3.016212098E0,-6.261184346E-3,-3.527642787E-2,5.344913341E-3
3.018594025E0,-3.817795310E-3,-3.161134571E-2,7.788302377E-3
3.020976004E0,0.000000000E0,-3.038965166E-2,6.566607859E-3
3.023357983E0,1.221694518E-3,-2.565558441E-2,6.566607859E-3
3.025739962E0,3.665083554E-3,-2.321219631E-2,6.566607859E-3
3.028121889E0,3.665083554E-3,-2.199050039E-2,6.566607859E-3
3.030503868E0,6.108472589E-3,-1.710372418E-2,5.344913341E-3
3.032885848E0,7.330167107E-3,-1.466033421E-2,5.344913341E-3
3.035267775E0,6.108472589E-3,-1.343864016E-2,6.566607859E-3
3.037649754E0,4.734066315E-3,-1.343864016E-2,4.123218823E-3
3.040031733E0,5.955760833E-3,-1.221694518E-2,4.123218823E-3
3.042413712E0,4.734066315E-3,-9.773556143E-3,1.679830020E-3
3.044795639E0,2.290677279E-3,-8.704573847E-3,1.679830020E-3
3.047177618E0,3.512371797E-3,-9.773556143E-3,4.123218823E-3
3.049559598E0,2.290677279E-3,-8.551862091E-3,4.123218823E-3
3.051941577E0,1.068982761E-3,-9.926267900E-3,1.679830020E-3
3.054323504E0,1.068982761E-3,-8.704573847E-3,2.901524538E-3
3.056705483E0,2.290677279E-3,-8.551862091E-3,2.901524538E-3
3.059087462E0,3.512371797E-3,-5.039489828E-3,4.123218823E-3
3.061469389E0,4.734066315E-3,-4.886778072E-3,5.344913341E-3
3.063851368E0,5.955760833E-3,-2.596100792E-3,5.344913341E-3
3.066233348E0,5.955760833E-3,-2.596100792E-3,4.123218823E-3
3.068615327E0,8.399149403E-3,-2.443389036E-3,7.788302377E-3
3.070997306E0,7.177455351E-3,-3.665083554E-3,9.009997360E-3
3.073379233E0,7.177455351E-3,-1.374406274E-3,6.566607859E-3
3.075761212E0,7.177455351E-3,-3.665083554E-3,5.344913341E-3
3.078143191E0,7.177455351E-3,-3.665083554E-3,6.566607859E-3
3.080525118E0,4.734066315E-3,-6.108472589E-3,6.566607859E-3
3.082907098E0,2.290677279E-3,-9.773556143E-3,5.344913341E-3
3.085289077E0,-1.527118147E-4,-1.221694518E-2,7.788302377E-3
3.087671056E0,-2.596100792E-3,-1.343864016E-2,6.566607859E-3
3.090052983E0,-3.817795310E-3,-1.588202827E-2,5.344913341E-3
3.092434962E0,-8.857285604E-3,-1.710372418E-2,6.566607859E-3
3.094816941E0,-1.007897966E-2,-1.588202827E-2,7.788302377E-3
3.097198921E0,-1.130067464E-2,-1.954711229E-2,6.566607859E-3
3.099580848E0,-1.496575773E-2,-2.321219631E-2,5.344913341E-3
3.101962827E0,-1.878355257E-2,-2.321219631E-2,5.344913341E-3
3.104344806E0,-1.863084175E-2,-2.565558441E-2,6.566607859E-3
3.106726733E0,-1.863084175E-2,-2.565558441E-2,7.788302377E-3
3.109108712E0,-1.985253580E-2,-2.199050039E-2,1.023169141E-2
3.111490691E0,-2.244863659E-2,-1.969982497E-2,7.788302377E-3
3.113872671E0,-2.122694254E-2,-2.443389036E-2,9.009997360E-3
3.116254598E0,-1.740914769E-2,-2.687728032E-2,9.009997360E-3
3.118636577E0,-1.618745178E-2,-3.054236248E-2,5.344913341E-3
3.121018556E0,-1.496575773E-2,-3.542914242E-2,7.788302377E-3
3.123400535E0,-1.236965694E-2,-4.016320780E-2,9.009997360E-3
3.125782462E0,-1.114796288E-2,-4.382828996E-2,6.566607859E-3
3.128164441E0,-9.926267900E-3,-4.749337584E-2,5.344913341E-3
3.130546421E0,-8.704573847E-3,-4.749337584E-2,4.123218823E-3
3.132928348E0,-7.482878864E-3,-4.504998401E-2,4.581354442E-4
3.135310327E0,-6.261184346E-3,-4.382828996E-2,1.679830020E-3
3.137692306E0,-8.704573847E-3,-4.138490185E-2,-7.635590737E-4
3.140074285E0,-6.261184346E-3,-3.771981969E-2,4.581354442E-4
3.142456264E0,-7.482878864E-3,-3.787253052E-2,-7.635590737E-4
3.144838191E0,-6.261184346E-3,-4.016320780E-2,-3.206948051E-3
3.147220171E0,-6.261184346E-3,-4.382828996E-2,-3.206948051E-3
3.149602150E0,-7.482878864E-3,-4.260659590E-2,-3.206948051E-3
3.151984077E0,-6.261184346E-3,-4.382828996E-2,-3.206948051E-3
3.154366056E0,-6.261184346E-3,-4.627167806E-2,-3.206948051E-3
3.156748035E0,-5.039489828E-3,-4.504998401E-2,-3.206948051E-3
3.159130014E0,-5.039489828E-3,-4.749337584E-2,-5.650337320E-3
3.161511941E0,-5.039489828E-3,-4.627167806E-2,-5.650337320E-3
3.163893921E0,-3.817795310E-3,-4.627167806E-2,-6.872031838E-3
3.166275900E0,-5.039489828E-3,-4.504998401E-2,-4.428642802E-3
3.168657879E0,-6.261184346E-3,-4.504998401E-2,-4.428642802E-3
3.171039806E0,-7.482878864E-3,-4.627167806E-2,-5.650337320E-3
3.173421785E0,-6.261184346E-3,-4.382828996E-2,-3.206948051E-3
3.175803764E0,-7.482878864E-3,-4.260659590E-2,-7.635590737E-4
3.178185743E0,-1.130067464E-2,-3.909422457E-2,-1.985253533E-3
3.180567671E0,-1.114796288E-2,-3.909422457E-2,1.679830020E-3
3.182949650E0,-1.252236869E-2,-3.665083647E-2,4.581354442E-4
3.185331629E0,-1.374406368E-2,-3.787253052E-2,2.901524538E-3
3.187713556E0,-1.496575773E-2,-3.787253052E-2,4.123218823E-3
3.190095535E0,-1.496575773E-2,-3.542914242E-2,4.123218823E-3
3.192477514E0,-1.252236869E-2,-3.542914242E-2,4.123218823E-3
3.194859493E0,-9.926267900E-3,-3.298575059E-2,4.123218823E-3
3.197241421E0,-7.482878864E-3,-3.298575059E-2,5.344913341E-3
3.199623400E0,-2.596100792E-3,-3.161134571E-2,5.344913341E-3
3.202005379E0,-1.374406274E-3,-3.161134571E-2,6.566607859E-3
3.204387358E0,1.221694518E-3,-3.038965166E-2,7.788302377E-3
3.206769285E0,3.665083554E-3,-2.672456764E-2,9.009997360E-3
3.209151264E0,3.665083554E-3,-2.672456764E-2,9.009997360E-3
3.211533243E0,6.108472589E-3,-2.550287358E-2,1.023169141E-2
3.213915171E0,8.551862091E-3,-2.672456764E-2,1.023169141E-2
3.216297150E0,9.926267900E-3,-2.550287358E-2,1.267508045E-2
3.218679129E0,1.114796288E-2,-2.428117767E-2,1.267508045E-2
3.221061108E0,9.773556143E-3,-2.305948362E-2,1.267508045E-2
3.223443087E0,1.114796288E-2,-2.305948362E-2,1.267508045E-2
3.225825014E0,9.926267900E-3,-2.305948362E-2,1.511846948E-2
3.228206993E0,8.551862091E-3,-1.939439960E-2,1.634016447E-2
3.230588973E0,7.330167107E-3,-1.695101149E-2,1.634016447E-2
3.232970900E0,7.330167107E-3,-1.343864016E-2,1.511846948E-2
3.235352879E0,4.886778072E-3,-1.343864016E-2,1.634016447E-2
3.237734858E0,4.886778072E-3,-1.343864016E-2,1.634016447E-2
3.240116837E0,4.886778072E-3,-8.551862091E-3,1.511846948E-2
3.242498764E0,6.108472589E-3,-4.886778072E-3,1.511846948E-2
3.244880743E0,2.290677279E-3,-3.665083554E-3,1.511846948E-2
3.247262723E0,-1.527118147E-4,-2.596100792E-3,1.389677543E-2
3.249644702E0,1.068982761E-3,-1.374406274E-3,1.145338640E-2
3.252026629E0,2.290677279E-3,1.068982761E-3,1.267508045E-2
3.254408608E0,1.068982761E-3,2.290677279E-3,1.267508045E-2
3.256790587E0,-3.054236295E-4,3.512371797E-3,9.009997360E-3
3.259172566E0,-3.054236295E-4,4.734066315E-3,9.009997360E-3
3.261554493E0,9.162708884E-4,4.734066315E-3,6.566607859E-3
3.263936473E0,9.162708884E-4,4.734066315E-3,6.566607859E-3
3.266318452E0,-3.054236295E-4,7.177455351E-3,6.566607859E-3
3.268700379E0,-3.054236295E-4,8.399149403E-3,6.566607859E-3
3.271082358E0,2.137965523E-3,9.620844387E-3,4.123218823E-3
3.273464337E0,2.137965523E-3,9.620844387E-3,2.748812549E-3
3.275846316E0,9.162708884E-4,1.313321572E-2,3.970507067E-3
3.278228243E0,2.137965523E-3,1.084253844E-2,1.527118147E-3
3.280610223E0,9.162708884E-4,1.313321572E-2,1.527118147E-3
3.282992202E0,9.162708884E-4,1.191152167E-2,1.527118147E-3
3.285374181E0,-3.054236295E-4,1.435491070E-2,3.054236295E-4
3.287756108E0,-3.054236295E-4,1.557660475E-2,-9.162708884E-4
3.290138087E0,-3.054236295E-4,1.557660475E-2,3.054236295E-4
3.292520066E0,-1.527118147E-3,1.801999472E-2,3.054236295E-4
3.294902046E0,-1.527118147E-3,1.801999472E-2,1.527118147E-3
3.297283973E0,-1.527118147E-3,1.924168877E-2,2.748812549E-3
3.299665952E0,-1.527118147E-3,1.924168877E-2,3.970507067E-3
3.302047931E0,9.162708884E-4,2.290677279E-2,2.748812549E-3
3.304429910E0,2.137965523E-3,2.412846684E-2,3.970507067E-3
3.306811837E0,2.137965523E-3,2.657185495E-2,2.748812549E-3
3.309193816E0,3.359660041E-3,2.535016090E-2,5.192201585E-3
3.311575796E0,4.581354558E-3,2.535016090E-2,6.413896102E-3
3.313957723E0,7.024743594E-3,2.535016090E-2,7.635590620E-3
3.316339702E0,7.024743594E-3,2.657185495E-2,8.857285604E-3
3.318721681E0,9.620844387E-3,2.657185495E-2,8.857285604E-3
3.321103660E0,9.620844387E-3,2.535016090E-2,8.857285604E-3
3.323485587E0,9.620844387E-3,2.183778957E-2,9.009997360E-3
3.325867566E0,9.620844387E-3,1.817270555E-2,1.023169141E-2
3.328249546E0,9.620844387E-3,1.572931744E-2,1.023169141E-2
3.330631525E0,9.620844387E-3,1.450762246E-2,1.267508045E-2
3.333013452E0,8.399149403E-3,1.328592747E-2,1.145338640E-2
3.335395431E0,8.399149403E-3,8.399149403E-3,1.145338640E-2
3.337777410E0,8.399149403E-3,7.177455351E-3,1.145338640E-2
3.340159389E0,7.177455351E-3,5.955760833E-3,1.145338640E-2
3.342541316E0,8.399149403E-3,4.734066315E-3,1.023169141E-2
3.344923296E0,7.177455351E-3,2.290677279E-3,1.023169141E-2
3.347305275E0,4.734066315E-3,4.734066315E-3,1.267508045E-2
3.349687254E0,5.955760833E-3,4.734066315E-3,1.145338640E-2
3.352069181E0,5.955760833E-3,1.068982761E-3,1.145338640E-2
3.354451160E0,5.955760833E-3,1.068982761E-3,1.145338640E-2
3.356833139E0,5.955760833E-3,-1.221694518E-3,1.023169141E-2
3.359215066E0,5.955760833E-3,-3.665083554E-3,1.023169141E-2
3.361597046E0,2.290677279E-3,-4.886778072E-3,1.145338640E-2
3.363979025E0,2.290677279E-3,-6.108472589E-3,1.145338640E-2
3.366361004E0,3.512371797E-3,-8.551862091E-3,1.023169141E-2
3.368742931E0,2.290677279E-3,-9.773556143E-3,9.009997360E-3
3.371124910E0,1.068982761E-3,-1.221694518E-2,1.023169141E-2
3.373506889E0,1.068982761E-3,-1.466033421E-2,1.023169141E-2
3.375888868E0,-1.527118147E-4,-1.466033421E-2,1.023169141E-2
3.378270796E0,-2.596100792E-3,-1.343864016E-2,7.788302377E-3
3.380652775E0,-3.817795310E-3,-1.588202827E-2,1.023169141E-2
3.383034754E0,-3.817795310E-3,-1.588202827E-2,1.023169141E-2
3.385416733E0,-3.817795310E-3,-1.588202827E-2,1.023169141E-2
3.387798660E0,-3.817795310E-3,-1.588202827E-2,9.009997360E-3
3.390180639E0,-2.596100792E-3,-1.832541823E-2,9.009997360E-3
3.392562618E0,-3.817795310E-3,-1.466033421E-2,7.788302377E-3
3.394944598E0,-3.817795310E-3,-1.221694518E-2,1.023169141E-2
3.397326525E0,-2.596100792E-3,-1.343864016E-2,1.023169141E-2
3.399708504E0,-2.596100792E-3,-1.221694518E-2,9.009997360E-3
3.402090483E0,-2.596100792E-3,-9.773556143E-3,7.788302377E-3
3.404472462E0,-2.596100792E-3,-7.330167107E-3,1.023169141E-2
3.406854389E0,-2.596100792E-3,-6.261184346E-3,1.023169141E-2
3.409236368E0,-5.192201585E-3,-2.596100792E-3,7.788302377E-3
3.411618348E0,-1.527118147E-3,-1.527118147E-4,7.788302377E-3
3.414000275E0,-3.970507067E-3,2.290677279E-3,9.009997360E-3
3.416382254E0,-2.748812549E-3,3.512371797E-3,7.788302377E-3
3.418764233E0,-6.413896102E-3,5.955760833E-3,7.635590620E-3
3.421146212E0,-5.192201585E-3,8.399149403E-3,1.023169141E-2
3.423528139E0,-6.413896102E-3,7.177455351E-3,6.413896102E-3
3.425910118E0,-7.635590620E-3,8.399149403E-3,7.635590620E-3
3.428292098E0,-9.009997360E-3,9.468132630E-3,7.635590620E-3
3.430674077E0,-6.566607859E-3,1.068982668E-2,5.192201585E-3
3.433056004E0,-6.413896102E-3,7.024743594E-3,3.970507067E-3
3.435437983E0,-7.635590620E-3,4.734066315E-3,6.413896102E-3
3.437819962E0,-7.635590620E-3,5.955760833E-3,5.192201585E-3
3.440201941E0,-9.009997360E-3,3.512371797E-3,5.192201585E-3
3.442583868E0,-6.413896102E-3,2.290677279E-3,5.192201585E-3
3.444965848E0,-8.857285604E-3,-1.374406274E-3,6.566607859E-3
3.447347827E0,-1.023169141E-2,2.290677279E-3,3.970507067E-3
3.449729806E0,-1.023169141E-2,-1.374406274E-3,2.748812549E-3
3.452111733E0,-7.635590620E-3,-1.527118147E-4,2.748812549E-3
3.454493712E0,-8.857285604E-3,-3.817795310E-3,1.527118147E-3
3.456875691E0,-7.635590620E-3,-5.039489828E-3,1.679830020E-3
3.459257618E0,-1.007897966E-2,-6.261184346E-3,3.054236295E-4
3.461639598E0,-7.635590620E-3,-8.704573847E-3,-1.985253533E-3
3.464021577E0,-8.857285604E-3,-9.926267900E-3,-3.359660041E-3
3.466403556E0,-7.635590620E-3,-9.926267900E-3,-1.985253533E-3
3.468785483E0,-7.635590620E-3,-1.236965694E-2,-1.985253533E-3
3.471167462E0,-8.857285604E-3,-1.359135192E-2,-1.985253533E-3
3.473549441E0,-8.857285604E-3,-1.359135192E-2,-1.985253533E-3
3.475931421E0,-8.857285604E-3,-1.359135192E-2,-3.206948051E-3
3.478313348E0,-8.857285604E-3,-1.481304597E-2,-4.428642802E-3
3.480695327E0,-8.857285604E-3,-1.359135192E-2,-4.428642802E-3
3.483077306E0,-1.007897966E-2,-1.236965694E-2,-4.581354558E-3
3.485459285E0,-8.857285604E-3,-1.359135192E-2,-4.428642802E-3
3.487841212E0,-8.857285604E-3,-1.359135192E-2,-5.803049076E-3
3.490223191E0,-8.857285604E-3,-1.236965694E-2,-5.803049076E-3
3.492605171E0,-6.413896102E-3,-9.926267900E-3,-4.428642802E-3
3.494987150E0,-7.635590620E-3,-8.704573847E-3,-4.581354558E-3
3.497369077E0,-8.857285604E-3,-9.926267900E-3,-7.024743594E-3
3.499751056E0,-7.635590620E-3,-6.261184346E-3,-5.803049076E-3
3.502133035E0,-6.413896102E-3,-6.261184346E-3,-5.803049076E-3
3.504515014E0,-6.413896102E-3,-2.596100792E-3,-4.581354558E-3
3.506896941E0,-6.413896102E-3,-2.596100792E-3,-4.581354558E-3
3.509278921E0,-6.413896102E-3,-1.374406274E-3,-3.359660041E-3
3.511660900E0,-9.009997360E-3,-1.527118147E-4,-2.137965523E-3
3.514042827E0,-1.023169141E-2,9.162708884E-4,-2.137965523E-3
3.516424806E0,-9.009997360E-3,4.581354558E-3,-9.162708884E-4
3.518806785E0,-1.023169141E-2,5.803049076E-3,-9.162708884E-4
3.521188764E0,-1.145338640E-2,5.803049076E-3,-2.137965523E-3
3.523570691E0,-1.389677543E-2,7.024743594E-3,-9.162708884E-4
3.525952671E0,-1.145338640E-2,1.068982668E-2,3.054236295E-4
3.528334650E0,-1.267508045E-2,1.068982668E-2,-2.137965523E-3
3.530716629E0,-1.404948719E-2,1.679829881E-2,3.054236295E-4
3.533098556E0,-1.282779220E-2,1.801999472E-2,3.054236295E-4
3.535480535E0,-1.404948719E-2,2.031067200E-2,3.054236295E-4
3.537862514E0,-1.404948719E-2,2.275406010E-2,-9.162708884E-4
3.540244493E0,-1.527118124E-2,2.764083818E-2,3.054236295E-4
3.542626421E0,-1.649287529E-2,2.886253223E-2,3.054236295E-4
3.545008400E0,-1.649287529E-2,3.130592033E-2,1.527118147E-3
3.547390379E0,-1.771457121E-2,3.130592033E-2,3.054236295E-4
3.549772358E0,-1.649287529E-2,3.252761811E-2,1.527118147E-3
3.552154285E0,-1.527118124E-2,3.374931216E-2,3.054236295E-4
3.554536264E0,-1.527118124E-2,3.497100621E-2,1.527118147E-3
3.556918243E0,-1.404948719E-2,3.497100621E-2,2.748812549E-3
3.559300223E0,-1.527118124E-2,3.374931216E-2,3.054236295E-4
3.561682150E0,-1.404948719E-2,3.619270027E-2,1.527118147E-3
3.564064129E0,-1.160609815E-2,3.619270027E-2,1.527118147E-3
3.566446108E0,-1.160609815E-2,3.619270027E-2,-9.162708884E-4
3.568828087E0,-1.160609815E-2,3.619270027E-2,-2.137965523E-3
3.571210014E0,-1.160609815E-2,3.374931216E-2,-9.162708884E-4
3.573591993E0,-1.160609815E-2,3.741439432E-2,3.054236295E-4
3.575973973E0,-1.160609815E-2,4.092676565E-2,-3.359660041E-3
3.578355900E0,-1.282779220E-2,3.985778242E-2,-2.137965523E-3
3.580737879E0,-1.282779220E-2,3.970507160E-2,-3.359660041E-3
3.583119858E0,-1.282779220E-2,3.970507160E-2,-3.359660041E-3
3.585501837E0,-1.420219894E-2,4.092676565E-2,-3.359660041E-3
3.587883764E0,-1.542389300E-2,4.337015375E-2,-3.512371797E-3
3.590265743E0,-1.542389300E-2,4.092676565E-2,-5.955760833E-3
3.592647723E0,-1.420219894E-2,4.214845970E-2,-4.734066315E-3
3.595029702E0,-1.542389300E-2,4.092676565E-2,-5.955760833E-3
3.597411629E0,-1.664558798E-2,4.092676565E-2,-4.734066315E-3
3.599793608E0,-1.664558798E-2,3.848337755E-2,-3.359660041E-3
3.602175587E0,-1.542389300E-2,3.848337755E-2,-3.359660041E-3
3.604557566E0,-1.542389300E-2,3.603998944E-2,-5.803049076E-3
3.606939493E0,-1.404948719E-2,3.252761811E-2,-5.803049076E-3
3.609321473E0,-1.160609815E-2,2.886253223E-2,-4.581354558E-3
3.611703452E0,-1.038440317E-2,2.519745007E-2,-3.359660041E-3
3.614085431E0,-1.038440317E-2,1.786728203E-2,-8.246437646E-3
3.616467358E0,-7.788302377E-3,1.435491070E-2,-8.246437646E-3
3.618849337E0,-9.009997360E-3,1.435491070E-2,-7.024743594E-3
3.621231316E0,-7.788302377E-3,1.068982668E-2,-7.024743594E-3
3.623613243E0,-9.009997360E-3,7.024743594E-3,-7.024743594E-3
3.625995223E0,-1.145338640E-2,5.803049076E-3,-5.803049076E-3
3.628377202E0,-1.145338640E-2,3.359660041E-3,-7.024743594E-3
3.630759181E0,-9.009997360E-3,3.359660041E-3,-4.581354558E-3
3.633141108E0,-1.023169141E-2,3.359660041E-3,-4.581354558E-3
3.635523087E0,-1.023169141E-2,2.137965523E-3,-5.803049076E-3
3.637905066E0,-1.023169141E-2,8.246437646E-3,-4.581354558E-3
3.640287046E0,-9.009997360E-3,8.246437646E-3,-3.359660041E-3
3.642668973E0,-9.009997360E-3,1.191152167E-2,-4.581354558E-3
3.645050952E0,-6.566607859E-3,1.435491070E-2,-3.359660041E-3
3.647432931E0,-7.788302377E-3,1.801999472E-2,-4.581354558E-3
3.649814910E0,-6.566607859E-3,2.275406010E-2,-4.581354558E-3
3.652196837E0,-6.566607859E-3,2.641914412E-2,-4.581354558E-3
3.654578816E0,-4.123218823E-3,3.130592033E-2,-2.137965523E-3
3.656960796E0,-5.344913341E-3,3.252761811E-2,-3.359660041E-3
3.659342775E0,-6.719320081E-3,3.130592033E-2,-3.359660041E-3
3.661724702E0,-6.719320081E-3,3.497100621E-2,-4.581354558E-3
3.664106681E0,-6.719320081E-3,3.619270027E-2,-4.581354558E-3
3.666488660E0,-9.162709117E-3,3.497100621E-2,-5.803049076E-3
3.668870639E0,-1.038440317E-2,3.374931216E-2,-7.024743594E-3
3.671252566E0,-1.282779220E-2,3.252761811E-2,-7.024743594E-3
3.673634546E0,-1.404948719E-2,3.008422814E-2,-8.246437646E-3
3.676016525E0,-1.404948719E-2,2.519745007E-2,-7.024743594E-3
3.678398504E0,-1.649287529E-2,2.397575416E-2,-8.246437646E-3
3.680780431E0,-1.908897609E-2,2.275406010E-2,-8.246437646E-3
3.683162410E0,-2.031067200E-2,2.031067200E-2,-8.246437646E-3
3.685544389E0,-2.397575416E-2,1.908897609E-2,-7.024743594E-3
3.687926316E0,-2.519745007E-2,2.031067200E-2,-5.803049076E-3
3.690308296E0,-2.519745007E-2,1.908897609E-2,-4.581354558E-3
3.692690275E0,-2.519745007E-2,1.664558798E-2,-5.803049076E-3
3.695072254E0,-2.641914412E-2,1.786728203E-2,-5.803049076E-3
3.697454233E0,-2.519745007E-2,1.542389300E-2,-3.359660041E-3
3.699836160E0,-2.519745007E-2,1.298050396E-2,-9.162708884E-4
3.702218139E0,-2.641914412E-2,7.024743594E-3,-2.137965523E-3
3.704600118E0,-2.382304333E-2,4.581354558E-3,3.054236295E-4
3.706982046E0,-2.382304333E-2,9.162708884E-4,3.054236295E-4
3.709364025E0,-2.260134928E-2,-3.970507067E-3,-9.162708884E-4
3.711746004E0,-2.382304333E-2,-1.114796288E-2,-2.137965523E-3
3.714127983E0,-2.382304333E-2,-1.359135192E-2,-3.359660041E-3
3.716509910E0,-2.260134928E-2,-1.130067464E-2,-7.024743594E-3
3.718891889E0,-2.260134928E-2,-1.007897966E-2,-7.024743594E-3
3.721273868E0,-2.260134928E-2,-7.635590620E-3,-9.468132630E-3
3.723655848E0,-2.382304333E-2,-7.635590620E-3,-1.068982668E-2
3.726037775E0,-2.260134928E-2,-2.748812549E-3,-1.191152167E-2
3.728419754E0,-2.641914412E-2,-3.970507067E-3,-1.679829881E-2
3.730801733E0,-2.519745007E-2,-2.748812549E-3,-1.679829881E-2
3.733183712E0,-2.382304333E-2,-5.192201585E-3,-1.679829881E-2
3.735565639E0,-2.519745007E-2,-5.192201585E-3,-1.679829881E-2
3.737947618E0,-2.397575416E-2,-5.192201585E-3,-1.801999472E-2
3.740329598E0,-2.260134928E-2,-3.970507067E-3,-1.924168877E-2
3.742711577E0,-2.397575416E-2,-5.192201585E-3,-1.924168877E-2
3.745093504E0,-2.275406010E-2,-5.192201585E-3,-2.168507688E-2
3.747475483E0,-2.275406010E-2,-3.970507067E-3,-2.046338283E-2
3.749857462E0,-2.519745007E-2,-1.679830020E-3,-2.168507688E-2
3.752239441E0,-2.641914412E-2,-1.679830020E-3,-2.046338283E-2
3.754621368E0,-2.886253223E-2,1.985253533E-3,-2.168507688E-2
3.757003348E0,-3.145863488E-2,4.428642802E-3,-1.939439960E-2
3.759385327E0,-3.268032894E-2,8.093725890E-3,-1.817270555E-2
3.761767254E0,-3.390202299E-2,1.298050396E-2,-1.817270555E-2
3.764149233E0,-3.390202299E-2,1.771457121E-2,-1.695101149E-2
3.766531212E0,-3.512371704E-2,2.137965336E-2,-1.695101149E-2
3.768913191E0,-3.771981969E-2,2.137965336E-2,-1.572931744E-2
3.771295171E0,-3.894151375E-2,2.382304333E-2,-1.572931744E-2
3.773677098E0,-3.649812192E-2,2.504473738E-2,-1.328592747E-2
3.776059077E0,-3.649812192E-2,2.504473738E-2,-1.328592747E-2
3.778441056E0,-3.268032894E-2,2.382304333E-2,-1.206423342E-2
3.780822983E0,-3.390202299E-2,2.137965336E-2,-9.620844387E-3
3.783204962E0,-3.145863488E-2,1.908897609E-2,-1.084253844E-2
3.785586941E0,-3.145863488E-2,1.786728203E-2,-9.620844387E-3
3.787968921E0,-3.145863488E-2,1.664558798E-2,-7.024743594E-3
3.790350848E0,-2.641914412E-2,1.298050396E-2,-8.246437646E-3
3.792732827E0,-2.397575416E-2,8.093725890E-3,-7.024743594E-3
3.795114806E0,-2.260134928E-2,3.359660041E-3,-5.803049076E-3
3.797496785E0,-2.137965336E-2,-3.054236295E-4,-5.803049076E-3
3.799878712E0,-2.137965336E-2,-3.970507067E-3,-4.581354558E-3
3.802260691E0,-1.878355257E-2,-9.926267900E-3,-3.359660041E-3
3.804642671E0,-1.878355257E-2,-1.359135192E-2,-3.359660041E-3
3.807024650E0,-1.634016447E-2,-1.603474095E-2,-2.137965523E-3
3.809406577E0,-1.511846948E-2,-1.969982497E-2,-3.206948051E-3
3.811788556E0,-1.634016447E-2,-2.336490713E-2,-1.985253533E-3
3.814170535E0,-1.511846948E-2,-2.336490713E-2,-5.650337320E-3
3.816552514E0,-1.389677543E-2,-2.458660305E-2,-8.093725890E-3
3.818934441E0,-1.389677543E-2,-2.214321308E-2,-6.872031838E-3
3.821316421E0,-1.511846948E-2,-2.092151903E-2,-5.803049076E-3
3.823698400E0,-1.511846948E-2,-1.969982497E-2,-8.246437646E-3
3.826080379E0,-1.756185852E-2,-1.603474095E-2,-8.246437646E-3
3.828462306E0,-1.756185852E-2,-1.236965694E-2,-1.068982668E-2
3.830844285E0,-2.137965336E-2,-7.635590620E-3,-1.068982668E-2
3.833226264E0,-2.015795931E-2,-3.970507067E-3,-1.191152167E-2
3.835608243E0,-2.137965336E-2,-3.054236295E-4,-1.435491070E-2
3.837990171E0,-2.275406010E-2,3.359660041E-3,-1.435491070E-2
3.840372150E0,-2.519745007E-2,6.872031838E-3,-1.557660475E-2
3.842754129E0,-2.519745007E-2,1.053711493E-2,-1.557660475E-2
3.845136056E0,-2.275406010E-2,1.053711493E-2,-1.679829881E-2
3.847518035E0,-2.519745007E-2,1.298050396E-2,-1.557660475E-2
3.849900014E0,-2.764083818E-2,1.053711493E-2,-1.435491070E-2
3.852281993E0,-2.764083818E-2,1.175880991E-2,-1.557660475E-2
3.854663921E0,-2.886253223E-2,1.298050396E-2,-1.313321572E-2
3.857045900E0,-2.886253223E-2,9.315420873E-3,-1.313321572E-2
3.859427879E0,-2.764083818E-2,5.650337320E-3,-1.435491070E-2
3.861809858E0,-2.764083818E-2,1.985253533E-3,-1.313321572E-2
3.864191785E0,-2.764083818E-2,7.635590737E-4,-1.435491070E-2
3.866573764E0,-2.764083818E-2,-3.054236295E-4,-1.313321572E-2
3.868955743E0,-2.641914412E-2,-1.527118147E-3,-1.435491070E-2
3.871337723E0,-2.519745007E-2,-2.748812549E-3,-1.679829881E-2
3.873719650E0,-2.519745007E-2,-2.748812549E-3,-1.801999472E-2
3.876101629E0,-2.641914412E-2,-1.527118147E-3,-1.801999472E-2
3.878483608E0,-2.886253223E-2,-4.581354442E-4,-2.046338283E-2
3.880865587E0,-2.641914412E-2,7.635590737E-4,-1.801999472E-2
3.883247514E0,-2.764083818E-2,3.206948051E-3,-1.679829881E-2
3.885629493E0,-2.886253223E-2,5.650337320E-3,-1.801999472E-2
3.888011473E0,-2.886253223E-2,8.093725890E-3,-1.939439960E-2
3.890393452E0,-3.023693897E-2,1.053711493E-2,-1.817270555E-2
3.892775379E0,-2.779355086E-2,1.175880991E-2,-1.939439960E-2
3.895157358E0,-2.901524492E-2,1.298050396E-2,-2.061609551E-2
3.897539337E0,-2.901524492E-2,1.298050396E-2,-2.305948362E-2
3.899921316E0,-2.657185495E-2,1.664558798E-2,-2.183778957E-2
3.902303243E0,-2.535016090E-2,1.893626526E-2,-2.183778957E-2
3.904685223E0,-2.275406010E-2,1.893626526E-2,-2.305948362E-2
3.907067202E0,-2.535016090E-2,2.015795931E-2,-2.550287358E-2
3.909449181E0,-2.412846684E-2,2.137965336E-2,-2.550287358E-2
3.911831108E0,-2.535016090E-2,1.893626526E-2,-2.428117767E-2
3.914213087E0,-2.657185495E-2,1.420219894E-2,-2.550287358E-2
3.916595066E0,-2.657185495E-2,1.175880991E-2,-2.428117767E-2
3.918977046E0,-2.519745007E-2,5.650337320E-3,-2.290677279E-2
3.921358973E0,-2.764083818E-2,1.985253533E-3,-2.412846684E-2
3.923740952E0,-2.764083818E-2,-5.344913341E-3,-2.412846684E-2
3.926122931E0,-2.764083818E-2,-7.635590620E-3,-2.412846684E-2
3.928504910E0,-2.764083818E-2,-1.130067464E-2,-2.412846684E-2
3.930886837E0,-2.764083818E-2,-1.374406368E-2,-2.535016090E-2
3.933268816E0,-2.641914412E-2,-1.618745178E-2,-2.657185495E-2
3.935650796E0,-2.519745007E-2,-1.618745178E-2,-2.901524492E-2
3.938032775E0,-2.275406010E-2,-1.374406368E-2,-3.023693897E-2
3.940414702E0,-2.275406010E-2,-1.374406368E-2,-2.901524492E-2
3.942796681E0,-2.275406010E-2,-1.252236869E-2,-3.023693897E-2
3.945178660E0,-2.275406010E-2,-1.374406368E-2,-3.145863488E-2
3.947560587E0,-2.153236605E-2,-1.007897966E-2,-3.023693897E-2
3.949942566E0,-2.397575416E-2,-9.009997360E-3,-3.145863488E-2
3.952324546E0,-2.397575416E-2,-9.009997360E-3,-3.512371704E-2
3.954706525E0,-2.519745007E-2,-5.344913341E-3,-3.649812192E-2
3.957088452E0,-2.519745007E-2,-4.123218823E-3,-3.771981969E-2
3.959470431E0,-2.657185495E-2,-2.901524538E-3,-3.894151375E-2
3.961852410E0,-2.535016090E-2,-2.901524538E-3,-4.016320780E-2
3.964234389E0,-3.023693897E-2,-2.901524538E-3,-4.016320780E-2
3.966616316E0,-3.145863488E-2,-2.901524538E-3,-4.016320780E-2
3.968998296E0,-3.145863488E-2,-4.581354442E-4,-3.894151375E-2
3.971380275E0,-3.390202299E-2,-2.901524538E-3,-4.016320780E-2
3.973762254E0,-3.771981969E-2,-6.108472589E-4,-4.016320780E-2
3.976144181E0,-3.894151375E-2,6.108472589E-4,-4.016320780E-2
3.978526160E0,-3.894151375E-2,6.108472589E-4,-3.771981969E-2
3.980908139E0,-4.138490185E-2,3.054236295E-3,-3.527642787E-2
3.983290118E0,-4.260659590E-2,5.497625098E-3,-3.405473381E-2
3.985672046E0,-4.260659590E-2,7.941014133E-3,-3.283303976E-2
3.988054025E0,-4.260659590E-2,9.162709117E-3,-3.161134571E-2
3.990436004E0,-4.382828996E-2,1.038440317E-2,-3.038965166E-2
3.992817983E0,-4.642439261E-2,1.282779220E-2,-2.916795574E-2
3.995199910E0,-4.642439261E-2,1.404948719E-2,-2.916795574E-2
3.997581889E0,-4.382828996E-2,1.527118124E-2,-2.794626169E-2
3.999963868E0,-4.642439261E-2,1.771457121E-2,-2.550287358E-2
4.002345848E0,-4.642439261E-2,2.000524849E-2,-2.794626169E-2
4.004727775E0,-4.398100078E-2,2.244863659E-2,-2.672456764E-2
4.007109754E0,-4.398100078E-2,2.489202656E-2,-2.916795574E-2
4.009491733E0,-4.520269856E-2,2.977880463E-2,-3.161134571E-2
4.011873712E0,-4.275930673E-2,2.855710872E-2,-3.161134571E-2
4.014255639E0,-4.153761268E-2,2.855710872E-2,-3.038965166E-2
4.016637618E0,-4.153761268E-2,3.100049868E-2,-3.161134571E-2
4.019019598E0,-4.153761268E-2,3.100049868E-2,-3.405473381E-2
4.021401577E0,-4.031591862E-2,3.100049868E-2,-3.527642787E-2
4.023783504E0,-3.909422457E-2,2.977880463E-2,-3.894151375E-2
4.026165483E0,-4.031591862E-2,3.222219273E-2,-3.787253052E-2
4.028547462E0,-4.153761268E-2,2.977880463E-2,-4.031591862E-2
4.030929441E0,-4.153761268E-2,2.977880463E-2,-4.275930673E-2
4.033311368E0,-4.153761268E-2,2.733541466E-2,-4.398100078E-2
4.035693348E0,-4.413371533E-2,2.611372061E-2,-4.520269856E-2
4.038075327E0,-4.535540938E-2,2.733541466E-2,-4.520269856E-2
4.040457306E0,-4.657710344E-2,2.611372061E-2,-4.520269856E-2
4.042839233E0,-4.902049154E-2,2.596100792E-2,-4.764608666E-2
4.045221212E0,-4.902049154E-2,2.473931387E-2,-4.764608666E-2
4.047603191E0,-5.024218559E-2,2.351761982E-2,-4.886778072E-2
4.049985171E0,-5.146388337E-2,2.122694254E-2,-4.764608666E-2
4.052367098E0,-5.390727147E-2,2.107422985E-2,-4.642439261E-2
4.054749077E0,-5.390727147E-2,2.122694254E-2,-4.520269856E-2
4.057131056E0,-5.650337040E-2,2.473931387E-2,-4.398100078E-2
4.059513035E0,-5.894676223E-2,2.351761982E-2,-4.153761268E-2
4.061894962E0,-5.894676223E-2,2.351761982E-2,-4.275930673E-2
4.064276941E0,-6.016845629E-2,2.596100792E-2,-4.275930673E-2
4.066658921E0,-6.139015034E-2,2.596100792E-2,-4.275930673E-2
4.069040848E0,-6.261184067E-2,2.962609194E-2,-4.153761268E-2
4.071422827E0,-6.383354217E-2,3.206948191E-2,-3.665083647E-2
4.073804806E0,-6.642963737E-2,3.206948191E-2,-3.665083647E-2
4.076186785E0,-6.642963737E-2,3.451287001E-2,-3.542914242E-2
4.078568764E0,-6.765133142E-2,3.817795217E-2,-3.298575059E-2
4.080950691E0,-7.009471953E-2,3.939964995E-2,-3.298575059E-2
4.083332671E0,-7.131642103E-2,3.924693540E-2,-3.420744836E-2
4.085714650E0,-7.131642103E-2,4.169032723E-2,-3.054236248E-2
4.088096577E0,-7.498150319E-2,4.291202128E-2,-2.932066843E-2
4.090478556E0,-7.513421029E-2,4.291202128E-2,-3.054236248E-2
4.092860535E0,-7.635590434E-2,4.291202128E-2,-2.932066843E-2
4.095242514E0,-7.620319724E-2,4.169032723E-2,-2.809897438E-2
4.097624493E0,-7.620319724E-2,4.169032723E-2,-2.687728032E-2
4.100006421E0,-7.620319724E-2,4.169032723E-2,-2.809897438E-2
4.102388400E0,-7.498150319E-2,4.291202128E-2,-2.687728032E-2
4.104770379E0,-7.498150319E-2,4.291202128E-2,-2.687728032E-2
4.107152358E0,-7.635590434E-2,4.413371533E-2,-2.687728032E-2
4.109534285E0,-7.513421029E-2,4.779879749E-2,-2.687728032E-2
4.111916264E0,-7.253811508E-2,4.779879749E-2,-2.687728032E-2
4.114298243E0,-7.253811508E-2,4.902049154E-2,-2.809897438E-2
4.116680223E0,-7.131642103E-2,4.902049154E-2,-2.687728032E-2
4.119062150E0,-6.765133142E-2,4.902049154E-2,-2.809897438E-2
4.121444129E0,-6.765133142E-2,5.268557742E-2,-2.932066843E-2
4.123826108E0,-6.642963737E-2,5.390727147E-2,-2.809897438E-2
4.126208087E0,-6.398624927E-2,5.512896553E-2,-2.809897438E-2
4.128590014E0,-6.276455522E-2,5.512896553E-2,-2.809897438E-2
4.130971993E0,-6.016845629E-2,5.512896553E-2,-2.809897438E-2
4.133353973E0,-5.894676223E-2,5.390727147E-2,-2.687728032E-2
4.135735900E0,-5.650337040E-2,5.512896553E-2,-2.687728032E-2
4.138117879E0,-5.405998230E-2,5.528167635E-2,-2.565558441E-2
4.140499858E0,-5.146388337E-2,5.528167635E-2,-2.565558441E-2
4.142881837E0,-4.902049154E-2,5.161659420E-2,-2.443389036E-2
4.145263764E0,-4.779879749E-2,5.161659420E-2,-2.443389036E-2
4.147645743E0,-4.413371533E-2,5.039490014E-2,-2.687728032E-2
4.150027723E0,-4.275930673E-2,5.039490014E-2,-2.443389036E-2
4.152409702E0,-4.153761268E-2,4.917320609E-2,-2.199050039E-2
4.154791629E0,-4.153761268E-2,4.566083103E-2,-2.305948362E-2
4.157173608E0,-3.909422457E-2,4.443913698E-2,-2.305948362E-2
4.159555587E0,-3.787253052E-2,4.443913698E-2,-1.939439960E-2
4.161937566E0,-3.909422457E-2,4.443913698E-2,-2.061609551E-2
4.164319493E0,-3.649812192E-2,4.321744293E-2,-1.939439960E-2
4.166701473E0,-3.527642787E-2,4.443913698E-2,-1.817270555E-2
4.169083452E0,-3.787253052E-2,4.443913698E-2,-1.939439960E-2
4.171465431E0,-3.649812192E-2,4.566083103E-2,-1.817270555E-2
4.173847358E0,-3.665083647E-2,4.688252881E-2,-1.817270555E-2
4.176229337E0,-3.649812192E-2,4.688252881E-2,-1.695101149E-2
4.178611316E0,-3.649812192E-2,4.810422286E-2,-1.450762246E-2
4.180993296E0,-3.787253052E-2,5.054761097E-2,-1.328592747E-2
4.183375223E0,-3.787253052E-2,5.421269313E-2,-1.328592747E-2
4.185757202E0,-3.665083647E-2,5.787777901E-2,-1.206423342E-2
4.188139181E0,-3.665083647E-2,5.787777901E-2,-1.206423342E-2
4.190521160E0,-3.787253052E-2,6.383354217E-2,-1.084253844E-2
4.192903087E0,-3.787253052E-2,6.383354217E-2,-1.084253844E-2
4.195285066E0,-3.909422457E-2,6.627693027E-2,-7.177455351E-3
4.197667046E0,-3.665083647E-2,7.116370648E-2,-7.330167107E-3
4.200049025E0,-3.665083647E-2,6.994201243E-2,-4.734066315E-3
4.202430952E0,-3.665083647E-2,6.872031838E-2,-2.290677279E-3
4.204812931E0,-3.665083647E-2,7.482878864E-2,-2.290677279E-3
4.207194910E0,-3.542914242E-2,7.605048269E-2,1.527118147E-4
4.209576889E0,-3.420744836E-2,7.360709459E-2,1.527118147E-4
4.211958816E0,-3.161134571E-2,7.238540053E-2,1.374406274E-3
4.214340796E0,-3.038965166E-2,7.360709459E-2,1.527118147E-4
4.216722775E0,-3.038965166E-2,7.253811508E-2,2.596100792E-3
4.219104754E0,-2.916795574E-2,7.253811508E-2,1.374406274E-3
4.221486681E0,-2.916795574E-2,7.253811508E-2,1.374406274E-3
4.223868660E0,-2.794626169E-2,7.009471953E-2,1.374406274E-3
4.226250639E0,-2.535016090E-2,6.765133142E-2,2.596100792E-3
4.228632618E0,-2.535016090E-2,6.642963737E-2,1.374406274E-3
4.231014546E0,-2.535016090E-2,6.520794332E-2,1.374406274E-3
4.233396525E0,-2.412846684E-2,6.398624927E-2,2.596100792E-3
4.235778504E0,-2.168507688E-2,6.520794332E-2,1.374406274E-3
4.238160483E0,-2.290677279E-2,6.520794332E-2,-1.068982761E-3
4.240542410E0,-2.046338283E-2,6.642963737E-2,2.596100792E-3
4.242924389E0,-2.046338283E-2,6.520794332E-2,1.374406274E-3
4.245306368E0,-1.801999472E-2,6.642963737E-2,1.527118147E-4
4.247688348E0,-1.557660475E-2,6.887302548E-2,1.527118147E-4
4.250070275E0,-1.420219894E-2,6.765133142E-2,-1.068982761E-3
4.252452254E0,-1.298050396E-2,6.887302548E-2,1.527118147E-4
4.254834233E0,-1.175880991E-2,6.765133142E-2,1.527118147E-4
4.257216212E0,-1.175880991E-2,6.642963737E-2,1.527118147E-4
4.259598139E0,-1.053711493E-2,6.642963737E-2,1.374406274E-3
4.261980118E0,-1.053711493E-2,6.169557199E-2,1.374406274E-3
4.264362098E0,-1.175880991E-2,5.925218388E-2,1.527118147E-4
4.266744077E0,-1.175880991E-2,5.680879578E-2,-1.068982761E-3
4.269126004E0,-1.420219894E-2,5.314370990E-2,1.374406274E-3
4.271507983E0,-1.175880991E-2,5.192201585E-2,1.527118147E-4
4.273889962E0,-1.038440317E-2,4.825693369E-2,1.527118147E-3
4.276271941E0,-1.282779220E-2,4.703523964E-2,2.748812549E-3
4.278653868E0,-1.160609815E-2,4.459185153E-2,3.054236295E-4
4.281035848E0,-1.160609815E-2,4.581354558E-2,1.527118147E-3
4.283417827E0,-1.038440317E-2,4.352286831E-2,2.748812549E-3
4.285799806E0,-9.162709117E-3,4.230117425E-2,2.748812549E-3
4.288181733E0,-1.038440317E-2,4.230117425E-2,1.527118147E-3
4.290563712E0,-1.038440317E-2,4.230117425E-2,3.970507067E-3
4.292945691E0,-7.941014133E-3,4.230117425E-2,5.192201585E-3
4.295327671E0,-5.344913341E-3,4.107947648E-2,5.192201585E-3
4.297709598E0,-4.123218823E-3,3.863608837E-2,8.857285604E-3
4.300091577E0,-5.344913341E-3,3.741439432E-2,8.857285604E-3
4.302473556E0,-2.901524538E-3,3.390202299E-2,8.857285604E-3
4.304855535E0,-4.123218823E-3,2.901524492E-2,7.635590620E-3
4.307237462E0,-4.123218823E-3,2.168507688E-2,6.413896102E-3
4.309619441E0,-1.527118147E-3,1.801999472E-2,6.413896102E-3
4.312001421E0,-1.527118147E-3,1.679829881E-2,6.413896102E-3
4.314383400E0,-3.970507067E-3,1.679829881E-2,5.192201585E-3
4.316765327E0,-2.901524538E-3,2.168507688E-2,5.192201585E-3
4.319147306E0,-1.679830020E-3,2.535016090E-2,3.970507067E-3
4.321529285E0,-4.581354442E-4,3.023693897E-2,2.748812549E-3
4.323911264E0,7.635590737E-4,3.619270027E-2,3.054236295E-4
4.326293191E0,7.635590737E-4,3.741439432E-2,3.054236295E-4
4.328675171E0,1.985253533E-3,3.863608837E-2,3.054236295E-4
4.331057150E0,-4.581354442E-4,4.107947648E-2,3.054236295E-4
4.333439129E0,-4.581354442E-4,4.474456236E-2,3.054236295E-4
4.335821056E0,7.635590737E-4,4.718795046E-2,-9.162708884E-4
4.338203035E0,-1.832541777E-3,4.718795046E-2,-9.162708884E-4
4.340585014E0,-4.581354442E-4,5.070032179E-2,3.054236295E-4
4.342966993E0,-1.832541777E-3,5.192201585E-2,3.054236295E-4
4.345348921E0,-1.832541777E-3,5.436540768E-2,-9.162708884E-4
4.347730900E0,-1.832541777E-3,5.070032179E-2,-9.162708884E-4
4.350112879E0,-3.054236295E-3,5.314370990E-2,-9.162708884E-4
4.352494858E0,-1.832541777E-3,5.436540768E-2,3.054236295E-4
4.354876785E0,-4.581354442E-4,5.314370990E-2,2.748812549E-3
4.357258764E0,-6.108472589E-4,5.558710173E-2,2.748812549E-3
4.359640743E0,-3.054236295E-3,5.925218388E-2,3.970507067E-3
4.362022723E0,-5.497625098E-3,6.047387794E-2,2.596100792E-3
4.364404650E0,-3.054236295E-3,6.047387794E-2,2.748812549E-3
4.366786629E0,-3.054236295E-3,6.047387794E-2,3.970507067E-3
4.369168608E0,-5.497625098E-3,6.047387794E-2,2.596100792E-3
4.371550587E0,-4.275931045E-3,5.925218388E-2,2.748812549E-3
4.373932514E0,-6.719320081E-3,5.680879578E-2,2.748812549E-3
4.376314493E0,-5.497625098E-3,5.436540768E-2,1.527118147E-3
4.378696473E0,-4.275931045E-3,5.070032179E-2,2.748812549E-3
4.381078452E0,-4.275931045E-3,4.963133857E-2,3.970507067E-3
4.383460379E0,-2.901524538E-3,4.596625641E-2,3.970507067E-3
4.385842358E0,-2.901524538E-3,4.474456236E-2,2.748812549E-3
4.388224337E0,-2.901524538E-3,4.352286831E-2,1.527118147E-3
4.390606316E0,7.635590737E-4,4.230117425E-2,1.527118147E-3
4.392988243E0,7.635590737E-4,3.741439432E-2,2.748812549E-3
4.395370223E0,7.635590737E-4,3.619270027E-2,3.970507067E-3
4.397752202E0,7.635590737E-4,3.497100621E-2,3.970507067E-3
4.400134181E0,7.635590737E-4,3.268032894E-2,6.413896102E-3
4.402516108E0,7.635590737E-4,3.497100621E-2,6.413896102E-3
4.404898087E0,4.581354558E-3,3.634541109E-2,6.413896102E-3
4.407280066E0,4.581354558E-3,3.512371704E-2,8.857285604E-3
4.409662046E0,3.359660041E-3,3.512371704E-2,8.857285604E-3
4.412043973E0,5.803049076E-3,3.756710514E-2,1.007897966E-2
4.414425952E0,4.581354558E-3,3.878879920E-2,1.130067464E-2
4.416807931E0,4.581354558E-3,4.230117425E-2,1.130067464E-2
4.419189910E0,4.581354558E-3,4.107947648E-2,1.007897966E-2
4.421571837E0,5.803049076E-3,4.352286831E-2,1.007897966E-2
4.423953816E0,7.024743594E-3,4.352286831E-2,1.007897966E-2
4.426335796E0,5.803049076E-3,4.474456236E-2,1.130067464E-2
4.428717775E0,7.024743594E-3,4.367557913E-2,1.252236869E-2
4.431099702E0,9.468132630E-3,4.474456236E-2,1.130067464E-2
4.433481681E0,1.068982668E-2,4.718795046E-2,1.007897966E-2
4.435863660E0,1.068982668E-2,4.840964451E-2,1.007897966E-2
4.438245639E0,1.313321572E-2,5.085303262E-2,8.857285604E-3
4.440627566E0,1.313321572E-2,4.840964451E-2,8.857285604E-3
4.443009546E0,1.435491070E-2,4.718795046E-2,8.857285604E-3
4.445391525E0,1.695101149E-2,4.718795046E-2,6.413896102E-3
4.447773504E0,1.435491070E-2,4.840964451E-2,5.192201585E-3
4.450155431E0,1.695101149E-2,4.718795046E-2,6.413896102E-3
4.452537410E0,1.817270555E-2,4.611896724E-2,6.413896102E-3
4.454919389E0,1.695101149E-2,4.611896724E-2,5.192201585E-3
4.457301368E0,1.695101149E-2,4.489727318E-2,5.192201585E-3
4.459683348E0,1.817270555E-2,4.123219103E-2,3.970507067E-3
4.462065275E0,1.695101149E-2,4.245388508E-2,2.748812549E-3
4.464447254E0,1.313321572E-2,4.352286831E-2,3.970507067E-3
4.466829233E0,1.313321572E-2,4.352286831E-2,2.748812549E-3
4.469211160E0,1.435491070E-2,4.474456236E-2,2.748812549E-3
4.471593139E0,9.468132630E-3,4.230117425E-2,1.527118147E-3
4.473975118E0,7.024743594E-3,4.230117425E-2,1.527118147E-3
4.476357098E0,4.428642802E-3,3.985778242E-2,1.527118147E-3
4.478739025E0,3.206948051E-3,3.985778242E-2,2.748812549E-3
4.481121004E0,-4.581354442E-4,3.863608837E-2,1.527118147E-3
4.483502983E0,7.635590737E-4,3.863608837E-2,3.970507067E-3
4.485884962E0,-1.679830020E-3,3.985778242E-2,3.970507067E-3
4.488266889E0,-2.901524538E-3,3.863608837E-2,5.192201585E-3
4.490648868E0,-5.344913341E-3,3.985778242E-2,5.192201585E-3
4.493030848E0,-4.123218823E-3,3.741439432E-2,5.192201585E-3
4.495412827E0,-4.123218823E-3,3.863608837E-2,5.192201585E-3
4.497794754E0,-2.901524538E-3,3.985778242E-2,7.635590620E-3
4.500176733E0,-4.581354442E-4,4.107947648E-2,6.413896102E-3
4.502558712E0,-4.581354442E-4,3.985778242E-2,7.635590620E-3
4.504940691E0,-4.581354442E-4,3.985778242E-2,6.413896102E-3
4.507322671E0,7.635590737E-4,3.863608837E-2,6.413896102E-3
4.509704598E0,-4.581354442E-4,3.985778242E-2,6.413896102E-3
4.512086577E0,3.359660041E-3,3.878879920E-2,8.857285604E-3
4.514468556E0,3.359660041E-3,3.634541109E-2,6.413896102E-3
4.516850483E0,4.581354558E-3,3.512371704E-2,5.192201585E-3
4.519232462E0,5.803049076E-3,3.512371704E-2,6.413896102E-3
4.521614441E0,7.024743594E-3,3.512371704E-2,6.413896102E-3
4.523996421E0,7.024743594E-3,3.390202299E-2,6.413896102E-3
4.526378400E0,1.068982668E-2,2.901524492E-2,3.970507067E-3
4.528760327E0,9.468132630E-3,2.901524492E-2,2.748812549E-3
4.531142306E0,1.206423342E-2,2.657185495E-2,2.748812549E-3
4.533524285E0,1.328592747E-2,2.412846684E-2,2.748812549E-3
4.535906264E0,1.450762246E-2,2.412846684E-2,4.123218823E-3
4.538288191E0,1.572931744E-2,2.412846684E-2,1.527118147E-3
4.540670171E0,1.695101149E-2,2.183778957E-2,1.679830020E-3
4.543052150E0,1.939439960E-2,2.535016090E-2,2.901524538E-3
4.545434129E0,2.061609551E-2,2.428117767E-2,1.679830020E-3
4.547816056E0,2.199050039E-2,2.305948362E-2,1.679830020E-3
4.550198035E0,2.321219631E-2,2.428117767E-2,2.901524538E-3
4.552580014E0,2.321219631E-2,2.672456764E-2,2.901524538E-3
4.554961941E0,2.443389036E-2,2.550287358E-2,2.901524538E-3
4.557343921E0,2.565558441E-2,2.672456764E-2,4.123218823E-3
4.559725900E0,2.183778957E-2,2.901524492E-2,2.901524538E-3
4.562107879E0,2.183778957E-2,2.779355086E-2,4.581354442E-4
4.564489806E0,2.183778957E-2,2.901524492E-2,1.679830020E-3
4.566871785E0,2.183778957E-2,3.145863488E-2,2.901524538E-3
4.569253764E0,1.939439960E-2,3.145863488E-2,1.527118147E-3
4.571635743E0,1.572931744E-2,3.023693897E-2,3.054236295E-4
4.574017671E0,1.572931744E-2,3.390202299E-2,-9.162708884E-4
4.576399650E0,1.191152167E-2,3.390202299E-2,2.748812549E-3
4.578781629E0,1.191152167E-2,3.390202299E-2,3.970507067E-3
4.581163608E0,9.468132630E-3,3.390202299E-2,2.748812549E-3
4.583545587E0,8.246437646E-3,3.268032894E-2,3.970507067E-3
4.585927514E0,8.246437646E-3,3.390202299E-2,5.192201585E-3
4.588309493E0,7.024743594E-3,3.863608837E-2,3.970507067E-3
4.590691473E0,7.024743594E-3,3.878879920E-2,6.413896102E-3
4.593073452E0,7.024743594E-3,4.001049697E-2,6.413896102E-3
4.595455379E0,8.246437646E-3,4.230117425E-2,7.635590620E-3
4.597837358E0,9.468132630E-3,4.474456236E-2,7.635590620E-3
4.600219337E0,8.246437646E-3,4.718795046E-2,1.007897966E-2
4.602601316E0,9.468132630E-3,4.718795046E-2,7.635590620E-3
4.604983243E0,1.068982668E-2,4.718795046E-2,8.857285604E-3
4.607365223E0,1.191152167E-2,4.611896724E-2,1.007897966E-2
4.609747202E0,1.191152167E-2,4.718795046E-2,1.007897966E-2
4.612129181E0,1.313321572E-2,4.489727318E-2,1.007897966E-2
4.614511108E0,1.313321572E-2,4.489727318E-2,8.857285604E-3
4.616893087E0,1.313321572E-2,4.489727318E-2,1.252236869E-2
4.619275066E0,1.572931744E-2,4.611896724E-2,1.374406368E-2
4.621657046E0,1.695101149E-2,4.367557913E-2,1.130067464E-2
4.624038973E0,1.817270555E-2,4.611896724E-2,1.130067464E-2
4.626420952E0,1.817270555E-2,4.367557913E-2,1.130067464E-2
4.628802931E0,1.817270555E-2,4.245388508E-2,1.252236869E-2
4.631184910E0,1.817270555E-2,4.123219103E-2,1.252236869E-2
4.633566837E0,1.939439960E-2,4.245388508E-2,1.130067464E-2
4.635948816E0,1.817270555E-2,4.245388508E-2,1.252236869E-2
4.638330796E0,1.939439960E-2,3.878879920E-2,1.130067464E-2
4.640712775E0,2.061609551E-2,3.878879920E-2,1.145338640E-2
4.643094702E0,2.199050039E-2,3.634541109E-2,1.023169141E-2
4.645476681E0,2.199050039E-2,3.512371704E-2,1.023169141E-2
4.647858660E0,2.321219631E-2,3.390202299E-2,6.566607859E-3
4.650240639E0,2.565558441E-2,3.283303976E-2,9.009997360E-3
4.652622566E0,2.321219631E-2,3.038965166E-2,9.009997360E-3
4.655004546E0,2.565558441E-2,2.550287358E-2,5.344913341E-3
4.657386525E0,2.443389036E-2,2.672456764E-2,7.788302377E-3
4.659768504E0,2.199050039E-2,2.305948362E-2,7.788302377E-3
4.662150431E0,2.565558441E-2,2.183778957E-2,5.344913341E-3
4.664532410E0,2.443389036E-2,1.817270555E-2,5.344913341E-3
4.666914389E0,2.565558441E-2,1.695101149E-2,6.566607859E-3
4.669296368E0,2.565558441E-2,1.695101149E-2,4.123218823E-3
4.671678296E0,2.702999115E-2,1.572931744E-2,5.344913341E-3
4.674060275E0,2.443389036E-2,1.450762246E-2,5.344913341E-3
4.676442254E0,2.443389036E-2,1.450762246E-2,5.344913341E-3
4.678824233E0,2.443389036E-2,1.206423342E-2,7.788302377E-3
4.681206160E0,2.321219631E-2,1.206423342E-2,5.344913341E-3
4.683588139E0,2.443389036E-2,1.084253844E-2,6.566607859E-3
4.685970118E0,2.076880634E-2,1.084253844E-2,7.788302377E-3
4.688352098E0,2.199050039E-2,1.084253844E-2,5.344913341E-3
4.690734077E0,2.199050039E-2,1.328592747E-2,7.788302377E-3
4.693116004E0,2.076880634E-2,1.450762246E-2,7.788302377E-3
4.695497983E0,1.954711229E-2,1.328592747E-2,9.009997360E-3
4.697879962E0,1.832541823E-2,1.450762246E-2,7.788302377E-3
4.700261889E0,1.588202827E-2,1.450762246E-2,7.788302377E-3
4.702643868E0,1.588202827E-2,1.572931744E-2,9.009997360E-3
4.705025848E0,1.588202827E-2,1.817270555E-2,1.023169141E-2
4.707407827E0,1.206423342E-2,1.572931744E-2,7.788302377E-3
4.709789806E0,1.328592747E-2,1.572931744E-2,9.009997360E-3
4.712171733E0,1.206423342E-2,1.817270555E-2,9.009997360E-3
4.714553712E0,1.328592747E-2,1.695101149E-2,1.023169141E-2
4.716935691E0,1.466033421E-2,1.572931744E-2,1.023169141E-2
4.719317618E0,1.328592747E-2,1.572931744E-2,1.023169141E-2
4.721699598E0,1.206423342E-2,1.206423342E-2,1.145338640E-2
4.724081577E0,1.206423342E-2,1.084253844E-2,1.023169141E-2
4.726463556E0,1.588202827E-2,8.399149403E-3,9.009997360E-3
4.728845535E0,1.588202827E-2,7.330167107E-3,1.145338640E-2
4.731227462E0,1.710372418E-2,8.399149403E-3,1.145338640E-2
4.733609441E0,1.710372418E-2,7.177455351E-3,9.009997360E-3
4.735991421E0,1.832541823E-2,6.108472589E-3,1.023169141E-2
4.738373348E0,2.199050039E-2,7.330167107E-3,9.009997360E-3
4.740755327E0,1.954711229E-2,7.177455351E-3,5.344913341E-3
4.743137306E0,1.954711229E-2,5.955760833E-3,5.344913341E-3
4.745519285E0,2.076880634E-2,8.399149403E-3,4.123218823E-3
4.747901264E0,2.076880634E-2,8.399149403E-3,4.123218823E-3
4.750283191E0,1.954711229E-2,8.399149403E-3,4.123218823E-3
4.752665171E0,2.321219631E-2,8.399149403E-3,1.679830020E-3
